"success","timeout","failed_images","failed_audio","failed_video","typeoftrial","subject","trial_type","trial_index","time_elapsed","internal_node_id","run_id","condition","recorded_at","source_code_version","ip","user_agent","device","browser","browser_version","platform","platform_version","rt","response","Experiment","stimulus","list_number","trialcondition","correct","question_order"
"true","false","[]","[]","[]","preload","66057","preload","0","793","0.0-0.0","61","2","2022-11-17 12:22:35","fd252370c17a9971d68c1d4354a03c2e","","Mozilla/5.0 (Windows NT 10.0; Win64; x64) AppleWebKit/537.36 (KHTML, like Gecko) Chrome/107.0.0.0 Safari/537.36","WebKit","Chrome","107.0.0.0","Windows","10.0","","","","","","","",""
"","","","","","ID","66057","survey-text","1","5434","0.0-1.0","61","2","2022-11-17 12:22:35","fd252370c17a9971d68c1d4354a03c2e","","Mozilla/5.0 (Windows NT 10.0; Win64; x64) AppleWebKit/537.36 (KHTML, like Gecko) Chrome/107.0.0.0 Safari/537.36","WebKit","Chrome","107.0.0.0","Windows","10.0","4632","{""ID"":""5cd9e29d3d342c001a746209""}","","","","","",""
"","","","","","instructions","66057","html-button-response","2","44679","0.0-2.0","61","2","2022-11-17 12:22:35","fd252370c17a9971d68c1d4354a03c2e","","Mozilla/5.0 (Windows NT 10.0; Win64; x64) AppleWebKit/537.36 (KHTML, like Gecko) Chrome/107.0.0.0 Safari/537.36","WebKit","Chrome","107.0.0.0","Windows","10.0","39242","0","","
                    <p style=""font-size:20px;""> Welcome to the experiment! </p>
                    <p style=""font-size:20px;""> In this experiment, you will be asked to make judgments about the content of different sentences.</p>
                    <p style=""font-size:20px;""> On each trial, you will read a sentence, and will be shown a picture immediately following the sentence. </p>
                    <p style=""font-size:20px;""> Your task is to decide whether the object displayed in the picture was mentioned in the sentence or not </p>
                    <p style=""font-size:20px;""> and respond as quickly as possible by pressing <strong>S</strong> for yes or <strong>N</strong> for no. </p>
                    <p style=""font-size:20px;""> You will now do a practice session with feedback and instructions. </p>
                    <p style=""font-size:20px;""> Click the button below to continue.</p>
                    ","","","",""
"","","","","","instructions","66057","html-button-response","3","51548","0.0-3.0","61","2","2022-11-17 12:22:35","fd252370c17a9971d68c1d4354a03c2e","","Mozilla/5.0 (Windows NT 10.0; Win64; x64) AppleWebKit/537.36 (KHTML, like Gecko) Chrome/107.0.0.0 Safari/537.36","WebKit","Chrome","107.0.0.0","Windows","10.0","6865","0","","
                    <p style=""font-size:20px;""> You are about to begin the practice test. </p>
                    <p style=""font-size:20px;""> On each trial, a sentence will appear on the screen. You should press SPACEBAR when you have read and understood the sentence.</p>
                    <p style=""font-size:20px;""> After you press SPACEBAR, a picture will appear on the screen. </p>
                    <p style=""font-size:20px;""> You need to indicate whether or not the pictured object was mentioned in the sentence. </p>
                    <p style=""font-size:20px;""> If the object WAS mentioned in the preceding sentence, you should press <strong>S</strong> </p>
                    <p style=""font-size:20px;""> If the object was NOT mentioned in the preceding sentence, you should press <strong>N</strong>. </p>
                    <p style=""font-size:20px;""> Click the button below to continue to the practice session.</p>
                    ","","","",""
"","","","","","fixation","66057","html-keyboard-response","4","52554","0.0-4.0-0.0","61","2","2022-11-17 12:22:35","fd252370c17a9971d68c1d4354a03c2e","","Mozilla/5.0 (Windows NT 10.0; Win64; x64) AppleWebKit/537.36 (KHTML, like Gecko) Chrome/107.0.0.0 Safari/537.36","WebKit","Chrome","107.0.0.0","Windows","10.0","null","null","","<p style=""font-size: 48px;"">+</p>","practice","practice_n","",""
"","","","","","sentence","66057","html-keyboard-response","5","54976","0.0-4.0-1.0","61","2","2022-11-17 12:22:35","fd252370c17a9971d68c1d4354a03c2e","","Mozilla/5.0 (Windows NT 10.0; Win64; x64) AppleWebKit/537.36 (KHTML, like Gecko) Chrome/107.0.0.0 Safari/537.36","WebKit","Chrome","107.0.0.0","Windows","10.0","2419"," ","","A fork was placed on a stool","practice","practice_n","",""
"","","","","","fixation","66057","html-keyboard-response","6","55481","0.0-4.0-2.0","61","2","2022-11-17 12:22:35","fd252370c17a9971d68c1d4354a03c2e","","Mozilla/5.0 (Windows NT 10.0; Win64; x64) AppleWebKit/537.36 (KHTML, like Gecko) Chrome/107.0.0.0 Safari/537.36","WebKit","Chrome","107.0.0.0","Windows","10.0","null","null","","<p style=""font-size: 48px;"">+</p>","practice","practice_n","",""
"","","","","","picture","66057","image-keyboard-response","7","57335","0.0-4.0-3.0","61","2","2022-11-17 12:22:35","fd252370c17a9971d68c1d4354a03c2e","","Mozilla/5.0 (Windows NT 10.0; Win64; x64) AppleWebKit/537.36 (KHTML, like Gecko) Chrome/107.0.0.0 Safari/537.36","WebKit","Chrome","107.0.0.0","Windows","10.0","1834","n","","tableB.jpg","practice","practice_n","true",""
"","","","","","","","html-keyboard-response","8","59347","0.0-4.0-4.0","61","2","2022-11-17 12:22:35","fd252370c17a9971d68c1d4354a03c2e","","Mozilla/5.0 (Windows NT 10.0; Win64; x64) AppleWebKit/537.36 (KHTML, like Gecko) Chrome/107.0.0.0 Safari/537.36","WebKit","Chrome","107.0.0.0","Windows","10.0","null","null","","CORRECT!","","","",""
"","","","","","fixation","66057","html-keyboard-response","9","60354","0.0-4.0-0.1","61","2","2022-11-17 12:22:35","fd252370c17a9971d68c1d4354a03c2e","","Mozilla/5.0 (Windows NT 10.0; Win64; x64) AppleWebKit/537.36 (KHTML, like Gecko) Chrome/107.0.0.0 Safari/537.36","WebKit","Chrome","107.0.0.0","Windows","10.0","null","null","","<p style=""font-size: 48px;"">+</p>","practice","practice_n","",""
"","","","","","sentence","66057","html-keyboard-response","10","60624","0.0-4.0-1.1","61","2","2022-11-17 12:22:35","fd252370c17a9971d68c1d4354a03c2e","","Mozilla/5.0 (Windows NT 10.0; Win64; x64) AppleWebKit/537.36 (KHTML, like Gecko) Chrome/107.0.0.0 Safari/537.36","WebKit","Chrome","107.0.0.0","Windows","10.0","268"," ","","A balloon dropped and smashed a cup","practice","practice_n","",""
"","","","","","fixation","66057","html-keyboard-response","11","61129","0.0-4.0-2.1","61","2","2022-11-17 12:22:35","fd252370c17a9971d68c1d4354a03c2e","","Mozilla/5.0 (Windows NT 10.0; Win64; x64) AppleWebKit/537.36 (KHTML, like Gecko) Chrome/107.0.0.0 Safari/537.36","WebKit","Chrome","107.0.0.0","Windows","10.0","null","null","","<p style=""font-size: 48px;"">+</p>","practice","practice_n","",""
"","","","","","picture","66057","image-keyboard-response","12","62936","0.0-4.0-3.1","61","2","2022-11-17 12:22:35","fd252370c17a9971d68c1d4354a03c2e","","Mozilla/5.0 (Windows NT 10.0; Win64; x64) AppleWebKit/537.36 (KHTML, like Gecko) Chrome/107.0.0.0 Safari/537.36","WebKit","Chrome","107.0.0.0","Windows","10.0","1804","n","","bananaB.jpg","practice","practice_n","true",""
"","","","","","","","html-keyboard-response","13","64946","0.0-4.0-4.1","61","2","2022-11-17 12:22:35","fd252370c17a9971d68c1d4354a03c2e","","Mozilla/5.0 (Windows NT 10.0; Win64; x64) AppleWebKit/537.36 (KHTML, like Gecko) Chrome/107.0.0.0 Safari/537.36","WebKit","Chrome","107.0.0.0","Windows","10.0","null","null","","CORRECT!","","","",""
"","","","","","fixation","66057","html-keyboard-response","14","65953","0.0-4.0-0.2","61","2","2022-11-17 12:22:35","fd252370c17a9971d68c1d4354a03c2e","","Mozilla/5.0 (Windows NT 10.0; Win64; x64) AppleWebKit/537.36 (KHTML, like Gecko) Chrome/107.0.0.0 Safari/537.36","WebKit","Chrome","107.0.0.0","Windows","10.0","null","null","","<p style=""font-size: 48px;"">+</p>","practice","practice_s","",""
"","","","","","sentence","66057","html-keyboard-response","15","68474","0.0-4.0-1.2","61","2","2022-11-17 12:22:35","fd252370c17a9971d68c1d4354a03c2e","","Mozilla/5.0 (Windows NT 10.0; Win64; x64) AppleWebKit/537.36 (KHTML, like Gecko) Chrome/107.0.0.0 Safari/537.36","WebKit","Chrome","107.0.0.0","Windows","10.0","2519"," ","","A bowling ball dropped and smashed a teacup","practice","practice_s","",""
"","","","","","fixation","66057","html-keyboard-response","16","68986","0.0-4.0-2.2","61","2","2022-11-17 12:22:35","fd252370c17a9971d68c1d4354a03c2e","","Mozilla/5.0 (Windows NT 10.0; Win64; x64) AppleWebKit/537.36 (KHTML, like Gecko) Chrome/107.0.0.0 Safari/537.36","WebKit","Chrome","107.0.0.0","Windows","10.0","null","null","","<p style=""font-size: 48px;"">+</p>","practice","practice_s","",""
"","","","","","picture","66057","image-keyboard-response","17","71073","0.0-4.0-3.2","61","2","2022-11-17 12:22:35","fd252370c17a9971d68c1d4354a03c2e","","Mozilla/5.0 (Windows NT 10.0; Win64; x64) AppleWebKit/537.36 (KHTML, like Gecko) Chrome/107.0.0.0 Safari/537.36","WebKit","Chrome","107.0.0.0","Windows","10.0","2084","n","","cupB.jpg","practice","practice_s","false",""
"","","","","","","","html-keyboard-response","18","73082","0.0-4.0-4.2","61","2","2022-11-17 12:22:35","fd252370c17a9971d68c1d4354a03c2e","","Mozilla/5.0 (Windows NT 10.0; Win64; x64) AppleWebKit/537.36 (KHTML, like Gecko) Chrome/107.0.0.0 Safari/537.36","WebKit","Chrome","107.0.0.0","Windows","10.0","null","null","","WRONG!","","","",""
"","","","","","fixation","66057","html-keyboard-response","19","74090","0.0-4.0-0.3","61","2","2022-11-17 12:22:35","fd252370c17a9971d68c1d4354a03c2e","","Mozilla/5.0 (Windows NT 10.0; Win64; x64) AppleWebKit/537.36 (KHTML, like Gecko) Chrome/107.0.0.0 Safari/537.36","WebKit","Chrome","107.0.0.0","Windows","10.0","null","null","","<p style=""font-size: 48px;"">+</p>","practice","practice_n","",""
"","","","","","sentence","66057","html-keyboard-response","20","76861","0.0-4.0-1.3","61","2","2022-11-17 12:22:35","fd252370c17a9971d68c1d4354a03c2e","","Mozilla/5.0 (Windows NT 10.0; Win64; x64) AppleWebKit/537.36 (KHTML, like Gecko) Chrome/107.0.0.0 Safari/537.36","WebKit","Chrome","107.0.0.0","Windows","10.0","2768"," ","","A bowling ball dropped and touched a bottle","practice","practice_n","",""
"","","","","","fixation","66057","html-keyboard-response","21","77370","0.0-4.0-2.3","61","2","2022-11-17 12:22:35","fd252370c17a9971d68c1d4354a03c2e","","Mozilla/5.0 (Windows NT 10.0; Win64; x64) AppleWebKit/537.36 (KHTML, like Gecko) Chrome/107.0.0.0 Safari/537.36","WebKit","Chrome","107.0.0.0","Windows","10.0","null","null","","<p style=""font-size: 48px;"">+</p>","practice","practice_n","",""
"","","","","","picture","66057","image-keyboard-response","22","78471","0.0-4.0-3.3","61","2","2022-11-17 12:22:35","fd252370c17a9971d68c1d4354a03c2e","","Mozilla/5.0 (Windows NT 10.0; Win64; x64) AppleWebKit/537.36 (KHTML, like Gecko) Chrome/107.0.0.0 Safari/537.36","WebKit","Chrome","107.0.0.0","Windows","10.0","1100","n","","bookB.jpg","practice","practice_n","true",""
"","","","","","","","html-keyboard-response","23","80482","0.0-4.0-4.3","61","2","2022-11-17 12:22:35","fd252370c17a9971d68c1d4354a03c2e","","Mozilla/5.0 (Windows NT 10.0; Win64; x64) AppleWebKit/537.36 (KHTML, like Gecko) Chrome/107.0.0.0 Safari/537.36","WebKit","Chrome","107.0.0.0","Windows","10.0","null","null","","CORRECT!","","","",""
"","","","","","fixation","66057","html-keyboard-response","24","81489","0.0-4.0-0.4","61","2","2022-11-17 12:22:35","fd252370c17a9971d68c1d4354a03c2e","","Mozilla/5.0 (Windows NT 10.0; Win64; x64) AppleWebKit/537.36 (KHTML, like Gecko) Chrome/107.0.0.0 Safari/537.36","WebKit","Chrome","107.0.0.0","Windows","10.0","null","null","","<p style=""font-size: 48px;"">+</p>","practice","practice_s","",""
"","","","","","sentence","66057","html-keyboard-response","25","83485","0.0-4.0-1.4","61","2","2022-11-17 12:22:35","fd252370c17a9971d68c1d4354a03c2e","","Mozilla/5.0 (Windows NT 10.0; Win64; x64) AppleWebKit/537.36 (KHTML, like Gecko) Chrome/107.0.0.0 Safari/537.36","WebKit","Chrome","107.0.0.0","Windows","10.0","1993"," ","","A knife was placed on a hammer","practice","practice_s","",""
"","","","","","fixation","66057","html-keyboard-response","26","83995","0.0-4.0-2.4","61","2","2022-11-17 12:22:35","fd252370c17a9971d68c1d4354a03c2e","","Mozilla/5.0 (Windows NT 10.0; Win64; x64) AppleWebKit/537.36 (KHTML, like Gecko) Chrome/107.0.0.0 Safari/537.36","WebKit","Chrome","107.0.0.0","Windows","10.0","null","null","","<p style=""font-size: 48px;"">+</p>","practice","practice_s","",""
"","","","","","picture","66057","image-keyboard-response","27","86110","0.0-4.0-3.4","61","2","2022-11-17 12:22:35","fd252370c17a9971d68c1d4354a03c2e","","Mozilla/5.0 (Windows NT 10.0; Win64; x64) AppleWebKit/537.36 (KHTML, like Gecko) Chrome/107.0.0.0 Safari/537.36","WebKit","Chrome","107.0.0.0","Windows","10.0","2112","s","","hammerB.jpg","practice","practice_s","true",""
"","","","","","","","html-keyboard-response","28","88128","0.0-4.0-4.4","61","2","2022-11-17 12:22:35","fd252370c17a9971d68c1d4354a03c2e","","Mozilla/5.0 (Windows NT 10.0; Win64; x64) AppleWebKit/537.36 (KHTML, like Gecko) Chrome/107.0.0.0 Safari/537.36","WebKit","Chrome","107.0.0.0","Windows","10.0","null","null","","CORRECT!","","","",""
"","","","","","fixation","66057","html-keyboard-response","29","89138","0.0-4.0-0.5","61","2","2022-11-17 12:22:35","fd252370c17a9971d68c1d4354a03c2e","","Mozilla/5.0 (Windows NT 10.0; Win64; x64) AppleWebKit/537.36 (KHTML, like Gecko) Chrome/107.0.0.0 Safari/537.36","WebKit","Chrome","107.0.0.0","Windows","10.0","null","null","","<p style=""font-size: 48px;"">+</p>","practice","practice_s","",""
"","","","","","sentence","66057","html-keyboard-response","30","91200","0.0-4.0-1.5","61","2","2022-11-17 12:22:35","fd252370c17a9971d68c1d4354a03c2e","","Mozilla/5.0 (Windows NT 10.0; Win64; x64) AppleWebKit/537.36 (KHTML, like Gecko) Chrome/107.0.0.0 Safari/537.36","WebKit","Chrome","107.0.0.0","Windows","10.0","2059"," ","","A balloon dropped and touched a cigarette","practice","practice_s","",""
"","","","","","fixation","66057","html-keyboard-response","31","91705","0.0-4.0-2.5","61","2","2022-11-17 12:22:35","fd252370c17a9971d68c1d4354a03c2e","","Mozilla/5.0 (Windows NT 10.0; Win64; x64) AppleWebKit/537.36 (KHTML, like Gecko) Chrome/107.0.0.0 Safari/537.36","WebKit","Chrome","107.0.0.0","Windows","10.0","null","null","","<p style=""font-size: 48px;"">+</p>","practice","practice_s","",""
"","","","","","picture","66057","image-keyboard-response","32","92685","0.0-4.0-3.5","61","2","2022-11-17 12:22:35","fd252370c17a9971d68c1d4354a03c2e","","Mozilla/5.0 (Windows NT 10.0; Win64; x64) AppleWebKit/537.36 (KHTML, like Gecko) Chrome/107.0.0.0 Safari/537.36","WebKit","Chrome","107.0.0.0","Windows","10.0","977","s","","cigaretteB.jpg","practice","practice_s","true",""
"","","","","","","","html-keyboard-response","33","94699","0.0-4.0-4.5","61","2","2022-11-17 12:22:35","fd252370c17a9971d68c1d4354a03c2e","","Mozilla/5.0 (Windows NT 10.0; Win64; x64) AppleWebKit/537.36 (KHTML, like Gecko) Chrome/107.0.0.0 Safari/537.36","WebKit","Chrome","107.0.0.0","Windows","10.0","null","null","","CORRECT!","","","",""
"","","","","","movetoexp","66057","html-button-response","34","107580","0.0-5.0","61","2","2022-11-17 12:22:35","fd252370c17a9971d68c1d4354a03c2e","","Mozilla/5.0 (Windows NT 10.0; Win64; x64) AppleWebKit/537.36 (KHTML, like Gecko) Chrome/107.0.0.0 Safari/537.36","WebKit","Chrome","107.0.0.0","Windows","10.0","12877","0","","<p style=""font-size:20px;"">You have now completed the practice session! </p>
                    <p style=""font-size:20px;"">You will now move on to the main experiment, where you will not be provided any feedback. </p>
                    <p style=""font-size:20px;"">Remember, you should press <strong>S</strong> if the pictured object was mentioned in the preceding sentence<br> and <strong>N</strong> if the pictured object was not mentioned in the preceding sentence.</p>
                    <p style=""font-size:20px;"">Please click the button below to continue to the main experiment. </p>","","","",""
"","","","","","fixation","66057","html-keyboard-response","35","108586","0.0-6.0-0.0","61","2","2022-11-17 12:22:35","fd252370c17a9971d68c1d4354a03c2e","","Mozilla/5.0 (Windows NT 10.0; Win64; x64) AppleWebKit/537.36 (KHTML, like Gecko) Chrome/107.0.0.0 Safari/537.36","WebKit","Chrome","107.0.0.0","Windows","10.0","null","null","","<p style=""font-size: 48px;"">+</p>","2","Filler","",""
"","","","","","sentence","66057","html-keyboard-response","36","111149","0.0-6.0-1.0","61","2","2022-11-17 12:22:35","fd252370c17a9971d68c1d4354a03c2e","","Mozilla/5.0 (Windows NT 10.0; Win64; x64) AppleWebKit/537.36 (KHTML, like Gecko) Chrome/107.0.0.0 Safari/537.36","WebKit","Chrome","107.0.0.0","Windows","10.0","2559"," ","","A donkey is drinking water.","2","Filler","",""
"","","","","","fixation","66057","html-keyboard-response","37","111658","0.0-6.0-2.0","61","2","2022-11-17 12:22:35","fd252370c17a9971d68c1d4354a03c2e","","Mozilla/5.0 (Windows NT 10.0; Win64; x64) AppleWebKit/537.36 (KHTML, like Gecko) Chrome/107.0.0.0 Safari/537.36","WebKit","Chrome","107.0.0.0","Windows","10.0","null","null","","<p style=""font-size: 48px;"">+</p>","2","Filler","",""
"","","","","","picture","66057","image-keyboard-response","38","112461","0.0-6.0-3.0","61","2","2022-11-17 12:22:35","fd252370c17a9971d68c1d4354a03c2e","","Mozilla/5.0 (Windows NT 10.0; Win64; x64) AppleWebKit/537.36 (KHTML, like Gecko) Chrome/107.0.0.0 Safari/537.36","WebKit","Chrome","107.0.0.0","Windows","10.0","800","n","","couch.jpg","2","Filler","true",""
"","","","","","fixation","66057","html-keyboard-response","39","113473","0.0-6.0-0.1","61","2","2022-11-17 12:22:35","fd252370c17a9971d68c1d4354a03c2e","","Mozilla/5.0 (Windows NT 10.0; Win64; x64) AppleWebKit/537.36 (KHTML, like Gecko) Chrome/107.0.0.0 Safari/537.36","WebKit","Chrome","107.0.0.0","Windows","10.0","null","null","","<p style=""font-size: 48px;"">+</p>","2","Heavy_Contradictory","",""
"","","","","","sentence","66057","html-keyboard-response","40","115313","0.0-6.0-1.1","61","2","2022-11-17 12:22:35","fd252370c17a9971d68c1d4354a03c2e","","Mozilla/5.0 (Windows NT 10.0; Win64; x64) AppleWebKit/537.36 (KHTML, like Gecko) Chrome/107.0.0.0 Safari/537.36","WebKit","Chrome","107.0.0.0","Windows","10.0","1836"," ","","A bowling ball dropped and touched a mirror","2","Heavy_Contradictory","",""
"","","","","","fixation","66057","html-keyboard-response","41","115817","0.0-6.0-2.1","61","2","2022-11-17 12:22:35","fd252370c17a9971d68c1d4354a03c2e","","Mozilla/5.0 (Windows NT 10.0; Win64; x64) AppleWebKit/537.36 (KHTML, like Gecko) Chrome/107.0.0.0 Safari/537.36","WebKit","Chrome","107.0.0.0","Windows","10.0","null","null","","<p style=""font-size: 48px;"">+</p>","2","Heavy_Contradictory","",""
"","","","","","picture","66057","image-keyboard-response","42","116636","0.0-6.0-3.1","61","2","2022-11-17 12:22:35","fd252370c17a9971d68c1d4354a03c2e","","Mozilla/5.0 (Windows NT 10.0; Win64; x64) AppleWebKit/537.36 (KHTML, like Gecko) Chrome/107.0.0.0 Safari/537.36","WebKit","Chrome","107.0.0.0","Windows","10.0","815","s","","mirrorS.jpg","2","Heavy_Contradictory","true",""
"","","","","","fixation","66057","html-keyboard-response","43","117646","0.0-6.0-0.2","61","2","2022-11-17 12:22:35","fd252370c17a9971d68c1d4354a03c2e","","Mozilla/5.0 (Windows NT 10.0; Win64; x64) AppleWebKit/537.36 (KHTML, like Gecko) Chrome/107.0.0.0 Safari/537.36","WebKit","Chrome","107.0.0.0","Windows","10.0","null","null","","<p style=""font-size: 48px;"">+</p>","2","Heavy_Matched","",""
"","","","","","sentence","66057","html-keyboard-response","44","119362","0.0-6.0-1.2","61","2","2022-11-17 12:22:35","fd252370c17a9971d68c1d4354a03c2e","","Mozilla/5.0 (Windows NT 10.0; Win64; x64) AppleWebKit/537.36 (KHTML, like Gecko) Chrome/107.0.0.0 Safari/537.36","WebKit","Chrome","107.0.0.0","Windows","10.0","1713"," ","","A bowling ball dropped and smashed an iPAD","2","Heavy_Matched","",""
"","","","","","fixation","66057","html-keyboard-response","45","119866","0.0-6.0-2.2","61","2","2022-11-17 12:22:35","fd252370c17a9971d68c1d4354a03c2e","","Mozilla/5.0 (Windows NT 10.0; Win64; x64) AppleWebKit/537.36 (KHTML, like Gecko) Chrome/107.0.0.0 Safari/537.36","WebKit","Chrome","107.0.0.0","Windows","10.0","null","null","","<p style=""font-size: 48px;"">+</p>","2","Heavy_Matched","",""
"","","","","","picture","66057","image-keyboard-response","46","120837","0.0-6.0-3.2","61","2","2022-11-17 12:22:35","fd252370c17a9971d68c1d4354a03c2e","","Mozilla/5.0 (Windows NT 10.0; Win64; x64) AppleWebKit/537.36 (KHTML, like Gecko) Chrome/107.0.0.0 Safari/537.36","WebKit","Chrome","107.0.0.0","Windows","10.0","966","s","","iPadS.jpg","2","Heavy_Matched","true",""
"","","","","","fixation","66057","html-keyboard-response","47","121841","0.0-6.0-0.3","61","2","2022-11-17 12:22:35","fd252370c17a9971d68c1d4354a03c2e","","Mozilla/5.0 (Windows NT 10.0; Win64; x64) AppleWebKit/537.36 (KHTML, like Gecko) Chrome/107.0.0.0 Safari/537.36","WebKit","Chrome","107.0.0.0","Windows","10.0","null","null","","<p style=""font-size: 48px;"">+</p>","2","Filler","",""
"","","","","","sentence","66057","html-keyboard-response","48","123900","0.0-6.0-1.3","61","2","2022-11-17 12:22:35","fd252370c17a9971d68c1d4354a03c2e","","Mozilla/5.0 (Windows NT 10.0; Win64; x64) AppleWebKit/537.36 (KHTML, like Gecko) Chrome/107.0.0.0 Safari/537.36","WebKit","Chrome","107.0.0.0","Windows","10.0","2055"," ","","A postman is driving a car","2","Filler","",""
"","","","","","fixation","66057","html-keyboard-response","49","124414","0.0-6.0-2.3","61","2","2022-11-17 12:22:35","fd252370c17a9971d68c1d4354a03c2e","","Mozilla/5.0 (Windows NT 10.0; Win64; x64) AppleWebKit/537.36 (KHTML, like Gecko) Chrome/107.0.0.0 Safari/537.36","WebKit","Chrome","107.0.0.0","Windows","10.0","null","null","","<p style=""font-size: 48px;"">+</p>","2","Filler","",""
"","","","","","picture","66057","image-keyboard-response","50","125687","0.0-6.0-3.3","61","2","2022-11-17 12:22:35","fd252370c17a9971d68c1d4354a03c2e","","Mozilla/5.0 (Windows NT 10.0; Win64; x64) AppleWebKit/537.36 (KHTML, like Gecko) Chrome/107.0.0.0 Safari/537.36","WebKit","Chrome","107.0.0.0","Windows","10.0","1270","s","","car.jpg","2","Filler","true",""
"","","","","","fixation","66057","html-keyboard-response","51","126698","0.0-6.0-0.4","61","2","2022-11-17 12:22:35","fd252370c17a9971d68c1d4354a03c2e","","Mozilla/5.0 (Windows NT 10.0; Win64; x64) AppleWebKit/537.36 (KHTML, like Gecko) Chrome/107.0.0.0 Safari/537.36","WebKit","Chrome","107.0.0.0","Windows","10.0","null","null","","<p style=""font-size: 48px;"">+</p>","2","Filler","",""
"","","","","","sentence","66057","html-keyboard-response","52","128163","0.0-6.0-1.4","61","2","2022-11-17 12:22:35","fd252370c17a9971d68c1d4354a03c2e","","Mozilla/5.0 (Windows NT 10.0; Win64; x64) AppleWebKit/537.36 (KHTML, like Gecko) Chrome/107.0.0.0 Safari/537.36","WebKit","Chrome","107.0.0.0","Windows","10.0","1462"," ","","A cat is drinking water from a bowl","2","Filler","",""
"","","","","","fixation","66057","html-keyboard-response","53","128666","0.0-6.0-2.4","61","2","2022-11-17 12:22:35","fd252370c17a9971d68c1d4354a03c2e","","Mozilla/5.0 (Windows NT 10.0; Win64; x64) AppleWebKit/537.36 (KHTML, like Gecko) Chrome/107.0.0.0 Safari/537.36","WebKit","Chrome","107.0.0.0","Windows","10.0","null","null","","<p style=""font-size: 48px;"">+</p>","2","Filler","",""
"","","","","","picture","66057","image-keyboard-response","54","129437","0.0-6.0-3.4","61","2","2022-11-17 12:22:35","fd252370c17a9971d68c1d4354a03c2e","","Mozilla/5.0 (Windows NT 10.0; Win64; x64) AppleWebKit/537.36 (KHTML, like Gecko) Chrome/107.0.0.0 Safari/537.36","WebKit","Chrome","107.0.0.0","Windows","10.0","767","s","","bowl.jpg","2","Filler","true",""
"","","","","","fixation","66057","html-keyboard-response","55","130442","0.0-6.0-0.5","61","2","2022-11-17 12:22:35","fd252370c17a9971d68c1d4354a03c2e","","Mozilla/5.0 (Windows NT 10.0; Win64; x64) AppleWebKit/537.36 (KHTML, like Gecko) Chrome/107.0.0.0 Safari/537.36","WebKit","Chrome","107.0.0.0","Windows","10.0","null","null","","<p style=""font-size: 48px;"">+</p>","2","Filler","",""
"","","","","","sentence","66057","html-keyboard-response","56","132162","0.0-6.0-1.5","61","2","2022-11-17 12:22:35","fd252370c17a9971d68c1d4354a03c2e","","Mozilla/5.0 (Windows NT 10.0; Win64; x64) AppleWebKit/537.36 (KHTML, like Gecko) Chrome/107.0.0.0 Safari/537.36","WebKit","Chrome","107.0.0.0","Windows","10.0","1716"," ","","A horse is chewing hay","2","Filler","",""
"","","","","","fixation","66057","html-keyboard-response","57","132665","0.0-6.0-2.5","61","2","2022-11-17 12:22:35","fd252370c17a9971d68c1d4354a03c2e","","Mozilla/5.0 (Windows NT 10.0; Win64; x64) AppleWebKit/537.36 (KHTML, like Gecko) Chrome/107.0.0.0 Safari/537.36","WebKit","Chrome","107.0.0.0","Windows","10.0","null","null","","<p style=""font-size: 48px;"">+</p>","2","Filler","",""
"","","","","","picture","66057","image-keyboard-response","58","133287","0.0-6.0-3.5","61","2","2022-11-17 12:22:35","fd252370c17a9971d68c1d4354a03c2e","","Mozilla/5.0 (Windows NT 10.0; Win64; x64) AppleWebKit/537.36 (KHTML, like Gecko) Chrome/107.0.0.0 Safari/537.36","WebKit","Chrome","107.0.0.0","Windows","10.0","617","n","","purse.jpg","2","Filler","true",""
"","","","","","fixation","66057","html-keyboard-response","59","134298","0.0-6.0-0.6","61","2","2022-11-17 12:22:35","fd252370c17a9971d68c1d4354a03c2e","","Mozilla/5.0 (Windows NT 10.0; Win64; x64) AppleWebKit/537.36 (KHTML, like Gecko) Chrome/107.0.0.0 Safari/537.36","WebKit","Chrome","107.0.0.0","Windows","10.0","null","null","","<p style=""font-size: 48px;"">+</p>","2","Heavy_Contradictory","",""
"","","","","","sentence","66057","html-keyboard-response","60","135788","0.0-6.0-1.6","61","2","2022-11-17 12:22:35","fd252370c17a9971d68c1d4354a03c2e","","Mozilla/5.0 (Windows NT 10.0; Win64; x64) AppleWebKit/537.36 (KHTML, like Gecko) Chrome/107.0.0.0 Safari/537.36","WebKit","Chrome","107.0.0.0","Windows","10.0","1487"," ","","A bowling ball dropped and touched a chocolate muffin","2","Heavy_Contradictory","",""
"","","","","","fixation","66057","html-keyboard-response","61","136300","0.0-6.0-2.6","61","2","2022-11-17 12:22:35","fd252370c17a9971d68c1d4354a03c2e","","Mozilla/5.0 (Windows NT 10.0; Win64; x64) AppleWebKit/537.36 (KHTML, like Gecko) Chrome/107.0.0.0 Safari/537.36","WebKit","Chrome","107.0.0.0","Windows","10.0","null","null","","<p style=""font-size: 48px;"">+</p>","2","Heavy_Contradictory","",""
"","","","","","picture","66057","image-keyboard-response","62","137100","0.0-6.0-3.6","61","2","2022-11-17 12:22:35","fd252370c17a9971d68c1d4354a03c2e","","Mozilla/5.0 (Windows NT 10.0; Win64; x64) AppleWebKit/537.36 (KHTML, like Gecko) Chrome/107.0.0.0 Safari/537.36","WebKit","Chrome","107.0.0.0","Windows","10.0","796","s","","muffinS.jpg","2","Heavy_Contradictory","true",""
"","","","","","fixation","66057","html-keyboard-response","63","138107","0.0-6.0-0.7","61","2","2022-11-17 12:22:35","fd252370c17a9971d68c1d4354a03c2e","","Mozilla/5.0 (Windows NT 10.0; Win64; x64) AppleWebKit/537.36 (KHTML, like Gecko) Chrome/107.0.0.0 Safari/537.36","WebKit","Chrome","107.0.0.0","Windows","10.0","null","null","","<p style=""font-size: 48px;"">+</p>","2","Filler","",""
"","","","","","sentence","66057","html-keyboard-response","64","139625","0.0-6.0-1.7","61","2","2022-11-17 12:22:35","fd252370c17a9971d68c1d4354a03c2e","","Mozilla/5.0 (Windows NT 10.0; Win64; x64) AppleWebKit/537.36 (KHTML, like Gecko) Chrome/107.0.0.0 Safari/537.36","WebKit","Chrome","107.0.0.0","Windows","10.0","1514"," ","","A thermometer was placed on the box","2","Filler","",""
"","","","","","fixation","66057","html-keyboard-response","65","140129","0.0-6.0-2.7","61","2","2022-11-17 12:22:35","fd252370c17a9971d68c1d4354a03c2e","","Mozilla/5.0 (Windows NT 10.0; Win64; x64) AppleWebKit/537.36 (KHTML, like Gecko) Chrome/107.0.0.0 Safari/537.36","WebKit","Chrome","107.0.0.0","Windows","10.0","null","null","","<p style=""font-size: 48px;"">+</p>","2","Filler","",""
"","","","","","picture","66057","image-keyboard-response","66","140900","0.0-6.0-3.7","61","2","2022-11-17 12:22:35","fd252370c17a9971d68c1d4354a03c2e","","Mozilla/5.0 (Windows NT 10.0; Win64; x64) AppleWebKit/537.36 (KHTML, like Gecko) Chrome/107.0.0.0 Safari/537.36","WebKit","Chrome","107.0.0.0","Windows","10.0","767","n","","button.jpg","2","Filler","true",""
"","","","","","fixation","66057","html-keyboard-response","67","141929","0.0-6.0-0.8","61","2","2022-11-17 12:22:35","fd252370c17a9971d68c1d4354a03c2e","","Mozilla/5.0 (Windows NT 10.0; Win64; x64) AppleWebKit/537.36 (KHTML, like Gecko) Chrome/107.0.0.0 Safari/537.36","WebKit","Chrome","107.0.0.0","Windows","10.0","null","null","","<p style=""font-size: 48px;"">+</p>","2","Filler","",""
"","","","","","sentence","66057","html-keyboard-response","68","144313","0.0-6.0-1.8","61","2","2022-11-17 12:22:35","fd252370c17a9971d68c1d4354a03c2e","","Mozilla/5.0 (Windows NT 10.0; Win64; x64) AppleWebKit/537.36 (KHTML, like Gecko) Chrome/107.0.0.0 Safari/537.36","WebKit","Chrome","107.0.0.0","Windows","10.0","2380"," ","","A dentist is drinking a can of cola","2","Filler","",""
"","","","","","fixation","66057","html-keyboard-response","69","144827","0.0-6.0-2.8","61","2","2022-11-17 12:22:35","fd252370c17a9971d68c1d4354a03c2e","","Mozilla/5.0 (Windows NT 10.0; Win64; x64) AppleWebKit/537.36 (KHTML, like Gecko) Chrome/107.0.0.0 Safari/537.36","WebKit","Chrome","107.0.0.0","Windows","10.0","null","null","","<p style=""font-size: 48px;"">+</p>","2","Filler","",""
"","","","","","picture","66057","image-keyboard-response","70","145437","0.0-6.0-3.8","61","2","2022-11-17 12:22:35","fd252370c17a9971d68c1d4354a03c2e","","Mozilla/5.0 (Windows NT 10.0; Win64; x64) AppleWebKit/537.36 (KHTML, like Gecko) Chrome/107.0.0.0 Safari/537.36","WebKit","Chrome","107.0.0.0","Windows","10.0","605","n","","doll.jpg","2","Filler","true",""
"","","","","","fixation","66057","html-keyboard-response","71","146450","0.0-6.0-0.9","61","2","2022-11-17 12:22:35","fd252370c17a9971d68c1d4354a03c2e","","Mozilla/5.0 (Windows NT 10.0; Win64; x64) AppleWebKit/537.36 (KHTML, like Gecko) Chrome/107.0.0.0 Safari/537.36","WebKit","Chrome","107.0.0.0","Windows","10.0","null","null","","<p style=""font-size: 48px;"">+</p>","2","Filler","",""
"","","","","","sentence","66057","html-keyboard-response","72","147513","0.0-6.0-1.9","61","2","2022-11-17 12:22:35","fd252370c17a9971d68c1d4354a03c2e","","Mozilla/5.0 (Windows NT 10.0; Win64; x64) AppleWebKit/537.36 (KHTML, like Gecko) Chrome/107.0.0.0 Safari/537.36","WebKit","Chrome","107.0.0.0","Windows","10.0","1058"," ","","A giraffe is playing with a zebra","2","Filler","",""
"","","","","","fixation","66057","html-keyboard-response","73","148019","0.0-6.0-2.9","61","2","2022-11-17 12:22:35","fd252370c17a9971d68c1d4354a03c2e","","Mozilla/5.0 (Windows NT 10.0; Win64; x64) AppleWebKit/537.36 (KHTML, like Gecko) Chrome/107.0.0.0 Safari/537.36","WebKit","Chrome","107.0.0.0","Windows","10.0","null","null","","<p style=""font-size: 48px;"">+</p>","2","Filler","",""
"","","","","","picture","66057","image-keyboard-response","74","148561","0.0-6.0-3.9","61","2","2022-11-17 12:22:35","fd252370c17a9971d68c1d4354a03c2e","","Mozilla/5.0 (Windows NT 10.0; Win64; x64) AppleWebKit/537.36 (KHTML, like Gecko) Chrome/107.0.0.0 Safari/537.36","WebKit","Chrome","107.0.0.0","Windows","10.0","537","n","","wallet.jpg","2","Filler","true",""
"","","","","","fixation","66057","html-keyboard-response","75","149570","0.0-6.0-0.10","61","2","2022-11-17 12:22:35","fd252370c17a9971d68c1d4354a03c2e","","Mozilla/5.0 (Windows NT 10.0; Win64; x64) AppleWebKit/537.36 (KHTML, like Gecko) Chrome/107.0.0.0 Safari/537.36","WebKit","Chrome","107.0.0.0","Windows","10.0","null","null","","<p style=""font-size: 48px;"">+</p>","2","Light_Matched","",""
"","","","","","sentence","66057","html-keyboard-response","76","151063","0.0-6.0-1.10","61","2","2022-11-17 12:22:35","fd252370c17a9971d68c1d4354a03c2e","","Mozilla/5.0 (Windows NT 10.0; Win64; x64) AppleWebKit/537.36 (KHTML, like Gecko) Chrome/107.0.0.0 Safari/537.36","WebKit","Chrome","107.0.0.0","Windows","10.0","1489"," ","","A balloon dropped and touched a ceramic plate","2","Light_Matched","",""
"","","","","","fixation","66057","html-keyboard-response","77","151570","0.0-6.0-2.10","61","2","2022-11-17 12:22:35","fd252370c17a9971d68c1d4354a03c2e","","Mozilla/5.0 (Windows NT 10.0; Win64; x64) AppleWebKit/537.36 (KHTML, like Gecko) Chrome/107.0.0.0 Safari/537.36","WebKit","Chrome","107.0.0.0","Windows","10.0","null","null","","<p style=""font-size: 48px;"">+</p>","2","Light_Matched","",""
"","","","","","picture","66057","image-keyboard-response","78","152199","0.0-6.0-3.10","61","2","2022-11-17 12:22:35","fd252370c17a9971d68c1d4354a03c2e","","Mozilla/5.0 (Windows NT 10.0; Win64; x64) AppleWebKit/537.36 (KHTML, like Gecko) Chrome/107.0.0.0 Safari/537.36","WebKit","Chrome","107.0.0.0","Windows","10.0","623","s","","plateS.jpg","2","Light_Matched","true",""
"","","","","","fixation","66057","html-keyboard-response","79","153209","0.0-6.0-0.11","61","2","2022-11-17 12:22:35","fd252370c17a9971d68c1d4354a03c2e","","Mozilla/5.0 (Windows NT 10.0; Win64; x64) AppleWebKit/537.36 (KHTML, like Gecko) Chrome/107.0.0.0 Safari/537.36","WebKit","Chrome","107.0.0.0","Windows","10.0","null","null","","<p style=""font-size: 48px;"">+</p>","2","Filler","",""
"","","","","","sentence","66057","html-keyboard-response","80","154613","0.0-6.0-1.11","61","2","2022-11-17 12:22:35","fd252370c17a9971d68c1d4354a03c2e","","Mozilla/5.0 (Windows NT 10.0; Win64; x64) AppleWebKit/537.36 (KHTML, like Gecko) Chrome/107.0.0.0 Safari/537.36","WebKit","Chrome","107.0.0.0","Windows","10.0","1399"," ","","A hairdresser is taking scissors","2","Filler","",""
"","","","","","fixation","66057","html-keyboard-response","81","155121","0.0-6.0-2.11","61","2","2022-11-17 12:22:35","fd252370c17a9971d68c1d4354a03c2e","","Mozilla/5.0 (Windows NT 10.0; Win64; x64) AppleWebKit/537.36 (KHTML, like Gecko) Chrome/107.0.0.0 Safari/537.36","WebKit","Chrome","107.0.0.0","Windows","10.0","null","null","","<p style=""font-size: 48px;"">+</p>","2","Filler","",""
"","","","","","picture","66057","image-keyboard-response","82","155923","0.0-6.0-3.11","61","2","2022-11-17 12:22:35","fd252370c17a9971d68c1d4354a03c2e","","Mozilla/5.0 (Windows NT 10.0; Win64; x64) AppleWebKit/537.36 (KHTML, like Gecko) Chrome/107.0.0.0 Safari/537.36","WebKit","Chrome","107.0.0.0","Windows","10.0","797","n","","sock.jpg","2","Filler","true",""
"","","","","","fixation","66057","html-keyboard-response","83","156935","0.0-6.0-0.12","61","2","2022-11-17 12:22:35","fd252370c17a9971d68c1d4354a03c2e","","Mozilla/5.0 (Windows NT 10.0; Win64; x64) AppleWebKit/537.36 (KHTML, like Gecko) Chrome/107.0.0.0 Safari/537.36","WebKit","Chrome","107.0.0.0","Windows","10.0","null","null","","<p style=""font-size: 48px;"">+</p>","2","Filler","",""
"","","","","","sentence","66057","html-keyboard-response","84","158501","0.0-6.0-1.12","61","2","2022-11-17 12:22:35","fd252370c17a9971d68c1d4354a03c2e","","Mozilla/5.0 (Windows NT 10.0; Win64; x64) AppleWebKit/537.36 (KHTML, like Gecko) Chrome/107.0.0.0 Safari/537.36","WebKit","Chrome","107.0.0.0","Windows","10.0","1561"," ","","A panda is resting on a tree","2","Filler","",""
"","","","","","fixation","66057","html-keyboard-response","85","159007","0.0-6.0-2.12","61","2","2022-11-17 12:22:35","fd252370c17a9971d68c1d4354a03c2e","","Mozilla/5.0 (Windows NT 10.0; Win64; x64) AppleWebKit/537.36 (KHTML, like Gecko) Chrome/107.0.0.0 Safari/537.36","WebKit","Chrome","107.0.0.0","Windows","10.0","null","null","","<p style=""font-size: 48px;"">+</p>","2","Filler","",""
"","","","","","picture","66057","image-keyboard-response","86","159637","0.0-6.0-3.12","61","2","2022-11-17 12:22:35","fd252370c17a9971d68c1d4354a03c2e","","Mozilla/5.0 (Windows NT 10.0; Win64; x64) AppleWebKit/537.36 (KHTML, like Gecko) Chrome/107.0.0.0 Safari/537.36","WebKit","Chrome","107.0.0.0","Windows","10.0","624","n","","dollar.jpg","2","Filler","true",""
"","","","","","fixation","66057","html-keyboard-response","87","160651","0.0-6.0-0.13","61","2","2022-11-17 12:22:35","fd252370c17a9971d68c1d4354a03c2e","","Mozilla/5.0 (Windows NT 10.0; Win64; x64) AppleWebKit/537.36 (KHTML, like Gecko) Chrome/107.0.0.0 Safari/537.36","WebKit","Chrome","107.0.0.0","Windows","10.0","null","null","","<p style=""font-size: 48px;"">+</p>","2","Filler","",""
"","","","","","sentence","66057","html-keyboard-response","88","161750","0.0-6.0-1.13","61","2","2022-11-17 12:22:35","fd252370c17a9971d68c1d4354a03c2e","","Mozilla/5.0 (Windows NT 10.0; Win64; x64) AppleWebKit/537.36 (KHTML, like Gecko) Chrome/107.0.0.0 Safari/537.36","WebKit","Chrome","107.0.0.0","Windows","10.0","1094"," ","","A watch was placed on the laptop","2","Filler","",""
"","","","","","fixation","66057","html-keyboard-response","89","162258","0.0-6.0-2.13","61","2","2022-11-17 12:22:35","fd252370c17a9971d68c1d4354a03c2e","","Mozilla/5.0 (Windows NT 10.0; Win64; x64) AppleWebKit/537.36 (KHTML, like Gecko) Chrome/107.0.0.0 Safari/537.36","WebKit","Chrome","107.0.0.0","Windows","10.0","null","null","","<p style=""font-size: 48px;"">+</p>","2","Filler","",""
"","","","","","picture","66057","image-keyboard-response","90","162874","0.0-6.0-3.13","61","2","2022-11-17 12:22:35","fd252370c17a9971d68c1d4354a03c2e","","Mozilla/5.0 (Windows NT 10.0; Win64; x64) AppleWebKit/537.36 (KHTML, like Gecko) Chrome/107.0.0.0 Safari/537.36","WebKit","Chrome","107.0.0.0","Windows","10.0","611","n","","bow.jpg","2","Filler","true",""
"","","","","","fixation","66057","html-keyboard-response","91","163882","0.0-6.0-0.14","61","2","2022-11-17 12:22:35","fd252370c17a9971d68c1d4354a03c2e","","Mozilla/5.0 (Windows NT 10.0; Win64; x64) AppleWebKit/537.36 (KHTML, like Gecko) Chrome/107.0.0.0 Safari/537.36","WebKit","Chrome","107.0.0.0","Windows","10.0","null","null","","<p style=""font-size: 48px;"">+</p>","2","Filler","",""
"","","","","","sentence","66057","html-keyboard-response","92","166451","0.0-6.0-1.14","61","2","2022-11-17 12:22:35","fd252370c17a9971d68c1d4354a03c2e","","Mozilla/5.0 (Windows NT 10.0; Win64; x64) AppleWebKit/537.36 (KHTML, like Gecko) Chrome/107.0.0.0 Safari/537.36","WebKit","Chrome","107.0.0.0","Windows","10.0","2565"," ","","A teenage girl is playing the piano","2","Filler","",""
"","","","","","fixation","66057","html-keyboard-response","93","166967","0.0-6.0-2.14","61","2","2022-11-17 12:22:35","fd252370c17a9971d68c1d4354a03c2e","","Mozilla/5.0 (Windows NT 10.0; Win64; x64) AppleWebKit/537.36 (KHTML, like Gecko) Chrome/107.0.0.0 Safari/537.36","WebKit","Chrome","107.0.0.0","Windows","10.0","null","null","","<p style=""font-size: 48px;"">+</p>","2","Filler","",""
"","","","","","picture","66057","image-keyboard-response","94","167562","0.0-6.0-3.14","61","2","2022-11-17 12:22:35","fd252370c17a9971d68c1d4354a03c2e","","Mozilla/5.0 (Windows NT 10.0; Win64; x64) AppleWebKit/537.36 (KHTML, like Gecko) Chrome/107.0.0.0 Safari/537.36","WebKit","Chrome","107.0.0.0","Windows","10.0","587","n","","pillow.jpg","2","Filler","true",""
"","","","","","fixation","66057","html-keyboard-response","95","168579","0.0-6.0-0.15","61","2","2022-11-17 12:22:35","fd252370c17a9971d68c1d4354a03c2e","","Mozilla/5.0 (Windows NT 10.0; Win64; x64) AppleWebKit/537.36 (KHTML, like Gecko) Chrome/107.0.0.0 Safari/537.36","WebKit","Chrome","107.0.0.0","Windows","10.0","null","null","","<p style=""font-size: 48px;"">+</p>","2","Heavy_Matched","",""
"","","","","","sentence","66057","html-keyboard-response","96","170102","0.0-6.0-1.15","61","2","2022-11-17 12:22:35","fd252370c17a9971d68c1d4354a03c2e","","Mozilla/5.0 (Windows NT 10.0; Win64; x64) AppleWebKit/537.36 (KHTML, like Gecko) Chrome/107.0.0.0 Safari/537.36","WebKit","Chrome","107.0.0.0","Windows","10.0","1517"," ","","A bowling ball dropped and smashed a blackberry","2","Heavy_Matched","",""
"","","","","","fixation","66057","html-keyboard-response","97","170610","0.0-6.0-2.15","61","2","2022-11-17 12:22:35","fd252370c17a9971d68c1d4354a03c2e","","Mozilla/5.0 (Windows NT 10.0; Win64; x64) AppleWebKit/537.36 (KHTML, like Gecko) Chrome/107.0.0.0 Safari/537.36","WebKit","Chrome","107.0.0.0","Windows","10.0","null","null","","<p style=""font-size: 48px;"">+</p>","2","Heavy_Matched","",""
"","","","","","picture","66057","image-keyboard-response","98","171688","0.0-6.0-3.15","61","2","2022-11-17 12:22:35","fd252370c17a9971d68c1d4354a03c2e","","Mozilla/5.0 (Windows NT 10.0; Win64; x64) AppleWebKit/537.36 (KHTML, like Gecko) Chrome/107.0.0.0 Safari/537.36","WebKit","Chrome","107.0.0.0","Windows","10.0","1071","s","","blackberryS.jpg","2","Heavy_Matched","true",""
"","","","","","fixation","66057","html-keyboard-response","99","172697","0.0-6.0-0.16","61","2","2022-11-17 12:22:35","fd252370c17a9971d68c1d4354a03c2e","","Mozilla/5.0 (Windows NT 10.0; Win64; x64) AppleWebKit/537.36 (KHTML, like Gecko) Chrome/107.0.0.0 Safari/537.36","WebKit","Chrome","107.0.0.0","Windows","10.0","null","null","","<p style=""font-size: 48px;"">+</p>","2","Heavy_Matched","",""
"","","","","","sentence","66057","html-keyboard-response","100","175575","0.0-6.0-1.16","61","2","2022-11-17 12:22:35","fd252370c17a9971d68c1d4354a03c2e","","Mozilla/5.0 (Windows NT 10.0; Win64; x64) AppleWebKit/537.36 (KHTML, like Gecko) Chrome/107.0.0.0 Safari/537.36","WebKit","Chrome","107.0.0.0","Windows","10.0","2872"," ","","A bowling ball dropped and smashed a chocolate ice-cream","2","Heavy_Matched","",""
"","","","","","fixation","66057","html-keyboard-response","101","176089","0.0-6.0-2.16","61","2","2022-11-17 12:22:35","fd252370c17a9971d68c1d4354a03c2e","","Mozilla/5.0 (Windows NT 10.0; Win64; x64) AppleWebKit/537.36 (KHTML, like Gecko) Chrome/107.0.0.0 Safari/537.36","WebKit","Chrome","107.0.0.0","Windows","10.0","null","null","","<p style=""font-size: 48px;"">+</p>","2","Heavy_Matched","",""
"","","","","","picture","66057","image-keyboard-response","102","176875","0.0-6.0-3.16","61","2","2022-11-17 12:22:35","fd252370c17a9971d68c1d4354a03c2e","","Mozilla/5.0 (Windows NT 10.0; Win64; x64) AppleWebKit/537.36 (KHTML, like Gecko) Chrome/107.0.0.0 Safari/537.36","WebKit","Chrome","107.0.0.0","Windows","10.0","778","s","","icecreamS.jpg","2","Heavy_Matched","true",""
"","","","","","fixation","66057","html-keyboard-response","103","177882","0.0-6.0-0.17","61","2","2022-11-17 12:22:35","fd252370c17a9971d68c1d4354a03c2e","","Mozilla/5.0 (Windows NT 10.0; Win64; x64) AppleWebKit/537.36 (KHTML, like Gecko) Chrome/107.0.0.0 Safari/537.36","WebKit","Chrome","107.0.0.0","Windows","10.0","null","null","","<p style=""font-size: 48px;"">+</p>","2","Light_Contradictory","",""
"","","","","","sentence","66057","html-keyboard-response","104","179025","0.0-6.0-1.17","61","2","2022-11-17 12:22:35","fd252370c17a9971d68c1d4354a03c2e","","Mozilla/5.0 (Windows NT 10.0; Win64; x64) AppleWebKit/537.36 (KHTML, like Gecko) Chrome/107.0.0.0 Safari/537.36","WebKit","Chrome","107.0.0.0","Windows","10.0","1138"," ","","A balloon dropped and smashed a TV","2","Light_Contradictory","",""
"","","","","","fixation","66057","html-keyboard-response","105","179539","0.0-6.0-2.17","61","2","2022-11-17 12:22:35","fd252370c17a9971d68c1d4354a03c2e","","Mozilla/5.0 (Windows NT 10.0; Win64; x64) AppleWebKit/537.36 (KHTML, like Gecko) Chrome/107.0.0.0 Safari/537.36","WebKit","Chrome","107.0.0.0","Windows","10.0","null","null","","<p style=""font-size: 48px;"">+</p>","2","Light_Contradictory","",""
"","","","","","picture","66057","image-keyboard-response","106","180313","0.0-6.0-3.17","61","2","2022-11-17 12:22:35","fd252370c17a9971d68c1d4354a03c2e","","Mozilla/5.0 (Windows NT 10.0; Win64; x64) AppleWebKit/537.36 (KHTML, like Gecko) Chrome/107.0.0.0 Safari/537.36","WebKit","Chrome","107.0.0.0","Windows","10.0","769","s","","tvS.jpg","2","Light_Contradictory","true",""
"","","","","","fixation","66057","html-keyboard-response","107","181332","0.0-6.0-0.18","61","2","2022-11-17 12:22:35","fd252370c17a9971d68c1d4354a03c2e","","Mozilla/5.0 (Windows NT 10.0; Win64; x64) AppleWebKit/537.36 (KHTML, like Gecko) Chrome/107.0.0.0 Safari/537.36","WebKit","Chrome","107.0.0.0","Windows","10.0","null","null","","<p style=""font-size: 48px;"">+</p>","2","Filler","",""
"","","","","","sentence","66057","html-keyboard-response","108","182587","0.0-6.0-1.18","61","2","2022-11-17 12:22:35","fd252370c17a9971d68c1d4354a03c2e","","Mozilla/5.0 (Windows NT 10.0; Win64; x64) AppleWebKit/537.36 (KHTML, like Gecko) Chrome/107.0.0.0 Safari/537.36","WebKit","Chrome","107.0.0.0","Windows","10.0","1251"," ","","A towel was placed on the TV","2","Filler","",""
"","","","","","fixation","66057","html-keyboard-response","109","183098","0.0-6.0-2.18","61","2","2022-11-17 12:22:35","fd252370c17a9971d68c1d4354a03c2e","","Mozilla/5.0 (Windows NT 10.0; Win64; x64) AppleWebKit/537.36 (KHTML, like Gecko) Chrome/107.0.0.0 Safari/537.36","WebKit","Chrome","107.0.0.0","Windows","10.0","null","null","","<p style=""font-size: 48px;"">+</p>","2","Filler","",""
"","","","","","picture","66057","image-keyboard-response","110","183737","0.0-6.0-3.18","61","2","2022-11-17 12:22:35","fd252370c17a9971d68c1d4354a03c2e","","Mozilla/5.0 (Windows NT 10.0; Win64; x64) AppleWebKit/537.36 (KHTML, like Gecko) Chrome/107.0.0.0 Safari/537.36","WebKit","Chrome","107.0.0.0","Windows","10.0","634","n","","pencil.jpg","2","Filler","true",""
"","","","","","fixation","66057","html-keyboard-response","111","184754","0.0-6.0-0.19","61","2","2022-11-17 12:22:35","fd252370c17a9971d68c1d4354a03c2e","","Mozilla/5.0 (Windows NT 10.0; Win64; x64) AppleWebKit/537.36 (KHTML, like Gecko) Chrome/107.0.0.0 Safari/537.36","WebKit","Chrome","107.0.0.0","Windows","10.0","null","null","","<p style=""font-size: 48px;"">+</p>","2","Light_Matched","",""
"","","","","","sentence","66057","html-keyboard-response","112","186176","0.0-6.0-1.19","61","2","2022-11-17 12:22:35","fd252370c17a9971d68c1d4354a03c2e","","Mozilla/5.0 (Windows NT 10.0; Win64; x64) AppleWebKit/537.36 (KHTML, like Gecko) Chrome/107.0.0.0 Safari/537.36","WebKit","Chrome","107.0.0.0","Windows","10.0","1418"," ","","A balloon dropped and touched a piece of sushi","2","Light_Matched","",""
"","","","","","fixation","66057","html-keyboard-response","113","186691","0.0-6.0-2.19","61","2","2022-11-17 12:22:35","fd252370c17a9971d68c1d4354a03c2e","","Mozilla/5.0 (Windows NT 10.0; Win64; x64) AppleWebKit/537.36 (KHTML, like Gecko) Chrome/107.0.0.0 Safari/537.36","WebKit","Chrome","107.0.0.0","Windows","10.0","null","null","","<p style=""font-size: 48px;"">+</p>","2","Light_Matched","",""
"","","","","","picture","66057","image-keyboard-response","114","187312","0.0-6.0-3.19","61","2","2022-11-17 12:22:35","fd252370c17a9971d68c1d4354a03c2e","","Mozilla/5.0 (Windows NT 10.0; Win64; x64) AppleWebKit/537.36 (KHTML, like Gecko) Chrome/107.0.0.0 Safari/537.36","WebKit","Chrome","107.0.0.0","Windows","10.0","615","s","","sushiS.jpg","2","Light_Matched","true",""
"","","","","","fixation","66057","html-keyboard-response","115","188324","0.0-6.0-0.20","61","2","2022-11-17 12:22:35","fd252370c17a9971d68c1d4354a03c2e","","Mozilla/5.0 (Windows NT 10.0; Win64; x64) AppleWebKit/537.36 (KHTML, like Gecko) Chrome/107.0.0.0 Safari/537.36","WebKit","Chrome","107.0.0.0","Windows","10.0","null","null","","<p style=""font-size: 48px;"">+</p>","2","Filler","",""
"","","","","","sentence","66057","html-keyboard-response","116","189550","0.0-6.0-1.20","61","2","2022-11-17 12:22:35","fd252370c17a9971d68c1d4354a03c2e","","Mozilla/5.0 (Windows NT 10.0; Win64; x64) AppleWebKit/537.36 (KHTML, like Gecko) Chrome/107.0.0.0 Safari/537.36","WebKit","Chrome","107.0.0.0","Windows","10.0","1222"," ","","An elephant is eating a watermelon","2","Filler","",""
"","","","","","fixation","66057","html-keyboard-response","117","190058","0.0-6.0-2.20","61","2","2022-11-17 12:22:35","fd252370c17a9971d68c1d4354a03c2e","","Mozilla/5.0 (Windows NT 10.0; Win64; x64) AppleWebKit/537.36 (KHTML, like Gecko) Chrome/107.0.0.0 Safari/537.36","WebKit","Chrome","107.0.0.0","Windows","10.0","null","null","","<p style=""font-size: 48px;"">+</p>","2","Filler","",""
"","","","","","picture","66057","image-keyboard-response","118","190912","0.0-6.0-3.20","61","2","2022-11-17 12:22:35","fd252370c17a9971d68c1d4354a03c2e","","Mozilla/5.0 (Windows NT 10.0; Win64; x64) AppleWebKit/537.36 (KHTML, like Gecko) Chrome/107.0.0.0 Safari/537.36","WebKit","Chrome","107.0.0.0","Windows","10.0","849","s","","watermelon.jpg","2","Filler","true",""
"","","","","","fixation","66057","html-keyboard-response","119","191922","0.0-6.0-0.21","61","2","2022-11-17 12:22:35","fd252370c17a9971d68c1d4354a03c2e","","Mozilla/5.0 (Windows NT 10.0; Win64; x64) AppleWebKit/537.36 (KHTML, like Gecko) Chrome/107.0.0.0 Safari/537.36","WebKit","Chrome","107.0.0.0","Windows","10.0","null","null","","<p style=""font-size: 48px;"">+</p>","2","Filler","",""
"","","","","","sentence","66057","html-keyboard-response","120","193376","0.0-6.0-1.21","61","2","2022-11-17 12:22:35","fd252370c17a9971d68c1d4354a03c2e","","Mozilla/5.0 (Windows NT 10.0; Win64; x64) AppleWebKit/537.36 (KHTML, like Gecko) Chrome/107.0.0.0 Safari/537.36","WebKit","Chrome","107.0.0.0","Windows","10.0","1447"," ","","A cabbage was placed on the table","2","Filler","",""
"","","","","","fixation","66057","html-keyboard-response","121","193890","0.0-6.0-2.21","61","2","2022-11-17 12:22:35","fd252370c17a9971d68c1d4354a03c2e","","Mozilla/5.0 (Windows NT 10.0; Win64; x64) AppleWebKit/537.36 (KHTML, like Gecko) Chrome/107.0.0.0 Safari/537.36","WebKit","Chrome","107.0.0.0","Windows","10.0","null","null","","<p style=""font-size: 48px;"">+</p>","2","Filler","",""
"","","","","","picture","66057","image-keyboard-response","122","194575","0.0-6.0-3.21","61","2","2022-11-17 12:22:35","fd252370c17a9971d68c1d4354a03c2e","","Mozilla/5.0 (Windows NT 10.0; Win64; x64) AppleWebKit/537.36 (KHTML, like Gecko) Chrome/107.0.0.0 Safari/537.36","WebKit","Chrome","107.0.0.0","Windows","10.0","678","n","","ladder.jpg","2","Filler","true",""
"","","","","","fixation","66057","html-keyboard-response","123","195586","0.0-6.0-0.22","61","2","2022-11-17 12:22:35","fd252370c17a9971d68c1d4354a03c2e","","Mozilla/5.0 (Windows NT 10.0; Win64; x64) AppleWebKit/537.36 (KHTML, like Gecko) Chrome/107.0.0.0 Safari/537.36","WebKit","Chrome","107.0.0.0","Windows","10.0","null","null","","<p style=""font-size: 48px;"">+</p>","2","Filler","",""
"","","","","","sentence","66057","html-keyboard-response","124","196588","0.0-6.0-1.22","61","2","2022-11-17 12:22:35","fd252370c17a9971d68c1d4354a03c2e","","Mozilla/5.0 (Windows NT 10.0; Win64; x64) AppleWebKit/537.36 (KHTML, like Gecko) Chrome/107.0.0.0 Safari/537.36","WebKit","Chrome","107.0.0.0","Windows","10.0","996"," ","","A puppy is playing with a ball","2","Filler","",""
"","","","","","fixation","66057","html-keyboard-response","125","197100","0.0-6.0-2.22","61","2","2022-11-17 12:22:35","fd252370c17a9971d68c1d4354a03c2e","","Mozilla/5.0 (Windows NT 10.0; Win64; x64) AppleWebKit/537.36 (KHTML, like Gecko) Chrome/107.0.0.0 Safari/537.36","WebKit","Chrome","107.0.0.0","Windows","10.0","null","null","","<p style=""font-size: 48px;"">+</p>","2","Filler","",""
"","","","","","picture","66057","image-keyboard-response","126","198099","0.0-6.0-3.22","61","2","2022-11-17 12:22:35","fd252370c17a9971d68c1d4354a03c2e","","Mozilla/5.0 (Windows NT 10.0; Win64; x64) AppleWebKit/537.36 (KHTML, like Gecko) Chrome/107.0.0.0 Safari/537.36","WebKit","Chrome","107.0.0.0","Windows","10.0","993","s","","tennisball.jpg","2","Filler","true",""
"","","","","","fixation","66057","html-keyboard-response","127","199107","0.0-6.0-0.23","61","2","2022-11-17 12:22:35","fd252370c17a9971d68c1d4354a03c2e","","Mozilla/5.0 (Windows NT 10.0; Win64; x64) AppleWebKit/537.36 (KHTML, like Gecko) Chrome/107.0.0.0 Safari/537.36","WebKit","Chrome","107.0.0.0","Windows","10.0","null","null","","<p style=""font-size: 48px;"">+</p>","2","Light_Matched","",""
"","","","","","sentence","66057","html-keyboard-response","128","200525","0.0-6.0-1.23","61","2","2022-11-17 12:22:35","fd252370c17a9971d68c1d4354a03c2e","","Mozilla/5.0 (Windows NT 10.0; Win64; x64) AppleWebKit/537.36 (KHTML, like Gecko) Chrome/107.0.0.0 Safari/537.36","WebKit","Chrome","107.0.0.0","Windows","10.0","1411"," ","","A balloon dropped and touched a tile","2","Light_Matched","",""
"","","","","","fixation","66057","html-keyboard-response","129","201034","0.0-6.0-2.23","61","2","2022-11-17 12:22:35","fd252370c17a9971d68c1d4354a03c2e","","Mozilla/5.0 (Windows NT 10.0; Win64; x64) AppleWebKit/537.36 (KHTML, like Gecko) Chrome/107.0.0.0 Safari/537.36","WebKit","Chrome","107.0.0.0","Windows","10.0","null","null","","<p style=""font-size: 48px;"">+</p>","2","Light_Matched","",""
"","","","","","picture","66057","image-keyboard-response","130","202214","0.0-6.0-3.23","61","2","2022-11-17 12:22:35","fd252370c17a9971d68c1d4354a03c2e","","Mozilla/5.0 (Windows NT 10.0; Win64; x64) AppleWebKit/537.36 (KHTML, like Gecko) Chrome/107.0.0.0 Safari/537.36","WebKit","Chrome","107.0.0.0","Windows","10.0","1175","s","","tileS.jpg","2","Light_Matched","true",""
"","","","","","fixation","66057","html-keyboard-response","131","203226","0.0-6.0-0.24","61","2","2022-11-17 12:22:35","fd252370c17a9971d68c1d4354a03c2e","","Mozilla/5.0 (Windows NT 10.0; Win64; x64) AppleWebKit/537.36 (KHTML, like Gecko) Chrome/107.0.0.0 Safari/537.36","WebKit","Chrome","107.0.0.0","Windows","10.0","null","null","","<p style=""font-size: 48px;"">+</p>","2","Light_Matched","",""
"","","","","","sentence","66057","html-keyboard-response","132","204700","0.0-6.0-1.24","61","2","2022-11-17 12:22:35","fd252370c17a9971d68c1d4354a03c2e","","Mozilla/5.0 (Windows NT 10.0; Win64; x64) AppleWebKit/537.36 (KHTML, like Gecko) Chrome/107.0.0.0 Safari/537.36","WebKit","Chrome","107.0.0.0","Windows","10.0","1468"," ","","A balloon dropped and touched a vase","2","Light_Matched","",""
"","","","","","fixation","66057","html-keyboard-response","133","205209","0.0-6.0-2.24","61","2","2022-11-17 12:22:35","fd252370c17a9971d68c1d4354a03c2e","","Mozilla/5.0 (Windows NT 10.0; Win64; x64) AppleWebKit/537.36 (KHTML, like Gecko) Chrome/107.0.0.0 Safari/537.36","WebKit","Chrome","107.0.0.0","Windows","10.0","null","null","","<p style=""font-size: 48px;"">+</p>","2","Light_Matched","",""
"","","","","","picture","66057","image-keyboard-response","134","205925","0.0-6.0-3.24","61","2","2022-11-17 12:22:35","fd252370c17a9971d68c1d4354a03c2e","","Mozilla/5.0 (Windows NT 10.0; Win64; x64) AppleWebKit/537.36 (KHTML, like Gecko) Chrome/107.0.0.0 Safari/537.36","WebKit","Chrome","107.0.0.0","Windows","10.0","712","s","","vaseS.jpg","2","Light_Matched","true",""
"","","","","","fixation","66057","html-keyboard-response","135","206938","0.0-6.0-0.25","61","2","2022-11-17 12:22:35","fd252370c17a9971d68c1d4354a03c2e","","Mozilla/5.0 (Windows NT 10.0; Win64; x64) AppleWebKit/537.36 (KHTML, like Gecko) Chrome/107.0.0.0 Safari/537.36","WebKit","Chrome","107.0.0.0","Windows","10.0","null","null","","<p style=""font-size: 48px;"">+</p>","2","Light_Matched","",""
"","","","","","sentence","66057","html-keyboard-response","136","208163","0.0-6.0-1.25","61","2","2022-11-17 12:22:35","fd252370c17a9971d68c1d4354a03c2e","","Mozilla/5.0 (Windows NT 10.0; Win64; x64) AppleWebKit/537.36 (KHTML, like Gecko) Chrome/107.0.0.0 Safari/537.36","WebKit","Chrome","107.0.0.0","Windows","10.0","1220"," ","","A balloon dropped and touched a tomato","2","Light_Matched","",""
"","","","","","fixation","66057","html-keyboard-response","137","208673","0.0-6.0-2.25","61","2","2022-11-17 12:22:35","fd252370c17a9971d68c1d4354a03c2e","","Mozilla/5.0 (Windows NT 10.0; Win64; x64) AppleWebKit/537.36 (KHTML, like Gecko) Chrome/107.0.0.0 Safari/537.36","WebKit","Chrome","107.0.0.0","Windows","10.0","null","null","","<p style=""font-size: 48px;"">+</p>","2","Light_Matched","",""
"","","","","","picture","66057","image-keyboard-response","138","209362","0.0-6.0-3.25","61","2","2022-11-17 12:22:35","fd252370c17a9971d68c1d4354a03c2e","","Mozilla/5.0 (Windows NT 10.0; Win64; x64) AppleWebKit/537.36 (KHTML, like Gecko) Chrome/107.0.0.0 Safari/537.36","WebKit","Chrome","107.0.0.0","Windows","10.0","681","s","","tomatoS.jpg","2","Light_Matched","true",""
"","","","","","fixation","66057","html-keyboard-response","139","210373","0.0-6.0-0.26","61","2","2022-11-17 12:22:35","fd252370c17a9971d68c1d4354a03c2e","","Mozilla/5.0 (Windows NT 10.0; Win64; x64) AppleWebKit/537.36 (KHTML, like Gecko) Chrome/107.0.0.0 Safari/537.36","WebKit","Chrome","107.0.0.0","Windows","10.0","null","null","","<p style=""font-size: 48px;"">+</p>","2","Light_Contradictory","",""
"","","","","","sentence","66057","html-keyboard-response","140","211487","0.0-6.0-1.26","61","2","2022-11-17 12:22:35","fd252370c17a9971d68c1d4354a03c2e","","Mozilla/5.0 (Windows NT 10.0; Win64; x64) AppleWebKit/537.36 (KHTML, like Gecko) Chrome/107.0.0.0 Safari/537.36","WebKit","Chrome","107.0.0.0","Windows","10.0","1108"," ","","A balloon dropped and smashed an egg","2","Light_Contradictory","",""
"","","","","","fixation","66057","html-keyboard-response","141","212003","0.0-6.0-2.26","61","2","2022-11-17 12:22:35","fd252370c17a9971d68c1d4354a03c2e","","Mozilla/5.0 (Windows NT 10.0; Win64; x64) AppleWebKit/537.36 (KHTML, like Gecko) Chrome/107.0.0.0 Safari/537.36","WebKit","Chrome","107.0.0.0","Windows","10.0","null","null","","<p style=""font-size: 48px;"">+</p>","2","Light_Contradictory","",""
"","","","","","picture","66057","image-keyboard-response","142","212613","0.0-6.0-3.26","61","2","2022-11-17 12:22:35","fd252370c17a9971d68c1d4354a03c2e","","Mozilla/5.0 (Windows NT 10.0; Win64; x64) AppleWebKit/537.36 (KHTML, like Gecko) Chrome/107.0.0.0 Safari/537.36","WebKit","Chrome","107.0.0.0","Windows","10.0","604","s","","eggS.jpg","2","Light_Contradictory","true",""
"","","","","","fixation","66057","html-keyboard-response","143","213626","0.0-6.0-0.27","61","2","2022-11-17 12:22:35","fd252370c17a9971d68c1d4354a03c2e","","Mozilla/5.0 (Windows NT 10.0; Win64; x64) AppleWebKit/537.36 (KHTML, like Gecko) Chrome/107.0.0.0 Safari/537.36","WebKit","Chrome","107.0.0.0","Windows","10.0","null","null","","<p style=""font-size: 48px;"">+</p>","2","Heavy_Contradictory","",""
"","","","","","sentence","66057","html-keyboard-response","144","215026","0.0-6.0-1.27","61","2","2022-11-17 12:22:35","fd252370c17a9971d68c1d4354a03c2e","","Mozilla/5.0 (Windows NT 10.0; Win64; x64) AppleWebKit/537.36 (KHTML, like Gecko) Chrome/107.0.0.0 Safari/537.36","WebKit","Chrome","107.0.0.0","Windows","10.0","1395"," ","","A bowling ball dropped and touched a rice cake","2","Heavy_Contradictory","",""
"","","","","","fixation","66057","html-keyboard-response","145","215542","0.0-6.0-2.27","61","2","2022-11-17 12:22:35","fd252370c17a9971d68c1d4354a03c2e","","Mozilla/5.0 (Windows NT 10.0; Win64; x64) AppleWebKit/537.36 (KHTML, like Gecko) Chrome/107.0.0.0 Safari/537.36","WebKit","Chrome","107.0.0.0","Windows","10.0","null","null","","<p style=""font-size: 48px;"">+</p>","2","Heavy_Contradictory","",""
"","","","","","picture","66057","image-keyboard-response","146","216062","0.0-6.0-3.27","61","2","2022-11-17 12:22:35","fd252370c17a9971d68c1d4354a03c2e","","Mozilla/5.0 (Windows NT 10.0; Win64; x64) AppleWebKit/537.36 (KHTML, like Gecko) Chrome/107.0.0.0 Safari/537.36","WebKit","Chrome","107.0.0.0","Windows","10.0","513","s","","tortitaS.jpg","2","Heavy_Contradictory","true",""
"","","","","","fixation","66057","html-keyboard-response","147","217074","0.0-6.0-0.28","61","2","2022-11-17 12:22:35","fd252370c17a9971d68c1d4354a03c2e","","Mozilla/5.0 (Windows NT 10.0; Win64; x64) AppleWebKit/537.36 (KHTML, like Gecko) Chrome/107.0.0.0 Safari/537.36","WebKit","Chrome","107.0.0.0","Windows","10.0","null","null","","<p style=""font-size: 48px;"">+</p>","2","Filler","",""
"","","","","","sentence","66057","html-keyboard-response","148","217803","0.0-6.0-1.28","61","2","2022-11-17 12:22:35","fd252370c17a9971d68c1d4354a03c2e","","Mozilla/5.0 (Windows NT 10.0; Win64; x64) AppleWebKit/537.36 (KHTML, like Gecko) Chrome/107.0.0.0 Safari/537.36","WebKit","Chrome","107.0.0.0","Windows","10.0","724"," ","","A musician is playing a guitar","2","Filler","",""
"","","","","","fixation","66057","html-keyboard-response","149","218314","0.0-6.0-2.28","61","2","2022-11-17 12:22:35","fd252370c17a9971d68c1d4354a03c2e","","Mozilla/5.0 (Windows NT 10.0; Win64; x64) AppleWebKit/537.36 (KHTML, like Gecko) Chrome/107.0.0.0 Safari/537.36","WebKit","Chrome","107.0.0.0","Windows","10.0","null","null","","<p style=""font-size: 48px;"">+</p>","2","Filler","",""
"","","","","","picture","66057","image-keyboard-response","150","218863","0.0-6.0-3.28","61","2","2022-11-17 12:22:35","fd252370c17a9971d68c1d4354a03c2e","","Mozilla/5.0 (Windows NT 10.0; Win64; x64) AppleWebKit/537.36 (KHTML, like Gecko) Chrome/107.0.0.0 Safari/537.36","WebKit","Chrome","107.0.0.0","Windows","10.0","540","s","","guitar.jpg","2","Filler","true",""
"","","","","","fixation","66057","html-keyboard-response","151","219873","0.0-6.0-0.29","61","2","2022-11-17 12:22:35","fd252370c17a9971d68c1d4354a03c2e","","Mozilla/5.0 (Windows NT 10.0; Win64; x64) AppleWebKit/537.36 (KHTML, like Gecko) Chrome/107.0.0.0 Safari/537.36","WebKit","Chrome","107.0.0.0","Windows","10.0","null","null","","<p style=""font-size: 48px;"">+</p>","2","Filler","",""
"","","","","","sentence","66057","html-keyboard-response","152","221713","0.0-6.0-1.29","61","2","2022-11-17 12:22:35","fd252370c17a9971d68c1d4354a03c2e","","Mozilla/5.0 (Windows NT 10.0; Win64; x64) AppleWebKit/537.36 (KHTML, like Gecko) Chrome/107.0.0.0 Safari/537.36","WebKit","Chrome","107.0.0.0","Windows","10.0","1833"," ","","A police officer is talking on the phone","2","Filler","",""
"","","","","","fixation","66057","html-keyboard-response","153","222229","0.0-6.0-2.29","61","2","2022-11-17 12:22:35","fd252370c17a9971d68c1d4354a03c2e","","Mozilla/5.0 (Windows NT 10.0; Win64; x64) AppleWebKit/537.36 (KHTML, like Gecko) Chrome/107.0.0.0 Safari/537.36","WebKit","Chrome","107.0.0.0","Windows","10.0","null","null","","<p style=""font-size: 48px;"">+</p>","2","Filler","",""
"","","","","","picture","66057","image-keyboard-response","154","222876","0.0-6.0-3.29","61","2","2022-11-17 12:22:35","fd252370c17a9971d68c1d4354a03c2e","","Mozilla/5.0 (Windows NT 10.0; Win64; x64) AppleWebKit/537.36 (KHTML, like Gecko) Chrome/107.0.0.0 Safari/537.36","WebKit","Chrome","107.0.0.0","Windows","10.0","640","n","","tissuebox.jpg","2","Filler","true",""
"","","","","","fixation","66057","html-keyboard-response","155","223889","0.0-6.0-0.30","61","2","2022-11-17 12:22:35","fd252370c17a9971d68c1d4354a03c2e","","Mozilla/5.0 (Windows NT 10.0; Win64; x64) AppleWebKit/537.36 (KHTML, like Gecko) Chrome/107.0.0.0 Safari/537.36","WebKit","Chrome","107.0.0.0","Windows","10.0","null","null","","<p style=""font-size: 48px;"">+</p>","2","Filler","",""
"","","","","","sentence","66057","html-keyboard-response","156","225000","0.0-6.0-1.30","61","2","2022-11-17 12:22:35","fd252370c17a9971d68c1d4354a03c2e","","Mozilla/5.0 (Windows NT 10.0; Win64; x64) AppleWebKit/537.36 (KHTML, like Gecko) Chrome/107.0.0.0 Safari/537.36","WebKit","Chrome","107.0.0.0","Windows","10.0","1104"," ","","A toothbrush was placed on the sponge","2","Filler","",""
"","","","","","fixation","66057","html-keyboard-response","157","225514","0.0-6.0-2.30","61","2","2022-11-17 12:22:35","fd252370c17a9971d68c1d4354a03c2e","","Mozilla/5.0 (Windows NT 10.0; Win64; x64) AppleWebKit/537.36 (KHTML, like Gecko) Chrome/107.0.0.0 Safari/537.36","WebKit","Chrome","107.0.0.0","Windows","10.0","null","null","","<p style=""font-size: 48px;"">+</p>","2","Filler","",""
"","","","","","picture","66057","image-keyboard-response","158","226250","0.0-6.0-3.30","61","2","2022-11-17 12:22:35","fd252370c17a9971d68c1d4354a03c2e","","Mozilla/5.0 (Windows NT 10.0; Win64; x64) AppleWebKit/537.36 (KHTML, like Gecko) Chrome/107.0.0.0 Safari/537.36","WebKit","Chrome","107.0.0.0","Windows","10.0","727","s","","sponge.jpg","2","Filler","true",""
"","","","","","fixation","66057","html-keyboard-response","159","227265","0.0-6.0-0.31","61","2","2022-11-17 12:22:35","fd252370c17a9971d68c1d4354a03c2e","","Mozilla/5.0 (Windows NT 10.0; Win64; x64) AppleWebKit/537.36 (KHTML, like Gecko) Chrome/107.0.0.0 Safari/537.36","WebKit","Chrome","107.0.0.0","Windows","10.0","null","null","","<p style=""font-size: 48px;"">+</p>","2","Filler","",""
"","","","","","sentence","66057","html-keyboard-response","160","228225","0.0-6.0-1.31","61","2","2022-11-17 12:22:35","fd252370c17a9971d68c1d4354a03c2e","","Mozilla/5.0 (Windows NT 10.0; Win64; x64) AppleWebKit/537.36 (KHTML, like Gecko) Chrome/107.0.0.0 Safari/537.36","WebKit","Chrome","107.0.0.0","Windows","10.0","952"," ","","A pencil was placed on the shoe","2","Filler","",""
"","","","","","fixation","66057","html-keyboard-response","161","228737","0.0-6.0-2.31","61","2","2022-11-17 12:22:35","fd252370c17a9971d68c1d4354a03c2e","","Mozilla/5.0 (Windows NT 10.0; Win64; x64) AppleWebKit/537.36 (KHTML, like Gecko) Chrome/107.0.0.0 Safari/537.36","WebKit","Chrome","107.0.0.0","Windows","10.0","null","null","","<p style=""font-size: 48px;"">+</p>","2","Filler","",""
"","","","","","picture","66057","image-keyboard-response","162","229713","0.0-6.0-3.31","61","2","2022-11-17 12:22:35","fd252370c17a9971d68c1d4354a03c2e","","Mozilla/5.0 (Windows NT 10.0; Win64; x64) AppleWebKit/537.36 (KHTML, like Gecko) Chrome/107.0.0.0 Safari/537.36","WebKit","Chrome","107.0.0.0","Windows","10.0","971","n","","perfume.jpg","2","Filler","true",""
"","","","","","fixation","66057","html-keyboard-response","163","230722","0.0-6.0-0.32","61","2","2022-11-17 12:22:35","fd252370c17a9971d68c1d4354a03c2e","","Mozilla/5.0 (Windows NT 10.0; Win64; x64) AppleWebKit/537.36 (KHTML, like Gecko) Chrome/107.0.0.0 Safari/537.36","WebKit","Chrome","107.0.0.0","Windows","10.0","null","null","","<p style=""font-size: 48px;"">+</p>","2","Filler","",""
"","","","","","sentence","66057","html-keyboard-response","164","232414","0.0-6.0-1.32","61","2","2022-11-17 12:22:35","fd252370c17a9971d68c1d4354a03c2e","","Mozilla/5.0 (Windows NT 10.0; Win64; x64) AppleWebKit/537.36 (KHTML, like Gecko) Chrome/107.0.0.0 Safari/537.36","WebKit","Chrome","107.0.0.0","Windows","10.0","1685"," ","","An old man is hammering a nail","2","Filler","",""
"","","","","","fixation","66057","html-keyboard-response","165","232922","0.0-6.0-2.32","61","2","2022-11-17 12:22:35","fd252370c17a9971d68c1d4354a03c2e","","Mozilla/5.0 (Windows NT 10.0; Win64; x64) AppleWebKit/537.36 (KHTML, like Gecko) Chrome/107.0.0.0 Safari/537.36","WebKit","Chrome","107.0.0.0","Windows","10.0","null","null","","<p style=""font-size: 48px;"">+</p>","2","Filler","",""
"","","","","","picture","66057","image-keyboard-response","166","233751","0.0-6.0-3.32","61","2","2022-11-17 12:22:35","fd252370c17a9971d68c1d4354a03c2e","","Mozilla/5.0 (Windows NT 10.0; Win64; x64) AppleWebKit/537.36 (KHTML, like Gecko) Chrome/107.0.0.0 Safari/537.36","WebKit","Chrome","107.0.0.0","Windows","10.0","822","s","","nail.jpg","2","Filler","true",""
"","","","","","fixation","66057","html-keyboard-response","167","234762","0.0-6.0-0.33","61","2","2022-11-17 12:22:35","fd252370c17a9971d68c1d4354a03c2e","","Mozilla/5.0 (Windows NT 10.0; Win64; x64) AppleWebKit/537.36 (KHTML, like Gecko) Chrome/107.0.0.0 Safari/537.36","WebKit","Chrome","107.0.0.0","Windows","10.0","null","null","","<p style=""font-size: 48px;"">+</p>","2","Filler","",""
"","","","","","sentence","66057","html-keyboard-response","168","235675","0.0-6.0-1.33","61","2","2022-11-17 12:22:35","fd252370c17a9971d68c1d4354a03c2e","","Mozilla/5.0 (Windows NT 10.0; Win64; x64) AppleWebKit/537.36 (KHTML, like Gecko) Chrome/107.0.0.0 Safari/537.36","WebKit","Chrome","107.0.0.0","Windows","10.0","908"," ","","A boy is wearing a hat","2","Filler","",""
"","","","","","fixation","66057","html-keyboard-response","169","236184","0.0-6.0-2.33","61","2","2022-11-17 12:22:35","fd252370c17a9971d68c1d4354a03c2e","","Mozilla/5.0 (Windows NT 10.0; Win64; x64) AppleWebKit/537.36 (KHTML, like Gecko) Chrome/107.0.0.0 Safari/537.36","WebKit","Chrome","107.0.0.0","Windows","10.0","null","null","","<p style=""font-size: 48px;"">+</p>","2","Filler","",""
"","","","","","picture","66057","image-keyboard-response","170","236838","0.0-6.0-3.33","61","2","2022-11-17 12:22:35","fd252370c17a9971d68c1d4354a03c2e","","Mozilla/5.0 (Windows NT 10.0; Win64; x64) AppleWebKit/537.36 (KHTML, like Gecko) Chrome/107.0.0.0 Safari/537.36","WebKit","Chrome","107.0.0.0","Windows","10.0","643","s","","hat.jpg","2","Filler","true",""
"","","","","","fixation","66057","html-keyboard-response","171","237850","0.0-6.0-0.34","61","2","2022-11-17 12:22:35","fd252370c17a9971d68c1d4354a03c2e","","Mozilla/5.0 (Windows NT 10.0; Win64; x64) AppleWebKit/537.36 (KHTML, like Gecko) Chrome/107.0.0.0 Safari/537.36","WebKit","Chrome","107.0.0.0","Windows","10.0","null","null","","<p style=""font-size: 48px;"">+</p>","2","Filler","",""
"","","","","","sentence","66057","html-keyboard-response","172","239252","0.0-6.0-1.34","61","2","2022-11-17 12:22:35","fd252370c17a9971d68c1d4354a03c2e","","Mozilla/5.0 (Windows NT 10.0; Win64; x64) AppleWebKit/537.36 (KHTML, like Gecko) Chrome/107.0.0.0 Safari/537.36","WebKit","Chrome","107.0.0.0","Windows","10.0","1396"," ","","A photographer is taking a photo of a lion","2","Filler","",""
"","","","","","fixation","66057","html-keyboard-response","173","239762","0.0-6.0-2.34","61","2","2022-11-17 12:22:35","fd252370c17a9971d68c1d4354a03c2e","","Mozilla/5.0 (Windows NT 10.0; Win64; x64) AppleWebKit/537.36 (KHTML, like Gecko) Chrome/107.0.0.0 Safari/537.36","WebKit","Chrome","107.0.0.0","Windows","10.0","null","null","","<p style=""font-size: 48px;"">+</p>","2","Filler","",""
"","","","","","picture","66057","image-keyboard-response","174","240500","0.0-6.0-3.34","61","2","2022-11-17 12:22:35","fd252370c17a9971d68c1d4354a03c2e","","Mozilla/5.0 (Windows NT 10.0; Win64; x64) AppleWebKit/537.36 (KHTML, like Gecko) Chrome/107.0.0.0 Safari/537.36","WebKit","Chrome","107.0.0.0","Windows","10.0","730","s","","lion.jpg","2","Filler","true",""
"","","","","","fixation","66057","html-keyboard-response","175","241514","0.0-6.0-0.35","61","2","2022-11-17 12:22:35","fd252370c17a9971d68c1d4354a03c2e","","Mozilla/5.0 (Windows NT 10.0; Win64; x64) AppleWebKit/537.36 (KHTML, like Gecko) Chrome/107.0.0.0 Safari/537.36","WebKit","Chrome","107.0.0.0","Windows","10.0","null","null","","<p style=""font-size: 48px;"">+</p>","2","Light_Contradictory","",""
"","","","","","sentence","66057","html-keyboard-response","176","243488","0.0-6.0-1.35","61","2","2022-11-17 12:22:35","fd252370c17a9971d68c1d4354a03c2e","","Mozilla/5.0 (Windows NT 10.0; Win64; x64) AppleWebKit/537.36 (KHTML, like Gecko) Chrome/107.0.0.0 Safari/537.36","WebKit","Chrome","107.0.0.0","Windows","10.0","1967"," ","","A balloon dropped and smashed a porcelain figure","2","Light_Contradictory","",""
"","","","","","fixation","66057","html-keyboard-response","177","244002","0.0-6.0-2.35","61","2","2022-11-17 12:22:35","fd252370c17a9971d68c1d4354a03c2e","","Mozilla/5.0 (Windows NT 10.0; Win64; x64) AppleWebKit/537.36 (KHTML, like Gecko) Chrome/107.0.0.0 Safari/537.36","WebKit","Chrome","107.0.0.0","Windows","10.0","null","null","","<p style=""font-size: 48px;"">+</p>","2","Light_Contradictory","",""
"","","","","","picture","66057","image-keyboard-response","178","244840","0.0-6.0-3.35","61","2","2022-11-17 12:22:35","fd252370c17a9971d68c1d4354a03c2e","","Mozilla/5.0 (Windows NT 10.0; Win64; x64) AppleWebKit/537.36 (KHTML, like Gecko) Chrome/107.0.0.0 Safari/537.36","WebKit","Chrome","107.0.0.0","Windows","10.0","834","s","","figureS.jpg","2","Light_Contradictory","true",""
"","","","","","fixation","66057","html-keyboard-response","179","245864","0.0-6.0-0.36","61","2","2022-11-17 12:22:35","fd252370c17a9971d68c1d4354a03c2e","","Mozilla/5.0 (Windows NT 10.0; Win64; x64) AppleWebKit/537.36 (KHTML, like Gecko) Chrome/107.0.0.0 Safari/537.36","WebKit","Chrome","107.0.0.0","Windows","10.0","null","null","","<p style=""font-size: 48px;"">+</p>","2","Filler","",""
"","","","","","sentence","66057","html-keyboard-response","180","246850","0.0-6.0-1.36","61","2","2022-11-17 12:22:35","fd252370c17a9971d68c1d4354a03c2e","","Mozilla/5.0 (Windows NT 10.0; Win64; x64) AppleWebKit/537.36 (KHTML, like Gecko) Chrome/107.0.0.0 Safari/537.36","WebKit","Chrome","107.0.0.0","Windows","10.0","980"," ","","A man is playing with a cat","2","Filler","",""
"","","","","","fixation","66057","html-keyboard-response","181","247361","0.0-6.0-2.36","61","2","2022-11-17 12:22:35","fd252370c17a9971d68c1d4354a03c2e","","Mozilla/5.0 (Windows NT 10.0; Win64; x64) AppleWebKit/537.36 (KHTML, like Gecko) Chrome/107.0.0.0 Safari/537.36","WebKit","Chrome","107.0.0.0","Windows","10.0","null","null","","<p style=""font-size: 48px;"">+</p>","2","Filler","",""
"","","","","","picture","66057","image-keyboard-response","182","251126","0.0-6.0-3.36","61","2","2022-11-17 12:22:35","fd252370c17a9971d68c1d4354a03c2e","","Mozilla/5.0 (Windows NT 10.0; Win64; x64) AppleWebKit/537.36 (KHTML, like Gecko) Chrome/107.0.0.0 Safari/537.36","WebKit","Chrome","107.0.0.0","Windows","10.0","3756","n","","ceramicplate.jpg","2","Filler","true",""
"","","","","","fixation","66057","html-keyboard-response","183","252137","0.0-6.0-0.37","61","2","2022-11-17 12:22:35","fd252370c17a9971d68c1d4354a03c2e","","Mozilla/5.0 (Windows NT 10.0; Win64; x64) AppleWebKit/537.36 (KHTML, like Gecko) Chrome/107.0.0.0 Safari/537.36","WebKit","Chrome","107.0.0.0","Windows","10.0","null","null","","<p style=""font-size: 48px;"">+</p>","2","Filler","",""
"","","","","","sentence","66057","html-keyboard-response","184","253526","0.0-6.0-1.37","61","2","2022-11-17 12:22:35","fd252370c17a9971d68c1d4354a03c2e","","Mozilla/5.0 (Windows NT 10.0; Win64; x64) AppleWebKit/537.36 (KHTML, like Gecko) Chrome/107.0.0.0 Safari/537.36","WebKit","Chrome","107.0.0.0","Windows","10.0","1378"," ","","A woman is paying with a debit card","2","Filler","",""
"","","","","","fixation","66057","html-keyboard-response","185","254044","0.0-6.0-2.37","61","2","2022-11-17 12:22:35","fd252370c17a9971d68c1d4354a03c2e","","Mozilla/5.0 (Windows NT 10.0; Win64; x64) AppleWebKit/537.36 (KHTML, like Gecko) Chrome/107.0.0.0 Safari/537.36","WebKit","Chrome","107.0.0.0","Windows","10.0","null","null","","<p style=""font-size: 48px;"">+</p>","2","Filler","",""
"","","","","","picture","66057","image-keyboard-response","186","255001","0.0-6.0-3.37","61","2","2022-11-17 12:22:35","fd252370c17a9971d68c1d4354a03c2e","","Mozilla/5.0 (Windows NT 10.0; Win64; x64) AppleWebKit/537.36 (KHTML, like Gecko) Chrome/107.0.0.0 Safari/537.36","WebKit","Chrome","107.0.0.0","Windows","10.0","948","n","","papercup.jpg","2","Filler","true",""
"","","","","","fixation","66057","html-keyboard-response","187","256026","0.0-6.0-0.38","61","2","2022-11-17 12:22:35","fd252370c17a9971d68c1d4354a03c2e","","Mozilla/5.0 (Windows NT 10.0; Win64; x64) AppleWebKit/537.36 (KHTML, like Gecko) Chrome/107.0.0.0 Safari/537.36","WebKit","Chrome","107.0.0.0","Windows","10.0","null","null","","<p style=""font-size: 48px;"">+</p>","2","Heavy_Contradictory","",""
"","","","","","sentence","66057","html-keyboard-response","188","257276","0.0-6.0-1.38","61","2","2022-11-17 12:22:35","fd252370c17a9971d68c1d4354a03c2e","","Mozilla/5.0 (Windows NT 10.0; Win64; x64) AppleWebKit/537.36 (KHTML, like Gecko) Chrome/107.0.0.0 Safari/537.36","WebKit","Chrome","107.0.0.0","Windows","10.0","1242"," ","","A bowling ball dropped and touched a light bulb","2","Heavy_Contradictory","",""
"","","","","","fixation","66057","html-keyboard-response","189","257793","0.0-6.0-2.38","61","2","2022-11-17 12:22:35","fd252370c17a9971d68c1d4354a03c2e","","Mozilla/5.0 (Windows NT 10.0; Win64; x64) AppleWebKit/537.36 (KHTML, like Gecko) Chrome/107.0.0.0 Safari/537.36","WebKit","Chrome","107.0.0.0","Windows","10.0","null","null","","<p style=""font-size: 48px;"">+</p>","2","Heavy_Contradictory","",""
"","","","","","picture","66057","image-keyboard-response","190","258299","0.0-6.0-3.38","61","2","2022-11-17 12:22:35","fd252370c17a9971d68c1d4354a03c2e","","Mozilla/5.0 (Windows NT 10.0; Win64; x64) AppleWebKit/537.36 (KHTML, like Gecko) Chrome/107.0.0.0 Safari/537.36","WebKit","Chrome","107.0.0.0","Windows","10.0","497","s","","lampS.jpg","2","Heavy_Contradictory","true",""
"","","","","","fixation","66057","html-keyboard-response","191","259312","0.0-6.0-0.39","61","2","2022-11-17 12:22:35","fd252370c17a9971d68c1d4354a03c2e","","Mozilla/5.0 (Windows NT 10.0; Win64; x64) AppleWebKit/537.36 (KHTML, like Gecko) Chrome/107.0.0.0 Safari/537.36","WebKit","Chrome","107.0.0.0","Windows","10.0","null","null","","<p style=""font-size: 48px;"">+</p>","2","Heavy_Matched","",""
"","","","","","sentence","66057","html-keyboard-response","192","260587","0.0-6.0-1.39","61","2","2022-11-17 12:22:35","fd252370c17a9971d68c1d4354a03c2e","","Mozilla/5.0 (Windows NT 10.0; Win64; x64) AppleWebKit/537.36 (KHTML, like Gecko) Chrome/107.0.0.0 Safari/537.36","WebKit","Chrome","107.0.0.0","Windows","10.0","1267"," ","","A bowling ball dropped and smashed an egg flan","2","Heavy_Matched","",""
"","","","","","fixation","66057","html-keyboard-response","193","261097","0.0-6.0-2.39","61","2","2022-11-17 12:22:35","fd252370c17a9971d68c1d4354a03c2e","","Mozilla/5.0 (Windows NT 10.0; Win64; x64) AppleWebKit/537.36 (KHTML, like Gecko) Chrome/107.0.0.0 Safari/537.36","WebKit","Chrome","107.0.0.0","Windows","10.0","null","null","","<p style=""font-size: 48px;"">+</p>","2","Heavy_Matched","",""
"","","","","","picture","66057","image-keyboard-response","194","261687","0.0-6.0-3.39","61","2","2022-11-17 12:22:35","fd252370c17a9971d68c1d4354a03c2e","","Mozilla/5.0 (Windows NT 10.0; Win64; x64) AppleWebKit/537.36 (KHTML, like Gecko) Chrome/107.0.0.0 Safari/537.36","WebKit","Chrome","107.0.0.0","Windows","10.0","577","s","","eggflanS.jpg","2","Heavy_Matched","true",""
"","","","","","fixation","66057","html-keyboard-response","195","262698","0.0-6.0-0.40","61","2","2022-11-17 12:22:35","fd252370c17a9971d68c1d4354a03c2e","","Mozilla/5.0 (Windows NT 10.0; Win64; x64) AppleWebKit/537.36 (KHTML, like Gecko) Chrome/107.0.0.0 Safari/537.36","WebKit","Chrome","107.0.0.0","Windows","10.0","null","null","","<p style=""font-size: 48px;"">+</p>","2","Filler","",""
"","","","","","sentence","66057","html-keyboard-response","196","263737","0.0-6.0-1.40","61","2","2022-11-17 12:22:35","fd252370c17a9971d68c1d4354a03c2e","","Mozilla/5.0 (Windows NT 10.0; Win64; x64) AppleWebKit/537.36 (KHTML, like Gecko) Chrome/107.0.0.0 Safari/537.36","WebKit","Chrome","107.0.0.0","Windows","10.0","1028"," ","","A mouse is eating cheese","2","Filler","",""
"","","","","","fixation","66057","html-keyboard-response","197","264255","0.0-6.0-2.40","61","2","2022-11-17 12:22:35","fd252370c17a9971d68c1d4354a03c2e","","Mozilla/5.0 (Windows NT 10.0; Win64; x64) AppleWebKit/537.36 (KHTML, like Gecko) Chrome/107.0.0.0 Safari/537.36","WebKit","Chrome","107.0.0.0","Windows","10.0","null","null","","<p style=""font-size: 48px;"">+</p>","2","Filler","",""
"","","","","","picture","66057","image-keyboard-response","198","265076","0.0-6.0-3.40","61","2","2022-11-17 12:22:35","fd252370c17a9971d68c1d4354a03c2e","","Mozilla/5.0 (Windows NT 10.0; Win64; x64) AppleWebKit/537.36 (KHTML, like Gecko) Chrome/107.0.0.0 Safari/537.36","WebKit","Chrome","107.0.0.0","Windows","10.0","812","n","","ring.jpg","2","Filler","true",""
"","","","","","fixation","66057","html-keyboard-response","199","266089","0.0-6.0-0.41","61","2","2022-11-17 12:22:35","fd252370c17a9971d68c1d4354a03c2e","","Mozilla/5.0 (Windows NT 10.0; Win64; x64) AppleWebKit/537.36 (KHTML, like Gecko) Chrome/107.0.0.0 Safari/537.36","WebKit","Chrome","107.0.0.0","Windows","10.0","null","null","","<p style=""font-size: 48px;"">+</p>","2","Light_Contradictory","",""
"","","","","","sentence","66057","html-keyboard-response","200","267250","0.0-6.0-1.41","61","2","2022-11-17 12:22:35","fd252370c17a9971d68c1d4354a03c2e","","Mozilla/5.0 (Windows NT 10.0; Win64; x64) AppleWebKit/537.36 (KHTML, like Gecko) Chrome/107.0.0.0 Safari/537.36","WebKit","Chrome","107.0.0.0","Windows","10.0","1155"," ","","A balloon dropped and smashed a cracker","2","Light_Contradictory","",""
"","","","","","fixation","66057","html-keyboard-response","201","267764","0.0-6.0-2.41","61","2","2022-11-17 12:22:35","fd252370c17a9971d68c1d4354a03c2e","","Mozilla/5.0 (Windows NT 10.0; Win64; x64) AppleWebKit/537.36 (KHTML, like Gecko) Chrome/107.0.0.0 Safari/537.36","WebKit","Chrome","107.0.0.0","Windows","10.0","null","null","","<p style=""font-size: 48px;"">+</p>","2","Light_Contradictory","",""
"","","","","","picture","66057","image-keyboard-response","202","268188","0.0-6.0-3.41","61","2","2022-11-17 12:22:35","fd252370c17a9971d68c1d4354a03c2e","","Mozilla/5.0 (Windows NT 10.0; Win64; x64) AppleWebKit/537.36 (KHTML, like Gecko) Chrome/107.0.0.0 Safari/537.36","WebKit","Chrome","107.0.0.0","Windows","10.0","413","s","","crackerS.jpg","2","Light_Contradictory","true",""
"","","","","","fixation","66057","html-keyboard-response","203","269202","0.0-6.0-0.42","61","2","2022-11-17 12:22:35","fd252370c17a9971d68c1d4354a03c2e","","Mozilla/5.0 (Windows NT 10.0; Win64; x64) AppleWebKit/537.36 (KHTML, like Gecko) Chrome/107.0.0.0 Safari/537.36","WebKit","Chrome","107.0.0.0","Windows","10.0","null","null","","<p style=""font-size: 48px;"">+</p>","2","Filler","",""
"","","","","","sentence","66057","html-keyboard-response","204","270363","0.0-6.0-1.42","61","2","2022-11-17 12:22:35","fd252370c17a9971d68c1d4354a03c2e","","Mozilla/5.0 (Windows NT 10.0; Win64; x64) AppleWebKit/537.36 (KHTML, like Gecko) Chrome/107.0.0.0 Safari/537.36","WebKit","Chrome","107.0.0.0","Windows","10.0","1151"," ","","A man is shaving his beard","2","Filler","",""
"","","","","","fixation","66057","html-keyboard-response","205","270881","0.0-6.0-2.42","61","2","2022-11-17 12:22:35","fd252370c17a9971d68c1d4354a03c2e","","Mozilla/5.0 (Windows NT 10.0; Win64; x64) AppleWebKit/537.36 (KHTML, like Gecko) Chrome/107.0.0.0 Safari/537.36","WebKit","Chrome","107.0.0.0","Windows","10.0","null","null","","<p style=""font-size: 48px;"">+</p>","2","Filler","",""
"","","","","","picture","66057","image-keyboard-response","206","271462","0.0-6.0-3.42","61","2","2022-11-17 12:22:35","fd252370c17a9971d68c1d4354a03c2e","","Mozilla/5.0 (Windows NT 10.0; Win64; x64) AppleWebKit/537.36 (KHTML, like Gecko) Chrome/107.0.0.0 Safari/537.36","WebKit","Chrome","107.0.0.0","Windows","10.0","571","n","","clock.jpg","2","Filler","true",""
"","","","","","fixation","66057","html-keyboard-response","207","272483","0.0-6.0-0.43","61","2","2022-11-17 12:22:35","fd252370c17a9971d68c1d4354a03c2e","","Mozilla/5.0 (Windows NT 10.0; Win64; x64) AppleWebKit/537.36 (KHTML, like Gecko) Chrome/107.0.0.0 Safari/537.36","WebKit","Chrome","107.0.0.0","Windows","10.0","null","null","","<p style=""font-size: 48px;"">+</p>","2","Filler","",""
"","","","","","sentence","66057","html-keyboard-response","208","273413","0.0-6.0-1.43","61","2","2022-11-17 12:22:35","fd252370c17a9971d68c1d4354a03c2e","","Mozilla/5.0 (Windows NT 10.0; Win64; x64) AppleWebKit/537.36 (KHTML, like Gecko) Chrome/107.0.0.0 Safari/537.36","WebKit","Chrome","107.0.0.0","Windows","10.0","921"," ","","A man is boiling potatoes.","2","Filler","",""
"","","","","","fixation","66057","html-keyboard-response","209","273921","0.0-6.0-2.43","61","2","2022-11-17 12:22:35","fd252370c17a9971d68c1d4354a03c2e","","Mozilla/5.0 (Windows NT 10.0; Win64; x64) AppleWebKit/537.36 (KHTML, like Gecko) Chrome/107.0.0.0 Safari/537.36","WebKit","Chrome","107.0.0.0","Windows","10.0","null","null","","<p style=""font-size: 48px;"">+</p>","2","Filler","",""
"","","","","","picture","66057","image-keyboard-response","210","274599","0.0-6.0-3.43","61","2","2022-11-17 12:22:35","fd252370c17a9971d68c1d4354a03c2e","","Mozilla/5.0 (Windows NT 10.0; Win64; x64) AppleWebKit/537.36 (KHTML, like Gecko) Chrome/107.0.0.0 Safari/537.36","WebKit","Chrome","107.0.0.0","Windows","10.0","668","n","","cup.jpg","2","Filler","true",""
"","","","","","fixation","66057","html-keyboard-response","211","275613","0.0-6.0-0.44","61","2","2022-11-17 12:22:35","fd252370c17a9971d68c1d4354a03c2e","","Mozilla/5.0 (Windows NT 10.0; Win64; x64) AppleWebKit/537.36 (KHTML, like Gecko) Chrome/107.0.0.0 Safari/537.36","WebKit","Chrome","107.0.0.0","Windows","10.0","null","null","","<p style=""font-size: 48px;"">+</p>","2","Heavy_Contradictory","",""
"","","","","","sentence","66057","html-keyboard-response","212","276989","0.0-6.0-1.44","61","2","2022-11-17 12:22:35","fd252370c17a9971d68c1d4354a03c2e","","Mozilla/5.0 (Windows NT 10.0; Win64; x64) AppleWebKit/537.36 (KHTML, like Gecko) Chrome/107.0.0.0 Safari/537.36","WebKit","Chrome","107.0.0.0","Windows","10.0","1367"," ","","A bowling ball dropped and touched an iPhone","2","Heavy_Contradictory","",""
"","","","","","fixation","66057","html-keyboard-response","213","277497","0.0-6.0-2.44","61","2","2022-11-17 12:22:35","fd252370c17a9971d68c1d4354a03c2e","","Mozilla/5.0 (Windows NT 10.0; Win64; x64) AppleWebKit/537.36 (KHTML, like Gecko) Chrome/107.0.0.0 Safari/537.36","WebKit","Chrome","107.0.0.0","Windows","10.0","null","null","","<p style=""font-size: 48px;"">+</p>","2","Heavy_Contradictory","",""
"","","","","","picture","66057","image-keyboard-response","214","278475","0.0-6.0-3.44","61","2","2022-11-17 12:22:35","fd252370c17a9971d68c1d4354a03c2e","","Mozilla/5.0 (Windows NT 10.0; Win64; x64) AppleWebKit/537.36 (KHTML, like Gecko) Chrome/107.0.0.0 Safari/537.36","WebKit","Chrome","107.0.0.0","Windows","10.0","970","s","","iphoneS.png","2","Heavy_Contradictory","true",""
"","","","","","fixation","66057","html-keyboard-response","215","279490","0.0-6.0-0.45","61","2","2022-11-17 12:22:35","fd252370c17a9971d68c1d4354a03c2e","","Mozilla/5.0 (Windows NT 10.0; Win64; x64) AppleWebKit/537.36 (KHTML, like Gecko) Chrome/107.0.0.0 Safari/537.36","WebKit","Chrome","107.0.0.0","Windows","10.0","null","null","","<p style=""font-size: 48px;"">+</p>","2","Filler","",""
"","","","","","sentence","66057","html-keyboard-response","216","280550","0.0-6.0-1.45","61","2","2022-11-17 12:22:35","fd252370c17a9971d68c1d4354a03c2e","","Mozilla/5.0 (Windows NT 10.0; Win64; x64) AppleWebKit/537.36 (KHTML, like Gecko) Chrome/107.0.0.0 Safari/537.36","WebKit","Chrome","107.0.0.0","Windows","10.0","1052"," ","","An owl is sitting on the branch","2","Filler","",""
"","","","","","fixation","66057","html-keyboard-response","217","281065","0.0-6.0-2.45","61","2","2022-11-17 12:22:35","fd252370c17a9971d68c1d4354a03c2e","","Mozilla/5.0 (Windows NT 10.0; Win64; x64) AppleWebKit/537.36 (KHTML, like Gecko) Chrome/107.0.0.0 Safari/537.36","WebKit","Chrome","107.0.0.0","Windows","10.0","null","null","","<p style=""font-size: 48px;"">+</p>","2","Filler","",""
"","","","","","picture","66057","image-keyboard-response","218","281863","0.0-6.0-3.45","61","2","2022-11-17 12:22:35","fd252370c17a9971d68c1d4354a03c2e","","Mozilla/5.0 (Windows NT 10.0; Win64; x64) AppleWebKit/537.36 (KHTML, like Gecko) Chrome/107.0.0.0 Safari/537.36","WebKit","Chrome","107.0.0.0","Windows","10.0","789","n","","rubberduck.jpg","2","Filler","true",""
"","","","","","fixation","66057","html-keyboard-response","219","282874","0.0-6.0-0.46","61","2","2022-11-17 12:22:35","fd252370c17a9971d68c1d4354a03c2e","","Mozilla/5.0 (Windows NT 10.0; Win64; x64) AppleWebKit/537.36 (KHTML, like Gecko) Chrome/107.0.0.0 Safari/537.36","WebKit","Chrome","107.0.0.0","Windows","10.0","null","null","","<p style=""font-size: 48px;"">+</p>","2","Filler","",""
"","","","","","sentence","66057","html-keyboard-response","220","284163","0.0-6.0-1.46","61","2","2022-11-17 12:22:35","fd252370c17a9971d68c1d4354a03c2e","","Mozilla/5.0 (Windows NT 10.0; Win64; x64) AppleWebKit/537.36 (KHTML, like Gecko) Chrome/107.0.0.0 Safari/537.36","WebKit","Chrome","107.0.0.0","Windows","10.0","1280"," ","","A president is writing in the notebook","2","Filler","",""
"","","","","","fixation","66057","html-keyboard-response","221","284672","0.0-6.0-2.46","61","2","2022-11-17 12:22:35","fd252370c17a9971d68c1d4354a03c2e","","Mozilla/5.0 (Windows NT 10.0; Win64; x64) AppleWebKit/537.36 (KHTML, like Gecko) Chrome/107.0.0.0 Safari/537.36","WebKit","Chrome","107.0.0.0","Windows","10.0","null","null","","<p style=""font-size: 48px;"">+</p>","2","Filler","",""
"","","","","","picture","66057","image-keyboard-response","222","285438","0.0-6.0-3.46","61","2","2022-11-17 12:22:35","fd252370c17a9971d68c1d4354a03c2e","","Mozilla/5.0 (Windows NT 10.0; Win64; x64) AppleWebKit/537.36 (KHTML, like Gecko) Chrome/107.0.0.0 Safari/537.36","WebKit","Chrome","107.0.0.0","Windows","10.0","755","n","","can.jpg","2","Filler","true",""
"","","","","","fixation","66057","html-keyboard-response","223","286450","0.0-6.0-0.47","61","2","2022-11-17 12:22:35","fd252370c17a9971d68c1d4354a03c2e","","Mozilla/5.0 (Windows NT 10.0; Win64; x64) AppleWebKit/537.36 (KHTML, like Gecko) Chrome/107.0.0.0 Safari/537.36","WebKit","Chrome","107.0.0.0","Windows","10.0","null","null","","<p style=""font-size: 48px;"">+</p>","2","Filler","",""
"","","","","","sentence","66057","html-keyboard-response","224","287314","0.0-6.0-1.47","61","2","2022-11-17 12:22:35","fd252370c17a9971d68c1d4354a03c2e","","Mozilla/5.0 (Windows NT 10.0; Win64; x64) AppleWebKit/537.36 (KHTML, like Gecko) Chrome/107.0.0.0 Safari/537.36","WebKit","Chrome","107.0.0.0","Windows","10.0","855"," ","","A parrot is eating an apple","2","Filler","",""
"","","","","","fixation","66057","html-keyboard-response","225","287834","0.0-6.0-2.47","61","2","2022-11-17 12:22:35","fd252370c17a9971d68c1d4354a03c2e","","Mozilla/5.0 (Windows NT 10.0; Win64; x64) AppleWebKit/537.36 (KHTML, like Gecko) Chrome/107.0.0.0 Safari/537.36","WebKit","Chrome","107.0.0.0","Windows","10.0","null","null","","<p style=""font-size: 48px;"">+</p>","2","Filler","",""
"","","","","","picture","66057","image-keyboard-response","226","288487","0.0-6.0-3.47","61","2","2022-11-17 12:22:35","fd252370c17a9971d68c1d4354a03c2e","","Mozilla/5.0 (Windows NT 10.0; Win64; x64) AppleWebKit/537.36 (KHTML, like Gecko) Chrome/107.0.0.0 Safari/537.36","WebKit","Chrome","107.0.0.0","Windows","10.0","643","n","","shirt.jpg","2","Filler","true",""
"","","","","","fixation","66057","html-keyboard-response","227","289505","0.0-6.0-0.48","61","2","2022-11-17 12:22:35","fd252370c17a9971d68c1d4354a03c2e","","Mozilla/5.0 (Windows NT 10.0; Win64; x64) AppleWebKit/537.36 (KHTML, like Gecko) Chrome/107.0.0.0 Safari/537.36","WebKit","Chrome","107.0.0.0","Windows","10.0","null","null","","<p style=""font-size: 48px;"">+</p>","2","Filler","",""
"","","","","","sentence","66057","html-keyboard-response","228","290663","0.0-6.0-1.48","61","2","2022-11-17 12:22:35","fd252370c17a9971d68c1d4354a03c2e","","Mozilla/5.0 (Windows NT 10.0; Win64; x64) AppleWebKit/537.36 (KHTML, like Gecko) Chrome/107.0.0.0 Safari/537.36","WebKit","Chrome","107.0.0.0","Windows","10.0","1150"," ","","A woman is taking money out of a wallet","2","Filler","",""
"","","","","","fixation","66057","html-keyboard-response","229","291175","0.0-6.0-2.48","61","2","2022-11-17 12:22:35","fd252370c17a9971d68c1d4354a03c2e","","Mozilla/5.0 (Windows NT 10.0; Win64; x64) AppleWebKit/537.36 (KHTML, like Gecko) Chrome/107.0.0.0 Safari/537.36","WebKit","Chrome","107.0.0.0","Windows","10.0","null","null","","<p style=""font-size: 48px;"">+</p>","2","Filler","",""
"","","","","","picture","66057","image-keyboard-response","230","291800","0.0-6.0-3.48","61","2","2022-11-17 12:22:35","fd252370c17a9971d68c1d4354a03c2e","","Mozilla/5.0 (Windows NT 10.0; Win64; x64) AppleWebKit/537.36 (KHTML, like Gecko) Chrome/107.0.0.0 Safari/537.36","WebKit","Chrome","107.0.0.0","Windows","10.0","615","n","","coconut.jpg","2","Filler","true",""
"","","","","","fixation","66057","html-keyboard-response","231","292817","0.0-6.0-0.49","61","2","2022-11-17 12:22:35","fd252370c17a9971d68c1d4354a03c2e","","Mozilla/5.0 (Windows NT 10.0; Win64; x64) AppleWebKit/537.36 (KHTML, like Gecko) Chrome/107.0.0.0 Safari/537.36","WebKit","Chrome","107.0.0.0","Windows","10.0","null","null","","<p style=""font-size: 48px;"">+</p>","2","Filler","",""
"","","","","","sentence","66057","html-keyboard-response","232","293874","0.0-6.0-1.49","61","2","2022-11-17 12:22:35","fd252370c17a9971d68c1d4354a03c2e","","Mozilla/5.0 (Windows NT 10.0; Win64; x64) AppleWebKit/537.36 (KHTML, like Gecko) Chrome/107.0.0.0 Safari/537.36","WebKit","Chrome","107.0.0.0","Windows","10.0","1045"," ","","A needle was placed on the mouse pad","2","Filler","",""
"","","","","","fixation","66057","html-keyboard-response","233","294396","0.0-6.0-2.49","61","2","2022-11-17 12:22:35","fd252370c17a9971d68c1d4354a03c2e","","Mozilla/5.0 (Windows NT 10.0; Win64; x64) AppleWebKit/537.36 (KHTML, like Gecko) Chrome/107.0.0.0 Safari/537.36","WebKit","Chrome","107.0.0.0","Windows","10.0","null","null","","<p style=""font-size: 48px;"">+</p>","2","Filler","",""
"","","","","","picture","66057","image-keyboard-response","234","295212","0.0-6.0-3.49","61","2","2022-11-17 12:22:35","fd252370c17a9971d68c1d4354a03c2e","","Mozilla/5.0 (Windows NT 10.0; Win64; x64) AppleWebKit/537.36 (KHTML, like Gecko) Chrome/107.0.0.0 Safari/537.36","WebKit","Chrome","107.0.0.0","Windows","10.0","805","n","","chocolate.jpg","2","Filler","true",""
"","","","","","fixation","66057","html-keyboard-response","235","296225","0.0-6.0-0.50","61","2","2022-11-17 12:22:35","fd252370c17a9971d68c1d4354a03c2e","","Mozilla/5.0 (Windows NT 10.0; Win64; x64) AppleWebKit/537.36 (KHTML, like Gecko) Chrome/107.0.0.0 Safari/537.36","WebKit","Chrome","107.0.0.0","Windows","10.0","null","null","","<p style=""font-size: 48px;"">+</p>","2","Filler","",""
"","","","","","sentence","66057","html-keyboard-response","236","297087","0.0-6.0-1.50","61","2","2022-11-17 12:22:35","fd252370c17a9971d68c1d4354a03c2e","","Mozilla/5.0 (Windows NT 10.0; Win64; x64) AppleWebKit/537.36 (KHTML, like Gecko) Chrome/107.0.0.0 Safari/537.36","WebKit","Chrome","107.0.0.0","Windows","10.0","854"," ","","A student is writing on a board","2","Filler","",""
"","","","","","fixation","66057","html-keyboard-response","237","297593","0.0-6.0-2.50","61","2","2022-11-17 12:22:35","fd252370c17a9971d68c1d4354a03c2e","","Mozilla/5.0 (Windows NT 10.0; Win64; x64) AppleWebKit/537.36 (KHTML, like Gecko) Chrome/107.0.0.0 Safari/537.36","WebKit","Chrome","107.0.0.0","Windows","10.0","null","null","","<p style=""font-size: 48px;"">+</p>","2","Filler","",""
"","","","","","picture","66057","image-keyboard-response","238","298162","0.0-6.0-3.50","61","2","2022-11-17 12:22:35","fd252370c17a9971d68c1d4354a03c2e","","Mozilla/5.0 (Windows NT 10.0; Win64; x64) AppleWebKit/537.36 (KHTML, like Gecko) Chrome/107.0.0.0 Safari/537.36","WebKit","Chrome","107.0.0.0","Windows","10.0","560","n","","owl.jpg","2","Filler","true",""
"","","","","","fixation","66057","html-keyboard-response","239","299175","0.0-6.0-0.51","61","2","2022-11-17 12:22:35","fd252370c17a9971d68c1d4354a03c2e","","Mozilla/5.0 (Windows NT 10.0; Win64; x64) AppleWebKit/537.36 (KHTML, like Gecko) Chrome/107.0.0.0 Safari/537.36","WebKit","Chrome","107.0.0.0","Windows","10.0","null","null","","<p style=""font-size: 48px;"">+</p>","2","Heavy_Contradictory","",""
"","","","","","sentence","66057","html-keyboard-response","240","300677","0.0-6.0-1.51","61","2","2022-11-17 12:22:35","fd252370c17a9971d68c1d4354a03c2e","","Mozilla/5.0 (Windows NT 10.0; Win64; x64) AppleWebKit/537.36 (KHTML, like Gecko) Chrome/107.0.0.0 Safari/537.36","WebKit","Chrome","107.0.0.0","Windows","10.0","1492"," ","","A bowling ball dropped and touched a donut","2","Heavy_Contradictory","",""
"","","","","","fixation","66057","html-keyboard-response","241","301193","0.0-6.0-2.51","61","2","2022-11-17 12:22:35","fd252370c17a9971d68c1d4354a03c2e","","Mozilla/5.0 (Windows NT 10.0; Win64; x64) AppleWebKit/537.36 (KHTML, like Gecko) Chrome/107.0.0.0 Safari/537.36","WebKit","Chrome","107.0.0.0","Windows","10.0","null","null","","<p style=""font-size: 48px;"">+</p>","2","Heavy_Contradictory","",""
"","","","","","picture","66057","image-keyboard-response","242","301926","0.0-6.0-3.51","61","2","2022-11-17 12:22:35","fd252370c17a9971d68c1d4354a03c2e","","Mozilla/5.0 (Windows NT 10.0; Win64; x64) AppleWebKit/537.36 (KHTML, like Gecko) Chrome/107.0.0.0 Safari/537.36","WebKit","Chrome","107.0.0.0","Windows","10.0","722","s","","donutS.jpg","2","Heavy_Contradictory","true",""
"","","","","","fixation","66057","html-keyboard-response","243","302950","0.0-6.0-0.52","61","2","2022-11-17 12:22:35","fd252370c17a9971d68c1d4354a03c2e","","Mozilla/5.0 (Windows NT 10.0; Win64; x64) AppleWebKit/537.36 (KHTML, like Gecko) Chrome/107.0.0.0 Safari/537.36","WebKit","Chrome","107.0.0.0","Windows","10.0","null","null","","<p style=""font-size: 48px;"">+</p>","2","Heavy_Matched","",""
"","","","","","sentence","66057","html-keyboard-response","244","304515","0.0-6.0-1.52","61","2","2022-11-17 12:22:35","fd252370c17a9971d68c1d4354a03c2e","","Mozilla/5.0 (Windows NT 10.0; Win64; x64) AppleWebKit/537.36 (KHTML, like Gecko) Chrome/107.0.0.0 Safari/537.36","WebKit","Chrome","107.0.0.0","Windows","10.0","1557"," ","","A bowling ball dropped and smashed a banana","2","Heavy_Matched","",""
"","","","","","fixation","66057","html-keyboard-response","245","305031","0.0-6.0-2.52","61","2","2022-11-17 12:22:35","fd252370c17a9971d68c1d4354a03c2e","","Mozilla/5.0 (Windows NT 10.0; Win64; x64) AppleWebKit/537.36 (KHTML, like Gecko) Chrome/107.0.0.0 Safari/537.36","WebKit","Chrome","107.0.0.0","Windows","10.0","null","null","","<p style=""font-size: 48px;"">+</p>","2","Heavy_Matched","",""
"","","","","","picture","66057","image-keyboard-response","246","305738","0.0-6.0-3.52","61","2","2022-11-17 12:22:35","fd252370c17a9971d68c1d4354a03c2e","","Mozilla/5.0 (Windows NT 10.0; Win64; x64) AppleWebKit/537.36 (KHTML, like Gecko) Chrome/107.0.0.0 Safari/537.36","WebKit","Chrome","107.0.0.0","Windows","10.0","698","s","","bananaS.jpg","2","Heavy_Matched","true",""
"","","","","","fixation","66057","html-keyboard-response","247","306753","0.0-6.0-0.53","61","2","2022-11-17 12:22:35","fd252370c17a9971d68c1d4354a03c2e","","Mozilla/5.0 (Windows NT 10.0; Win64; x64) AppleWebKit/537.36 (KHTML, like Gecko) Chrome/107.0.0.0 Safari/537.36","WebKit","Chrome","107.0.0.0","Windows","10.0","null","null","","<p style=""font-size: 48px;"">+</p>","2","Filler","",""
"","","","","","sentence","66057","html-keyboard-response","248","307851","0.0-6.0-1.53","61","2","2022-11-17 12:22:35","fd252370c17a9971d68c1d4354a03c2e","","Mozilla/5.0 (Windows NT 10.0; Win64; x64) AppleWebKit/537.36 (KHTML, like Gecko) Chrome/107.0.0.0 Safari/537.36","WebKit","Chrome","107.0.0.0","Windows","10.0","1090"," ","","A cook is taking a knife","2","Filler","",""
