"success","timeout","failed_images","failed_audio","failed_video","typeoftrial","subject","trial_type","trial_index","time_elapsed","internal_node_id","run_id","condition","recorded_at","source_code_version","ip","user_agent","device","browser","browser_version","platform","platform_version","rt","response","Experiment","stimulus","list_number","trialcondition","correct","question_order"
"true","false","[]","[]","[]","preload","47711","preload","0","588","0.0-0.0","80","3","2022-11-17 12:25:58","fd252370c17a9971d68c1d4354a03c2e","","Mozilla/5.0 (Macintosh; Intel Mac OS X 10_11_6) AppleWebKit/537.36 (KHTML, like Gecko) Chrome/103.0.0.0 Safari/537.36","Macintosh","Chrome","103.0.0.0","OS X","10_11_6","","","","","","","",""
"","","","","","ID","47711","survey-text","1","3420","0.0-1.0","80","3","2022-11-17 12:25:58","fd252370c17a9971d68c1d4354a03c2e","","Mozilla/5.0 (Macintosh; Intel Mac OS X 10_11_6) AppleWebKit/537.36 (KHTML, like Gecko) Chrome/103.0.0.0 Safari/537.36","Macintosh","Chrome","103.0.0.0","OS X","10_11_6","2819","{""ID"":""60b73001d03a07610cd4f468""}","","","","","",""
"","","","","","instructions","47711","html-button-response","2","30917","0.0-2.0","80","3","2022-11-17 12:25:58","fd252370c17a9971d68c1d4354a03c2e","","Mozilla/5.0 (Macintosh; Intel Mac OS X 10_11_6) AppleWebKit/537.36 (KHTML, like Gecko) Chrome/103.0.0.0 Safari/537.36","Macintosh","Chrome","103.0.0.0","OS X","10_11_6","27493","0","","
                    <p style=""font-size:20px;""> Welcome to the experiment! </p>
                    <p style=""font-size:20px;""> In this experiment, you will be asked to make judgments about the content of different sentences.</p>
                    <p style=""font-size:20px;""> On each trial, you will read a sentence, and will be shown a picture immediately following the sentence. </p>
                    <p style=""font-size:20px;""> Your task is to decide whether the object displayed in the picture was mentioned in the sentence or not </p>
                    <p style=""font-size:20px;""> and respond as quickly as possible by pressing <strong>S</strong> for yes or <strong>N</strong> for no. </p>
                    <p style=""font-size:20px;""> You will now do a practice session with feedback and instructions. </p>
                    <p style=""font-size:20px;""> Click the button below to continue.</p>
                    ","","","",""
"","","","","","instructions","47711","html-button-response","3","44442","0.0-3.0","80","3","2022-11-17 12:25:58","fd252370c17a9971d68c1d4354a03c2e","","Mozilla/5.0 (Macintosh; Intel Mac OS X 10_11_6) AppleWebKit/537.36 (KHTML, like Gecko) Chrome/103.0.0.0 Safari/537.36","Macintosh","Chrome","103.0.0.0","OS X","10_11_6","13522","0","","
                    <p style=""font-size:20px;""> You are about to begin the practice test. </p>
                    <p style=""font-size:20px;""> On each trial, a sentence will appear on the screen. You should press SPACEBAR when you have read and understood the sentence.</p>
                    <p style=""font-size:20px;""> After you press SPACEBAR, a picture will appear on the screen. </p>
                    <p style=""font-size:20px;""> You need to indicate whether or not the pictured object was mentioned in the sentence. </p>
                    <p style=""font-size:20px;""> If the object WAS mentioned in the preceding sentence, you should press <strong>S</strong> </p>
                    <p style=""font-size:20px;""> If the object was NOT mentioned in the preceding sentence, you should press <strong>N</strong>. </p>
                    <p style=""font-size:20px;""> Click the button below to continue to the practice session.</p>
                    ","","","",""
"","","","","","fixation","47711","html-keyboard-response","4","45451","0.0-4.0-0.0","80","3","2022-11-17 12:25:58","fd252370c17a9971d68c1d4354a03c2e","","Mozilla/5.0 (Macintosh; Intel Mac OS X 10_11_6) AppleWebKit/537.36 (KHTML, like Gecko) Chrome/103.0.0.0 Safari/537.36","Macintosh","Chrome","103.0.0.0","OS X","10_11_6","null","null","","<p style=""font-size: 48px;"">+</p>","practice","practice_n","",""
"","","","","","sentence","47711","html-keyboard-response","5","48262","0.0-4.0-1.0","80","3","2022-11-17 12:25:58","fd252370c17a9971d68c1d4354a03c2e","","Mozilla/5.0 (Macintosh; Intel Mac OS X 10_11_6) AppleWebKit/537.36 (KHTML, like Gecko) Chrome/103.0.0.0 Safari/537.36","Macintosh","Chrome","103.0.0.0","OS X","10_11_6","2810"," ","","A bowling ball dropped and touched a bottle","practice","practice_n","",""
"","","","","","fixation","47711","html-keyboard-response","6","48765","0.0-4.0-2.0","80","3","2022-11-17 12:25:58","fd252370c17a9971d68c1d4354a03c2e","","Mozilla/5.0 (Macintosh; Intel Mac OS X 10_11_6) AppleWebKit/537.36 (KHTML, like Gecko) Chrome/103.0.0.0 Safari/537.36","Macintosh","Chrome","103.0.0.0","OS X","10_11_6","null","null","","<p style=""font-size: 48px;"">+</p>","practice","practice_n","",""
"","","","","","picture","47711","image-keyboard-response","7","51748","0.0-4.0-3.0","80","3","2022-11-17 12:25:58","fd252370c17a9971d68c1d4354a03c2e","","Mozilla/5.0 (Macintosh; Intel Mac OS X 10_11_6) AppleWebKit/537.36 (KHTML, like Gecko) Chrome/103.0.0.0 Safari/537.36","Macintosh","Chrome","103.0.0.0","OS X","10_11_6","2972","n","","bookB.jpg","practice","practice_n","true",""
"","","","","","","","html-keyboard-response","8","53752","0.0-4.0-4.0","80","3","2022-11-17 12:25:58","fd252370c17a9971d68c1d4354a03c2e","","Mozilla/5.0 (Macintosh; Intel Mac OS X 10_11_6) AppleWebKit/537.36 (KHTML, like Gecko) Chrome/103.0.0.0 Safari/537.36","Macintosh","Chrome","103.0.0.0","OS X","10_11_6","null","null","","CORRECT!","","","",""
"","","","","","fixation","47711","html-keyboard-response","9","54758","0.0-4.0-0.1","80","3","2022-11-17 12:25:58","fd252370c17a9971d68c1d4354a03c2e","","Mozilla/5.0 (Macintosh; Intel Mac OS X 10_11_6) AppleWebKit/537.36 (KHTML, like Gecko) Chrome/103.0.0.0 Safari/537.36","Macintosh","Chrome","103.0.0.0","OS X","10_11_6","null","null","","<p style=""font-size: 48px;"">+</p>","practice","practice_s","",""
"","","","","","sentence","47711","html-keyboard-response","10","57368","0.0-4.0-1.1","80","3","2022-11-17 12:25:58","fd252370c17a9971d68c1d4354a03c2e","","Mozilla/5.0 (Macintosh; Intel Mac OS X 10_11_6) AppleWebKit/537.36 (KHTML, like Gecko) Chrome/103.0.0.0 Safari/537.36","Macintosh","Chrome","103.0.0.0","OS X","10_11_6","2607"," ","","A bowling ball dropped and smashed a teacup","practice","practice_s","",""
"","","","","","fixation","47711","html-keyboard-response","11","57871","0.0-4.0-2.1","80","3","2022-11-17 12:25:58","fd252370c17a9971d68c1d4354a03c2e","","Mozilla/5.0 (Macintosh; Intel Mac OS X 10_11_6) AppleWebKit/537.36 (KHTML, like Gecko) Chrome/103.0.0.0 Safari/537.36","Macintosh","Chrome","103.0.0.0","OS X","10_11_6","null","null","","<p style=""font-size: 48px;"">+</p>","practice","practice_s","",""
"","","","","","picture","47711","image-keyboard-response","12","59289","0.0-4.0-3.1","80","3","2022-11-17 12:25:58","fd252370c17a9971d68c1d4354a03c2e","","Mozilla/5.0 (Macintosh; Intel Mac OS X 10_11_6) AppleWebKit/537.36 (KHTML, like Gecko) Chrome/103.0.0.0 Safari/537.36","Macintosh","Chrome","103.0.0.0","OS X","10_11_6","1412","s","","cupB.jpg","practice","practice_s","true",""
"","","","","","","","html-keyboard-response","13","61293","0.0-4.0-4.1","80","3","2022-11-17 12:25:58","fd252370c17a9971d68c1d4354a03c2e","","Mozilla/5.0 (Macintosh; Intel Mac OS X 10_11_6) AppleWebKit/537.36 (KHTML, like Gecko) Chrome/103.0.0.0 Safari/537.36","Macintosh","Chrome","103.0.0.0","OS X","10_11_6","null","null","","CORRECT!","","","",""
"","","","","","fixation","47711","html-keyboard-response","14","62299","0.0-4.0-0.2","80","3","2022-11-17 12:25:58","fd252370c17a9971d68c1d4354a03c2e","","Mozilla/5.0 (Macintosh; Intel Mac OS X 10_11_6) AppleWebKit/537.36 (KHTML, like Gecko) Chrome/103.0.0.0 Safari/537.36","Macintosh","Chrome","103.0.0.0","OS X","10_11_6","null","null","","<p style=""font-size: 48px;"">+</p>","practice","practice_n","",""
"","","","","","sentence","47711","html-keyboard-response","15","65222","0.0-4.0-1.2","80","3","2022-11-17 12:25:58","fd252370c17a9971d68c1d4354a03c2e","","Mozilla/5.0 (Macintosh; Intel Mac OS X 10_11_6) AppleWebKit/537.36 (KHTML, like Gecko) Chrome/103.0.0.0 Safari/537.36","Macintosh","Chrome","103.0.0.0","OS X","10_11_6","2921"," ","","A balloon dropped and smashed a cup","practice","practice_n","",""
"","","","","","fixation","47711","html-keyboard-response","16","65726","0.0-4.0-2.2","80","3","2022-11-17 12:25:58","fd252370c17a9971d68c1d4354a03c2e","","Mozilla/5.0 (Macintosh; Intel Mac OS X 10_11_6) AppleWebKit/537.36 (KHTML, like Gecko) Chrome/103.0.0.0 Safari/537.36","Macintosh","Chrome","103.0.0.0","OS X","10_11_6","null","null","","<p style=""font-size: 48px;"">+</p>","practice","practice_n","",""
"","","","","","picture","47711","image-keyboard-response","17","67312","0.0-4.0-3.2","80","3","2022-11-17 12:25:58","fd252370c17a9971d68c1d4354a03c2e","","Mozilla/5.0 (Macintosh; Intel Mac OS X 10_11_6) AppleWebKit/537.36 (KHTML, like Gecko) Chrome/103.0.0.0 Safari/537.36","Macintosh","Chrome","103.0.0.0","OS X","10_11_6","1580","n","","bananaB.jpg","practice","practice_n","true",""
"","","","","","","","html-keyboard-response","18","69316","0.0-4.0-4.2","80","3","2022-11-17 12:25:58","fd252370c17a9971d68c1d4354a03c2e","","Mozilla/5.0 (Macintosh; Intel Mac OS X 10_11_6) AppleWebKit/537.36 (KHTML, like Gecko) Chrome/103.0.0.0 Safari/537.36","Macintosh","Chrome","103.0.0.0","OS X","10_11_6","null","null","","CORRECT!","","","",""
"","","","","","fixation","47711","html-keyboard-response","19","70322","0.0-4.0-0.3","80","3","2022-11-17 12:25:58","fd252370c17a9971d68c1d4354a03c2e","","Mozilla/5.0 (Macintosh; Intel Mac OS X 10_11_6) AppleWebKit/537.36 (KHTML, like Gecko) Chrome/103.0.0.0 Safari/537.36","Macintosh","Chrome","103.0.0.0","OS X","10_11_6","null","null","","<p style=""font-size: 48px;"">+</p>","practice","practice_s","",""
"","","","","","sentence","47711","html-keyboard-response","20","73724","0.0-4.0-1.3","80","3","2022-11-17 12:25:58","fd252370c17a9971d68c1d4354a03c2e","","Mozilla/5.0 (Macintosh; Intel Mac OS X 10_11_6) AppleWebKit/537.36 (KHTML, like Gecko) Chrome/103.0.0.0 Safari/537.36","Macintosh","Chrome","103.0.0.0","OS X","10_11_6","3400"," ","","A balloon dropped and touched a cigarette","practice","practice_s","",""
"","","","","","fixation","47711","html-keyboard-response","21","74228","0.0-4.0-2.3","80","3","2022-11-17 12:25:58","fd252370c17a9971d68c1d4354a03c2e","","Mozilla/5.0 (Macintosh; Intel Mac OS X 10_11_6) AppleWebKit/537.36 (KHTML, like Gecko) Chrome/103.0.0.0 Safari/537.36","Macintosh","Chrome","103.0.0.0","OS X","10_11_6","null","null","","<p style=""font-size: 48px;"">+</p>","practice","practice_s","",""
"","","","","","picture","47711","image-keyboard-response","22","75824","0.0-4.0-3.3","80","3","2022-11-17 12:25:58","fd252370c17a9971d68c1d4354a03c2e","","Mozilla/5.0 (Macintosh; Intel Mac OS X 10_11_6) AppleWebKit/537.36 (KHTML, like Gecko) Chrome/103.0.0.0 Safari/537.36","Macintosh","Chrome","103.0.0.0","OS X","10_11_6","1590","s","","cigaretteB.jpg","practice","practice_s","true",""
"","","","","","","","html-keyboard-response","23","77827","0.0-4.0-4.3","80","3","2022-11-17 12:25:58","fd252370c17a9971d68c1d4354a03c2e","","Mozilla/5.0 (Macintosh; Intel Mac OS X 10_11_6) AppleWebKit/537.36 (KHTML, like Gecko) Chrome/103.0.0.0 Safari/537.36","Macintosh","Chrome","103.0.0.0","OS X","10_11_6","null","null","","CORRECT!","","","",""
"","","","","","fixation","47711","html-keyboard-response","24","78834","0.0-4.0-0.4","80","3","2022-11-17 12:25:58","fd252370c17a9971d68c1d4354a03c2e","","Mozilla/5.0 (Macintosh; Intel Mac OS X 10_11_6) AppleWebKit/537.36 (KHTML, like Gecko) Chrome/103.0.0.0 Safari/537.36","Macintosh","Chrome","103.0.0.0","OS X","10_11_6","null","null","","<p style=""font-size: 48px;"">+</p>","practice","practice_s","",""
"","","","","","sentence","47711","html-keyboard-response","25","80182","0.0-4.0-1.4","80","3","2022-11-17 12:25:58","fd252370c17a9971d68c1d4354a03c2e","","Mozilla/5.0 (Macintosh; Intel Mac OS X 10_11_6) AppleWebKit/537.36 (KHTML, like Gecko) Chrome/103.0.0.0 Safari/537.36","Macintosh","Chrome","103.0.0.0","OS X","10_11_6","1346"," ","","A knife was placed on a hammer","practice","practice_s","",""
"","","","","","fixation","47711","html-keyboard-response","26","80685","0.0-4.0-2.4","80","3","2022-11-17 12:25:58","fd252370c17a9971d68c1d4354a03c2e","","Mozilla/5.0 (Macintosh; Intel Mac OS X 10_11_6) AppleWebKit/537.36 (KHTML, like Gecko) Chrome/103.0.0.0 Safari/537.36","Macintosh","Chrome","103.0.0.0","OS X","10_11_6","null","null","","<p style=""font-size: 48px;"">+</p>","practice","practice_s","",""
"","","","","","picture","47711","image-keyboard-response","27","83166","0.0-4.0-3.4","80","3","2022-11-17 12:25:58","fd252370c17a9971d68c1d4354a03c2e","","Mozilla/5.0 (Macintosh; Intel Mac OS X 10_11_6) AppleWebKit/537.36 (KHTML, like Gecko) Chrome/103.0.0.0 Safari/537.36","Macintosh","Chrome","103.0.0.0","OS X","10_11_6","2475","s","","hammerB.jpg","practice","practice_s","true",""
"","","","","","","","html-keyboard-response","28","85171","0.0-4.0-4.4","80","3","2022-11-17 12:25:58","fd252370c17a9971d68c1d4354a03c2e","","Mozilla/5.0 (Macintosh; Intel Mac OS X 10_11_6) AppleWebKit/537.36 (KHTML, like Gecko) Chrome/103.0.0.0 Safari/537.36","Macintosh","Chrome","103.0.0.0","OS X","10_11_6","null","null","","CORRECT!","","","",""
"","","","","","fixation","47711","html-keyboard-response","29","86177","0.0-4.0-0.5","80","3","2022-11-17 12:25:58","fd252370c17a9971d68c1d4354a03c2e","","Mozilla/5.0 (Macintosh; Intel Mac OS X 10_11_6) AppleWebKit/537.36 (KHTML, like Gecko) Chrome/103.0.0.0 Safari/537.36","Macintosh","Chrome","103.0.0.0","OS X","10_11_6","null","null","","<p style=""font-size: 48px;"">+</p>","practice","practice_n","",""
"","","","","","sentence","47711","html-keyboard-response","30","87322","0.0-4.0-1.5","80","3","2022-11-17 12:25:58","fd252370c17a9971d68c1d4354a03c2e","","Mozilla/5.0 (Macintosh; Intel Mac OS X 10_11_6) AppleWebKit/537.36 (KHTML, like Gecko) Chrome/103.0.0.0 Safari/537.36","Macintosh","Chrome","103.0.0.0","OS X","10_11_6","1143"," ","","A fork was placed on a stool","practice","practice_n","",""
"","","","","","fixation","47711","html-keyboard-response","31","87824","0.0-4.0-2.5","80","3","2022-11-17 12:25:58","fd252370c17a9971d68c1d4354a03c2e","","Mozilla/5.0 (Macintosh; Intel Mac OS X 10_11_6) AppleWebKit/537.36 (KHTML, like Gecko) Chrome/103.0.0.0 Safari/537.36","Macintosh","Chrome","103.0.0.0","OS X","10_11_6","null","null","","<p style=""font-size: 48px;"">+</p>","practice","practice_n","",""
"","","","","","picture","47711","image-keyboard-response","32","90272","0.0-4.0-3.5","80","3","2022-11-17 12:25:58","fd252370c17a9971d68c1d4354a03c2e","","Mozilla/5.0 (Macintosh; Intel Mac OS X 10_11_6) AppleWebKit/537.36 (KHTML, like Gecko) Chrome/103.0.0.0 Safari/537.36","Macintosh","Chrome","103.0.0.0","OS X","10_11_6","2441","s","","tableB.jpg","practice","practice_n","false",""
"","","","","","","","html-keyboard-response","33","92280","0.0-4.0-4.5","80","3","2022-11-17 12:25:58","fd252370c17a9971d68c1d4354a03c2e","","Mozilla/5.0 (Macintosh; Intel Mac OS X 10_11_6) AppleWebKit/537.36 (KHTML, like Gecko) Chrome/103.0.0.0 Safari/537.36","Macintosh","Chrome","103.0.0.0","OS X","10_11_6","null","null","","WRONG!","","","",""
"","","","","","movetoexp","47711","html-button-response","34","95989","0.0-5.0","80","3","2022-11-17 12:25:58","fd252370c17a9971d68c1d4354a03c2e","","Mozilla/5.0 (Macintosh; Intel Mac OS X 10_11_6) AppleWebKit/537.36 (KHTML, like Gecko) Chrome/103.0.0.0 Safari/537.36","Macintosh","Chrome","103.0.0.0","OS X","10_11_6","3706","0","","<p style=""font-size:20px;"">You have now completed the practice session! </p>
                    <p style=""font-size:20px;"">You will now move on to the main experiment, where you will not be provided any feedback. </p>
                    <p style=""font-size:20px;"">Remember, you should press <strong>S</strong> if the pictured object was mentioned in the preceding sentence<br> and <strong>N</strong> if the pictured object was not mentioned in the preceding sentence.</p>
                    <p style=""font-size:20px;"">Please click the button below to continue to the main experiment. </p>","","","",""
"","","","","","fixation","47711","html-keyboard-response","35","96996","0.0-6.0-0.0","80","3","2022-11-17 12:25:58","fd252370c17a9971d68c1d4354a03c2e","","Mozilla/5.0 (Macintosh; Intel Mac OS X 10_11_6) AppleWebKit/537.36 (KHTML, like Gecko) Chrome/103.0.0.0 Safari/537.36","Macintosh","Chrome","103.0.0.0","OS X","10_11_6","null","null","","<p style=""font-size: 48px;"">+</p>","3","Filler","",""
"","","","","","sentence","47711","html-keyboard-response","36","99193","0.0-6.0-1.0","80","3","2022-11-17 12:25:58","fd252370c17a9971d68c1d4354a03c2e","","Mozilla/5.0 (Macintosh; Intel Mac OS X 10_11_6) AppleWebKit/537.36 (KHTML, like Gecko) Chrome/103.0.0.0 Safari/537.36","Macintosh","Chrome","103.0.0.0","OS X","10_11_6","2194"," ","","A cook is taking a knife","3","Filler","",""
"","","","","","fixation","47711","html-keyboard-response","37","99696","0.0-6.0-2.0","80","3","2022-11-17 12:25:58","fd252370c17a9971d68c1d4354a03c2e","","Mozilla/5.0 (Macintosh; Intel Mac OS X 10_11_6) AppleWebKit/537.36 (KHTML, like Gecko) Chrome/103.0.0.0 Safari/537.36","Macintosh","Chrome","103.0.0.0","OS X","10_11_6","null","null","","<p style=""font-size: 48px;"">+</p>","3","Filler","",""
"","","","","","picture","47711","image-keyboard-response","38","101391","0.0-6.0-3.0","80","3","2022-11-17 12:25:58","fd252370c17a9971d68c1d4354a03c2e","","Mozilla/5.0 (Macintosh; Intel Mac OS X 10_11_6) AppleWebKit/537.36 (KHTML, like Gecko) Chrome/103.0.0.0 Safari/537.36","Macintosh","Chrome","103.0.0.0","OS X","10_11_6","1688","s","","knife.jpg","3","Filler","true",""
"","","","","","fixation","47711","html-keyboard-response","39","102397","0.0-6.0-0.1","80","3","2022-11-17 12:25:58","fd252370c17a9971d68c1d4354a03c2e","","Mozilla/5.0 (Macintosh; Intel Mac OS X 10_11_6) AppleWebKit/537.36 (KHTML, like Gecko) Chrome/103.0.0.0 Safari/537.36","Macintosh","Chrome","103.0.0.0","OS X","10_11_6","null","null","","<p style=""font-size: 48px;"">+</p>","3","Light_Matched","",""
"","","","","","sentence","47711","html-keyboard-response","40","104188","0.0-6.0-1.1","80","3","2022-11-17 12:25:58","fd252370c17a9971d68c1d4354a03c2e","","Mozilla/5.0 (Macintosh; Intel Mac OS X 10_11_6) AppleWebKit/537.36 (KHTML, like Gecko) Chrome/103.0.0.0 Safari/537.36","Macintosh","Chrome","103.0.0.0","OS X","10_11_6","1789"," ","","A balloon dropped and touched a cracker","3","Light_Matched","",""
"","","","","","fixation","47711","html-keyboard-response","41","104692","0.0-6.0-2.1","80","3","2022-11-17 12:25:58","fd252370c17a9971d68c1d4354a03c2e","","Mozilla/5.0 (Macintosh; Intel Mac OS X 10_11_6) AppleWebKit/537.36 (KHTML, like Gecko) Chrome/103.0.0.0 Safari/537.36","Macintosh","Chrome","103.0.0.0","OS X","10_11_6","null","null","","<p style=""font-size: 48px;"">+</p>","3","Light_Matched","",""
"","","","","","picture","47711","image-keyboard-response","42","105932","0.0-6.0-3.1","80","3","2022-11-17 12:25:58","fd252370c17a9971d68c1d4354a03c2e","","Mozilla/5.0 (Macintosh; Intel Mac OS X 10_11_6) AppleWebKit/537.36 (KHTML, like Gecko) Chrome/103.0.0.0 Safari/537.36","Macintosh","Chrome","103.0.0.0","OS X","10_11_6","1234","s","","crackerS.jpg","3","Light_Matched","true",""
"","","","","","fixation","47711","html-keyboard-response","43","106941","0.0-6.0-0.2","80","3","2022-11-17 12:25:58","fd252370c17a9971d68c1d4354a03c2e","","Mozilla/5.0 (Macintosh; Intel Mac OS X 10_11_6) AppleWebKit/537.36 (KHTML, like Gecko) Chrome/103.0.0.0 Safari/537.36","Macintosh","Chrome","103.0.0.0","OS X","10_11_6","null","null","","<p style=""font-size: 48px;"">+</p>","3","Heavy_Matched","",""
"","","","","","sentence","47711","html-keyboard-response","44","110533","0.0-6.0-1.2","80","3","2022-11-17 12:25:58","fd252370c17a9971d68c1d4354a03c2e","","Mozilla/5.0 (Macintosh; Intel Mac OS X 10_11_6) AppleWebKit/537.36 (KHTML, like Gecko) Chrome/103.0.0.0 Safari/537.36","Macintosh","Chrome","103.0.0.0","OS X","10_11_6","3590"," ","","A bowling ball dropped and smashed a rice cake","3","Heavy_Matched","",""
"","","","","","fixation","47711","html-keyboard-response","45","111038","0.0-6.0-2.2","80","3","2022-11-17 12:25:58","fd252370c17a9971d68c1d4354a03c2e","","Mozilla/5.0 (Macintosh; Intel Mac OS X 10_11_6) AppleWebKit/537.36 (KHTML, like Gecko) Chrome/103.0.0.0 Safari/537.36","Macintosh","Chrome","103.0.0.0","OS X","10_11_6","null","null","","<p style=""font-size: 48px;"">+</p>","3","Heavy_Matched","",""
"","","","","","picture","47711","image-keyboard-response","46","112782","0.0-6.0-3.2","80","3","2022-11-17 12:25:58","fd252370c17a9971d68c1d4354a03c2e","","Mozilla/5.0 (Macintosh; Intel Mac OS X 10_11_6) AppleWebKit/537.36 (KHTML, like Gecko) Chrome/103.0.0.0 Safari/537.36","Macintosh","Chrome","103.0.0.0","OS X","10_11_6","1737","s","","tortitaS.jpg","3","Heavy_Matched","true",""
"","","","","","fixation","47711","html-keyboard-response","47","113790","0.0-6.0-0.3","80","3","2022-11-17 12:25:58","fd252370c17a9971d68c1d4354a03c2e","","Mozilla/5.0 (Macintosh; Intel Mac OS X 10_11_6) AppleWebKit/537.36 (KHTML, like Gecko) Chrome/103.0.0.0 Safari/537.36","Macintosh","Chrome","103.0.0.0","OS X","10_11_6","null","null","","<p style=""font-size: 48px;"">+</p>","3","Filler","",""
"","","","","","sentence","47711","html-keyboard-response","48","115572","0.0-6.0-1.3","80","3","2022-11-17 12:25:58","fd252370c17a9971d68c1d4354a03c2e","","Mozilla/5.0 (Macintosh; Intel Mac OS X 10_11_6) AppleWebKit/537.36 (KHTML, like Gecko) Chrome/103.0.0.0 Safari/537.36","Macintosh","Chrome","103.0.0.0","OS X","10_11_6","1780"," ","","A man is playing with a cat","3","Filler","",""
"","","","","","fixation","47711","html-keyboard-response","49","116077","0.0-6.0-2.3","80","3","2022-11-17 12:25:58","fd252370c17a9971d68c1d4354a03c2e","","Mozilla/5.0 (Macintosh; Intel Mac OS X 10_11_6) AppleWebKit/537.36 (KHTML, like Gecko) Chrome/103.0.0.0 Safari/537.36","Macintosh","Chrome","103.0.0.0","OS X","10_11_6","null","null","","<p style=""font-size: 48px;"">+</p>","3","Filler","",""
"","","","","","picture","47711","image-keyboard-response","50","117217","0.0-6.0-3.3","80","3","2022-11-17 12:25:58","fd252370c17a9971d68c1d4354a03c2e","","Mozilla/5.0 (Macintosh; Intel Mac OS X 10_11_6) AppleWebKit/537.36 (KHTML, like Gecko) Chrome/103.0.0.0 Safari/537.36","Macintosh","Chrome","103.0.0.0","OS X","10_11_6","1132","n","","ceramicplate.jpg","3","Filler","true",""
"","","","","","fixation","47711","html-keyboard-response","51","118225","0.0-6.0-0.4","80","3","2022-11-17 12:25:58","fd252370c17a9971d68c1d4354a03c2e","","Mozilla/5.0 (Macintosh; Intel Mac OS X 10_11_6) AppleWebKit/537.36 (KHTML, like Gecko) Chrome/103.0.0.0 Safari/537.36","Macintosh","Chrome","103.0.0.0","OS X","10_11_6","null","null","","<p style=""font-size: 48px;"">+</p>","3","Light_Contradictory","",""
"","","","","","sentence","47711","html-keyboard-response","52","120624","0.0-6.0-1.4","80","3","2022-11-17 12:25:58","fd252370c17a9971d68c1d4354a03c2e","","Mozilla/5.0 (Macintosh; Intel Mac OS X 10_11_6) AppleWebKit/537.36 (KHTML, like Gecko) Chrome/103.0.0.0 Safari/537.36","Macintosh","Chrome","103.0.0.0","OS X","10_11_6","2396"," ","","A balloon dropped and smashed a banana","3","Light_Contradictory","",""
"","","","","","fixation","47711","html-keyboard-response","53","121129","0.0-6.0-2.4","80","3","2022-11-17 12:25:58","fd252370c17a9971d68c1d4354a03c2e","","Mozilla/5.0 (Macintosh; Intel Mac OS X 10_11_6) AppleWebKit/537.36 (KHTML, like Gecko) Chrome/103.0.0.0 Safari/537.36","Macintosh","Chrome","103.0.0.0","OS X","10_11_6","null","null","","<p style=""font-size: 48px;"">+</p>","3","Light_Contradictory","",""
"","","","","","picture","47711","image-keyboard-response","54","122356","0.0-6.0-3.4","80","3","2022-11-17 12:25:58","fd252370c17a9971d68c1d4354a03c2e","","Mozilla/5.0 (Macintosh; Intel Mac OS X 10_11_6) AppleWebKit/537.36 (KHTML, like Gecko) Chrome/103.0.0.0 Safari/537.36","Macintosh","Chrome","103.0.0.0","OS X","10_11_6","1219","s","","bananaS.jpg","3","Light_Contradictory","true",""
"","","","","","fixation","47711","html-keyboard-response","55","123364","0.0-6.0-0.5","80","3","2022-11-17 12:25:58","fd252370c17a9971d68c1d4354a03c2e","","Mozilla/5.0 (Macintosh; Intel Mac OS X 10_11_6) AppleWebKit/537.36 (KHTML, like Gecko) Chrome/103.0.0.0 Safari/537.36","Macintosh","Chrome","103.0.0.0","OS X","10_11_6","null","null","","<p style=""font-size: 48px;"">+</p>","3","Filler","",""
"","","","","","sentence","47711","html-keyboard-response","56","125287","0.0-6.0-1.5","80","3","2022-11-17 12:25:58","fd252370c17a9971d68c1d4354a03c2e","","Mozilla/5.0 (Macintosh; Intel Mac OS X 10_11_6) AppleWebKit/537.36 (KHTML, like Gecko) Chrome/103.0.0.0 Safari/537.36","Macintosh","Chrome","103.0.0.0","OS X","10_11_6","1919"," ","","A nurse is taking a syringe","3","Filler","",""
"","","","","","fixation","47711","html-keyboard-response","57","125791","0.0-6.0-2.5","80","3","2022-11-17 12:25:58","fd252370c17a9971d68c1d4354a03c2e","","Mozilla/5.0 (Macintosh; Intel Mac OS X 10_11_6) AppleWebKit/537.36 (KHTML, like Gecko) Chrome/103.0.0.0 Safari/537.36","Macintosh","Chrome","103.0.0.0","OS X","10_11_6","null","null","","<p style=""font-size: 48px;"">+</p>","3","Filler","",""
"","","","","","picture","47711","image-keyboard-response","58","126817","0.0-6.0-3.5","80","3","2022-11-17 12:25:58","fd252370c17a9971d68c1d4354a03c2e","","Mozilla/5.0 (Macintosh; Intel Mac OS X 10_11_6) AppleWebKit/537.36 (KHTML, like Gecko) Chrome/103.0.0.0 Safari/537.36","Macintosh","Chrome","103.0.0.0","OS X","10_11_6","1019","n","","headphones.jpg","3","Filler","true",""
"","","","","","fixation","47711","html-keyboard-response","59","127824","0.0-6.0-0.6","80","3","2022-11-17 12:25:58","fd252370c17a9971d68c1d4354a03c2e","","Mozilla/5.0 (Macintosh; Intel Mac OS X 10_11_6) AppleWebKit/537.36 (KHTML, like Gecko) Chrome/103.0.0.0 Safari/537.36","Macintosh","Chrome","103.0.0.0","OS X","10_11_6","null","null","","<p style=""font-size: 48px;"">+</p>","3","Light_Matched","",""
"","","","","","sentence","47711","html-keyboard-response","60","129744","0.0-6.0-1.6","80","3","2022-11-17 12:25:58","fd252370c17a9971d68c1d4354a03c2e","","Mozilla/5.0 (Macintosh; Intel Mac OS X 10_11_6) AppleWebKit/537.36 (KHTML, like Gecko) Chrome/103.0.0.0 Safari/537.36","Macintosh","Chrome","103.0.0.0","OS X","10_11_6","1916"," ","","A balloon dropped and touched a wineglass","3","Light_Matched","",""
"","","","","","fixation","47711","html-keyboard-response","61","130248","0.0-6.0-2.6","80","3","2022-11-17 12:25:58","fd252370c17a9971d68c1d4354a03c2e","","Mozilla/5.0 (Macintosh; Intel Mac OS X 10_11_6) AppleWebKit/537.36 (KHTML, like Gecko) Chrome/103.0.0.0 Safari/537.36","Macintosh","Chrome","103.0.0.0","OS X","10_11_6","null","null","","<p style=""font-size: 48px;"">+</p>","3","Light_Matched","",""
"","","","","","picture","47711","image-keyboard-response","62","131382","0.0-6.0-3.6","80","3","2022-11-17 12:25:58","fd252370c17a9971d68c1d4354a03c2e","","Mozilla/5.0 (Macintosh; Intel Mac OS X 10_11_6) AppleWebKit/537.36 (KHTML, like Gecko) Chrome/103.0.0.0 Safari/537.36","Macintosh","Chrome","103.0.0.0","OS X","10_11_6","1127","s","","wineglassS.jpg","3","Light_Matched","true",""
"","","","","","fixation","47711","html-keyboard-response","63","132389","0.0-6.0-0.7","80","3","2022-11-17 12:25:58","fd252370c17a9971d68c1d4354a03c2e","","Mozilla/5.0 (Macintosh; Intel Mac OS X 10_11_6) AppleWebKit/537.36 (KHTML, like Gecko) Chrome/103.0.0.0 Safari/537.36","Macintosh","Chrome","103.0.0.0","OS X","10_11_6","null","null","","<p style=""font-size: 48px;"">+</p>","3","Filler","",""
"","","","","","sentence","47711","html-keyboard-response","64","135205","0.0-6.0-1.7","80","3","2022-11-17 12:25:58","fd252370c17a9971d68c1d4354a03c2e","","Mozilla/5.0 (Macintosh; Intel Mac OS X 10_11_6) AppleWebKit/537.36 (KHTML, like Gecko) Chrome/103.0.0.0 Safari/537.36","Macintosh","Chrome","103.0.0.0","OS X","10_11_6","2811"," ","","A woman is paying with a debit card","3","Filler","",""
"","","","","","fixation","47711","html-keyboard-response","65","135710","0.0-6.0-2.7","80","3","2022-11-17 12:25:58","fd252370c17a9971d68c1d4354a03c2e","","Mozilla/5.0 (Macintosh; Intel Mac OS X 10_11_6) AppleWebKit/537.36 (KHTML, like Gecko) Chrome/103.0.0.0 Safari/537.36","Macintosh","Chrome","103.0.0.0","OS X","10_11_6","null","null","","<p style=""font-size: 48px;"">+</p>","3","Filler","",""
"","","","","","picture","47711","image-keyboard-response","66","137158","0.0-6.0-3.7","80","3","2022-11-17 12:25:58","fd252370c17a9971d68c1d4354a03c2e","","Mozilla/5.0 (Macintosh; Intel Mac OS X 10_11_6) AppleWebKit/537.36 (KHTML, like Gecko) Chrome/103.0.0.0 Safari/537.36","Macintosh","Chrome","103.0.0.0","OS X","10_11_6","1441","n","","papercup.jpg","3","Filler","true",""
"","","","","","fixation","47711","html-keyboard-response","67","138167","0.0-6.0-0.8","80","3","2022-11-17 12:25:58","fd252370c17a9971d68c1d4354a03c2e","","Mozilla/5.0 (Macintosh; Intel Mac OS X 10_11_6) AppleWebKit/537.36 (KHTML, like Gecko) Chrome/103.0.0.0 Safari/537.36","Macintosh","Chrome","103.0.0.0","OS X","10_11_6","null","null","","<p style=""font-size: 48px;"">+</p>","3","Filler","",""
"","","","","","sentence","47711","html-keyboard-response","68","140711","0.0-6.0-1.8","80","3","2022-11-17 12:25:58","fd252370c17a9971d68c1d4354a03c2e","","Mozilla/5.0 (Macintosh; Intel Mac OS X 10_11_6) AppleWebKit/537.36 (KHTML, like Gecko) Chrome/103.0.0.0 Safari/537.36","Macintosh","Chrome","103.0.0.0","OS X","10_11_6","2540"," ","","A thermometer was placed on the box","3","Filler","",""
"","","","","","fixation","47711","html-keyboard-response","69","141216","0.0-6.0-2.8","80","3","2022-11-17 12:25:58","fd252370c17a9971d68c1d4354a03c2e","","Mozilla/5.0 (Macintosh; Intel Mac OS X 10_11_6) AppleWebKit/537.36 (KHTML, like Gecko) Chrome/103.0.0.0 Safari/537.36","Macintosh","Chrome","103.0.0.0","OS X","10_11_6","null","null","","<p style=""font-size: 48px;"">+</p>","3","Filler","",""
"","","","","","picture","47711","image-keyboard-response","70","142779","0.0-6.0-3.8","80","3","2022-11-17 12:25:58","fd252370c17a9971d68c1d4354a03c2e","","Mozilla/5.0 (Macintosh; Intel Mac OS X 10_11_6) AppleWebKit/537.36 (KHTML, like Gecko) Chrome/103.0.0.0 Safari/537.36","Macintosh","Chrome","103.0.0.0","OS X","10_11_6","1555","n","","button.jpg","3","Filler","true",""
"","","","","","fixation","47711","html-keyboard-response","71","143787","0.0-6.0-0.9","80","3","2022-11-17 12:25:58","fd252370c17a9971d68c1d4354a03c2e","","Mozilla/5.0 (Macintosh; Intel Mac OS X 10_11_6) AppleWebKit/537.36 (KHTML, like Gecko) Chrome/103.0.0.0 Safari/537.36","Macintosh","Chrome","103.0.0.0","OS X","10_11_6","null","null","","<p style=""font-size: 48px;"">+</p>","3","Filler","",""
"","","","","","sentence","47711","html-keyboard-response","72","145333","0.0-6.0-1.9","80","3","2022-11-17 12:25:58","fd252370c17a9971d68c1d4354a03c2e","","Mozilla/5.0 (Macintosh; Intel Mac OS X 10_11_6) AppleWebKit/537.36 (KHTML, like Gecko) Chrome/103.0.0.0 Safari/537.36","Macintosh","Chrome","103.0.0.0","OS X","10_11_6","1542"," ","","A hairdresser is taking scissors","3","Filler","",""
"","","","","","fixation","47711","html-keyboard-response","73","145838","0.0-6.0-2.9","80","3","2022-11-17 12:25:58","fd252370c17a9971d68c1d4354a03c2e","","Mozilla/5.0 (Macintosh; Intel Mac OS X 10_11_6) AppleWebKit/537.36 (KHTML, like Gecko) Chrome/103.0.0.0 Safari/537.36","Macintosh","Chrome","103.0.0.0","OS X","10_11_6","null","null","","<p style=""font-size: 48px;"">+</p>","3","Filler","",""
"","","","","","picture","47711","image-keyboard-response","74","146760","0.0-6.0-3.9","80","3","2022-11-17 12:25:58","fd252370c17a9971d68c1d4354a03c2e","","Mozilla/5.0 (Macintosh; Intel Mac OS X 10_11_6) AppleWebKit/537.36 (KHTML, like Gecko) Chrome/103.0.0.0 Safari/537.36","Macintosh","Chrome","103.0.0.0","OS X","10_11_6","915","n","","sock.jpg","3","Filler","true",""
"","","","","","fixation","47711","html-keyboard-response","75","147769","0.0-6.0-0.10","80","3","2022-11-17 12:25:58","fd252370c17a9971d68c1d4354a03c2e","","Mozilla/5.0 (Macintosh; Intel Mac OS X 10_11_6) AppleWebKit/537.36 (KHTML, like Gecko) Chrome/103.0.0.0 Safari/537.36","Macintosh","Chrome","103.0.0.0","OS X","10_11_6","null","null","","<p style=""font-size: 48px;"">+</p>","3","Filler","",""
"","","","","","sentence","47711","html-keyboard-response","76","149064","0.0-6.0-1.10","80","3","2022-11-17 12:25:58","fd252370c17a9971d68c1d4354a03c2e","","Mozilla/5.0 (Macintosh; Intel Mac OS X 10_11_6) AppleWebKit/537.36 (KHTML, like Gecko) Chrome/103.0.0.0 Safari/537.36","Macintosh","Chrome","103.0.0.0","OS X","10_11_6","1291"," ","","A horse is chewing hay","3","Filler","",""
"","","","","","fixation","47711","html-keyboard-response","77","149570","0.0-6.0-2.10","80","3","2022-11-17 12:25:58","fd252370c17a9971d68c1d4354a03c2e","","Mozilla/5.0 (Macintosh; Intel Mac OS X 10_11_6) AppleWebKit/537.36 (KHTML, like Gecko) Chrome/103.0.0.0 Safari/537.36","Macintosh","Chrome","103.0.0.0","OS X","10_11_6","null","null","","<p style=""font-size: 48px;"">+</p>","3","Filler","",""
"","","","","","picture","47711","image-keyboard-response","78","152341","0.0-6.0-3.10","80","3","2022-11-17 12:25:58","fd252370c17a9971d68c1d4354a03c2e","","Mozilla/5.0 (Macintosh; Intel Mac OS X 10_11_6) AppleWebKit/537.36 (KHTML, like Gecko) Chrome/103.0.0.0 Safari/537.36","Macintosh","Chrome","103.0.0.0","OS X","10_11_6","2763","n","","purse.jpg","3","Filler","true",""
"","","","","","fixation","47711","html-keyboard-response","79","153349","0.0-6.0-0.11","80","3","2022-11-17 12:25:58","fd252370c17a9971d68c1d4354a03c2e","","Mozilla/5.0 (Macintosh; Intel Mac OS X 10_11_6) AppleWebKit/537.36 (KHTML, like Gecko) Chrome/103.0.0.0 Safari/537.36","Macintosh","Chrome","103.0.0.0","OS X","10_11_6","null","null","","<p style=""font-size: 48px;"">+</p>","3","Filler","",""
"","","","","","sentence","47711","html-keyboard-response","80","154940","0.0-6.0-1.11","80","3","2022-11-17 12:25:58","fd252370c17a9971d68c1d4354a03c2e","","Mozilla/5.0 (Macintosh; Intel Mac OS X 10_11_6) AppleWebKit/537.36 (KHTML, like Gecko) Chrome/103.0.0.0 Safari/537.36","Macintosh","Chrome","103.0.0.0","OS X","10_11_6","1588"," ","","A doctor is taking a stethoscope","3","Filler","",""
"","","","","","fixation","47711","html-keyboard-response","81","155446","0.0-6.0-2.11","80","3","2022-11-17 12:25:58","fd252370c17a9971d68c1d4354a03c2e","","Mozilla/5.0 (Macintosh; Intel Mac OS X 10_11_6) AppleWebKit/537.36 (KHTML, like Gecko) Chrome/103.0.0.0 Safari/537.36","Macintosh","Chrome","103.0.0.0","OS X","10_11_6","null","null","","<p style=""font-size: 48px;"">+</p>","3","Filler","",""
"","","","","","picture","47711","image-keyboard-response","82","157274","0.0-6.0-3.11","80","3","2022-11-17 12:25:58","fd252370c17a9971d68c1d4354a03c2e","","Mozilla/5.0 (Macintosh; Intel Mac OS X 10_11_6) AppleWebKit/537.36 (KHTML, like Gecko) Chrome/103.0.0.0 Safari/537.36","Macintosh","Chrome","103.0.0.0","OS X","10_11_6","1819","n","","matchesbox.jpg","3","Filler","true",""
"","","","","","fixation","47711","html-keyboard-response","83","158283","0.0-6.0-0.12","80","3","2022-11-17 12:25:58","fd252370c17a9971d68c1d4354a03c2e","","Mozilla/5.0 (Macintosh; Intel Mac OS X 10_11_6) AppleWebKit/537.36 (KHTML, like Gecko) Chrome/103.0.0.0 Safari/537.36","Macintosh","Chrome","103.0.0.0","OS X","10_11_6","null","null","","<p style=""font-size: 48px;"">+</p>","3","Filler","",""
"","","","","","sentence","47711","html-keyboard-response","84","159352","0.0-6.0-1.12","80","3","2022-11-17 12:25:58","fd252370c17a9971d68c1d4354a03c2e","","Mozilla/5.0 (Macintosh; Intel Mac OS X 10_11_6) AppleWebKit/537.36 (KHTML, like Gecko) Chrome/103.0.0.0 Safari/537.36","Macintosh","Chrome","103.0.0.0","OS X","10_11_6","1064"," ","","A parrot is eating an apple","3","Filler","",""
"","","","","","fixation","47711","html-keyboard-response","85","159858","0.0-6.0-2.12","80","3","2022-11-17 12:25:58","fd252370c17a9971d68c1d4354a03c2e","","Mozilla/5.0 (Macintosh; Intel Mac OS X 10_11_6) AppleWebKit/537.36 (KHTML, like Gecko) Chrome/103.0.0.0 Safari/537.36","Macintosh","Chrome","103.0.0.0","OS X","10_11_6","null","null","","<p style=""font-size: 48px;"">+</p>","3","Filler","",""
"","","","","","picture","47711","image-keyboard-response","86","161609","0.0-6.0-3.12","80","3","2022-11-17 12:25:58","fd252370c17a9971d68c1d4354a03c2e","","Mozilla/5.0 (Macintosh; Intel Mac OS X 10_11_6) AppleWebKit/537.36 (KHTML, like Gecko) Chrome/103.0.0.0 Safari/537.36","Macintosh","Chrome","103.0.0.0","OS X","10_11_6","1742","n","","shirt.jpg","3","Filler","true",""
"","","","","","fixation","47711","html-keyboard-response","87","162619","0.0-6.0-0.13","80","3","2022-11-17 12:25:58","fd252370c17a9971d68c1d4354a03c2e","","Mozilla/5.0 (Macintosh; Intel Mac OS X 10_11_6) AppleWebKit/537.36 (KHTML, like Gecko) Chrome/103.0.0.0 Safari/537.36","Macintosh","Chrome","103.0.0.0","OS X","10_11_6","null","null","","<p style=""font-size: 48px;"">+</p>","3","Light_Contradictory","",""
"","","","","","sentence","47711","html-keyboard-response","88","164592","0.0-6.0-1.13","80","3","2022-11-17 12:25:58","fd252370c17a9971d68c1d4354a03c2e","","Mozilla/5.0 (Macintosh; Intel Mac OS X 10_11_6) AppleWebKit/537.36 (KHTML, like Gecko) Chrome/103.0.0.0 Safari/537.36","Macintosh","Chrome","103.0.0.0","OS X","10_11_6","1968"," ","","A balloon dropped and smashed glasses","3","Light_Contradictory","",""
"","","","","","fixation","47711","html-keyboard-response","89","165098","0.0-6.0-2.13","80","3","2022-11-17 12:25:58","fd252370c17a9971d68c1d4354a03c2e","","Mozilla/5.0 (Macintosh; Intel Mac OS X 10_11_6) AppleWebKit/537.36 (KHTML, like Gecko) Chrome/103.0.0.0 Safari/537.36","Macintosh","Chrome","103.0.0.0","OS X","10_11_6","null","null","","<p style=""font-size: 48px;"">+</p>","3","Light_Contradictory","",""
"","","","","","picture","47711","image-keyboard-response","90","166460","0.0-6.0-3.13","80","3","2022-11-17 12:25:58","fd252370c17a9971d68c1d4354a03c2e","","Mozilla/5.0 (Macintosh; Intel Mac OS X 10_11_6) AppleWebKit/537.36 (KHTML, like Gecko) Chrome/103.0.0.0 Safari/537.36","Macintosh","Chrome","103.0.0.0","OS X","10_11_6","1353","s","","glassesS.jpg","3","Light_Contradictory","true",""
"","","","","","fixation","47711","html-keyboard-response","91","167470","0.0-6.0-0.14","80","3","2022-11-17 12:25:58","fd252370c17a9971d68c1d4354a03c2e","","Mozilla/5.0 (Macintosh; Intel Mac OS X 10_11_6) AppleWebKit/537.36 (KHTML, like Gecko) Chrome/103.0.0.0 Safari/537.36","Macintosh","Chrome","103.0.0.0","OS X","10_11_6","null","null","","<p style=""font-size: 48px;"">+</p>","3","Heavy_Matched","",""
"","","","","","sentence","47711","html-keyboard-response","92","169064","0.0-6.0-1.14","80","3","2022-11-17 12:25:58","fd252370c17a9971d68c1d4354a03c2e","","Mozilla/5.0 (Macintosh; Intel Mac OS X 10_11_6) AppleWebKit/537.36 (KHTML, like Gecko) Chrome/103.0.0.0 Safari/537.36","Macintosh","Chrome","103.0.0.0","OS X","10_11_6","1550"," ","","A bowling ball dropped and smashed a light bulb","3","Heavy_Matched","",""
"","","","","","fixation","47711","html-keyboard-response","93","169570","0.0-6.0-2.14","80","3","2022-11-17 12:25:58","fd252370c17a9971d68c1d4354a03c2e","","Mozilla/5.0 (Macintosh; Intel Mac OS X 10_11_6) AppleWebKit/537.36 (KHTML, like Gecko) Chrome/103.0.0.0 Safari/537.36","Macintosh","Chrome","103.0.0.0","OS X","10_11_6","null","null","","<p style=""font-size: 48px;"">+</p>","3","Heavy_Matched","",""
"","","","","","picture","47711","image-keyboard-response","94","170801","0.0-6.0-3.14","80","3","2022-11-17 12:25:58","fd252370c17a9971d68c1d4354a03c2e","","Mozilla/5.0 (Macintosh; Intel Mac OS X 10_11_6) AppleWebKit/537.36 (KHTML, like Gecko) Chrome/103.0.0.0 Safari/537.36","Macintosh","Chrome","103.0.0.0","OS X","10_11_6","1221","s","","lampS.jpg","3","Heavy_Matched","true",""
"","","","","","fixation","47711","html-keyboard-response","95","171809","0.0-6.0-0.15","80","3","2022-11-17 12:25:58","fd252370c17a9971d68c1d4354a03c2e","","Mozilla/5.0 (Macintosh; Intel Mac OS X 10_11_6) AppleWebKit/537.36 (KHTML, like Gecko) Chrome/103.0.0.0 Safari/537.36","Macintosh","Chrome","103.0.0.0","OS X","10_11_6","null","null","","<p style=""font-size: 48px;"">+</p>","3","Filler","",""
"","","","","","sentence","47711","html-keyboard-response","96","173031","0.0-6.0-1.15","80","3","2022-11-17 12:25:58","fd252370c17a9971d68c1d4354a03c2e","","Mozilla/5.0 (Macintosh; Intel Mac OS X 10_11_6) AppleWebKit/537.36 (KHTML, like Gecko) Chrome/103.0.0.0 Safari/537.36","Macintosh","Chrome","103.0.0.0","OS X","10_11_6","1216"," ","","A panda is resting on a tree","3","Filler","",""
"","","","","","fixation","47711","html-keyboard-response","97","173537","0.0-6.0-2.15","80","3","2022-11-17 12:25:58","fd252370c17a9971d68c1d4354a03c2e","","Mozilla/5.0 (Macintosh; Intel Mac OS X 10_11_6) AppleWebKit/537.36 (KHTML, like Gecko) Chrome/103.0.0.0 Safari/537.36","Macintosh","Chrome","103.0.0.0","OS X","10_11_6","null","null","","<p style=""font-size: 48px;"">+</p>","3","Filler","",""
"","","","","","picture","47711","image-keyboard-response","98","174915","0.0-6.0-3.15","80","3","2022-11-17 12:25:58","fd252370c17a9971d68c1d4354a03c2e","","Mozilla/5.0 (Macintosh; Intel Mac OS X 10_11_6) AppleWebKit/537.36 (KHTML, like Gecko) Chrome/103.0.0.0 Safari/537.36","Macintosh","Chrome","103.0.0.0","OS X","10_11_6","1369","n","","dollar.jpg","3","Filler","true",""
"","","","","","fixation","47711","html-keyboard-response","99","175931","0.0-6.0-0.16","80","3","2022-11-17 12:25:58","fd252370c17a9971d68c1d4354a03c2e","","Mozilla/5.0 (Macintosh; Intel Mac OS X 10_11_6) AppleWebKit/537.36 (KHTML, like Gecko) Chrome/103.0.0.0 Safari/537.36","Macintosh","Chrome","103.0.0.0","OS X","10_11_6","null","null","","<p style=""font-size: 48px;"">+</p>","3","Filler","",""
"","","","","","sentence","47711","html-keyboard-response","100","176758","0.0-6.0-1.16","80","3","2022-11-17 12:25:58","fd252370c17a9971d68c1d4354a03c2e","","Mozilla/5.0 (Macintosh; Intel Mac OS X 10_11_6) AppleWebKit/537.36 (KHTML, like Gecko) Chrome/103.0.0.0 Safari/537.36","Macintosh","Chrome","103.0.0.0","OS X","10_11_6","823"," ","","A fork was placed on the plate","3","Filler","",""
"","","","","","fixation","47711","html-keyboard-response","101","177265","0.0-6.0-2.16","80","3","2022-11-17 12:25:58","fd252370c17a9971d68c1d4354a03c2e","","Mozilla/5.0 (Macintosh; Intel Mac OS X 10_11_6) AppleWebKit/537.36 (KHTML, like Gecko) Chrome/103.0.0.0 Safari/537.36","Macintosh","Chrome","103.0.0.0","OS X","10_11_6","null","null","","<p style=""font-size: 48px;"">+</p>","3","Filler","",""
"","","","","","picture","47711","image-keyboard-response","102","179011","0.0-6.0-3.16","80","3","2022-11-17 12:25:58","fd252370c17a9971d68c1d4354a03c2e","","Mozilla/5.0 (Macintosh; Intel Mac OS X 10_11_6) AppleWebKit/537.36 (KHTML, like Gecko) Chrome/103.0.0.0 Safari/537.36","Macintosh","Chrome","103.0.0.0","OS X","10_11_6","1737","s","","plate.jpg","3","Filler","true",""
"","","","","","fixation","47711","html-keyboard-response","103","180020","0.0-6.0-0.17","80","3","2022-11-17 12:25:58","fd252370c17a9971d68c1d4354a03c2e","","Mozilla/5.0 (Macintosh; Intel Mac OS X 10_11_6) AppleWebKit/537.36 (KHTML, like Gecko) Chrome/103.0.0.0 Safari/537.36","Macintosh","Chrome","103.0.0.0","OS X","10_11_6","null","null","","<p style=""font-size: 48px;"">+</p>","3","Light_Contradictory","",""
"","","","","","sentence","47711","html-keyboard-response","104","181545","0.0-6.0-1.17","80","3","2022-11-17 12:25:58","fd252370c17a9971d68c1d4354a03c2e","","Mozilla/5.0 (Macintosh; Intel Mac OS X 10_11_6) AppleWebKit/537.36 (KHTML, like Gecko) Chrome/103.0.0.0 Safari/537.36","Macintosh","Chrome","103.0.0.0","OS X","10_11_6","1519"," ","","A balloon dropped and smashed an iPAD","3","Light_Contradictory","",""
"","","","","","fixation","47711","html-keyboard-response","105","182052","0.0-6.0-2.17","80","3","2022-11-17 12:25:58","fd252370c17a9971d68c1d4354a03c2e","","Mozilla/5.0 (Macintosh; Intel Mac OS X 10_11_6) AppleWebKit/537.36 (KHTML, like Gecko) Chrome/103.0.0.0 Safari/537.36","Macintosh","Chrome","103.0.0.0","OS X","10_11_6","null","null","","<p style=""font-size: 48px;"">+</p>","3","Light_Contradictory","",""
"","","","","","picture","47711","image-keyboard-response","106","183474","0.0-6.0-3.17","80","3","2022-11-17 12:25:58","fd252370c17a9971d68c1d4354a03c2e","","Mozilla/5.0 (Macintosh; Intel Mac OS X 10_11_6) AppleWebKit/537.36 (KHTML, like Gecko) Chrome/103.0.0.0 Safari/537.36","Macintosh","Chrome","103.0.0.0","OS X","10_11_6","1413","s","","iPadS.jpg","3","Light_Contradictory","true",""
"","","","","","fixation","47711","html-keyboard-response","107","184483","0.0-6.0-0.18","80","3","2022-11-17 12:25:58","fd252370c17a9971d68c1d4354a03c2e","","Mozilla/5.0 (Macintosh; Intel Mac OS X 10_11_6) AppleWebKit/537.36 (KHTML, like Gecko) Chrome/103.0.0.0 Safari/537.36","Macintosh","Chrome","103.0.0.0","OS X","10_11_6","null","null","","<p style=""font-size: 48px;"">+</p>","3","Filler","",""
"","","","","","sentence","47711","html-keyboard-response","108","185822","0.0-6.0-1.18","80","3","2022-11-17 12:25:58","fd252370c17a9971d68c1d4354a03c2e","","Mozilla/5.0 (Macintosh; Intel Mac OS X 10_11_6) AppleWebKit/537.36 (KHTML, like Gecko) Chrome/103.0.0.0 Safari/537.36","Macintosh","Chrome","103.0.0.0","OS X","10_11_6","1332"," ","","A cabbage was placed on the table","3","Filler","",""
"","","","","","fixation","47711","html-keyboard-response","109","186330","0.0-6.0-2.18","80","3","2022-11-17 12:25:58","fd252370c17a9971d68c1d4354a03c2e","","Mozilla/5.0 (Macintosh; Intel Mac OS X 10_11_6) AppleWebKit/537.36 (KHTML, like Gecko) Chrome/103.0.0.0 Safari/537.36","Macintosh","Chrome","103.0.0.0","OS X","10_11_6","null","null","","<p style=""font-size: 48px;"">+</p>","3","Filler","",""
"","","","","","picture","47711","image-keyboard-response","110","187461","0.0-6.0-3.18","80","3","2022-11-17 12:25:58","fd252370c17a9971d68c1d4354a03c2e","","Mozilla/5.0 (Macintosh; Intel Mac OS X 10_11_6) AppleWebKit/537.36 (KHTML, like Gecko) Chrome/103.0.0.0 Safari/537.36","Macintosh","Chrome","103.0.0.0","OS X","10_11_6","1120","n","","ladder.jpg","3","Filler","true",""
"","","","","","fixation","47711","html-keyboard-response","111","188470","0.0-6.0-0.19","80","3","2022-11-17 12:25:58","fd252370c17a9971d68c1d4354a03c2e","","Mozilla/5.0 (Macintosh; Intel Mac OS X 10_11_6) AppleWebKit/537.36 (KHTML, like Gecko) Chrome/103.0.0.0 Safari/537.36","Macintosh","Chrome","103.0.0.0","OS X","10_11_6","null","null","","<p style=""font-size: 48px;"">+</p>","3","Heavy_Contradictory","",""
"","","","","","sentence","47711","html-keyboard-response","112","190817","0.0-6.0-1.19","80","3","2022-11-17 12:25:58","fd252370c17a9971d68c1d4354a03c2e","","Mozilla/5.0 (Macintosh; Intel Mac OS X 10_11_6) AppleWebKit/537.36 (KHTML, like Gecko) Chrome/103.0.0.0 Safari/537.36","Macintosh","Chrome","103.0.0.0","OS X","10_11_6","2341"," ","","A bowling ball dropped and touched a piece of sushi","3","Heavy_Contradictory","",""
"","","","","","fixation","47711","html-keyboard-response","113","191324","0.0-6.0-2.19","80","3","2022-11-17 12:25:58","fd252370c17a9971d68c1d4354a03c2e","","Mozilla/5.0 (Macintosh; Intel Mac OS X 10_11_6) AppleWebKit/537.36 (KHTML, like Gecko) Chrome/103.0.0.0 Safari/537.36","Macintosh","Chrome","103.0.0.0","OS X","10_11_6","null","null","","<p style=""font-size: 48px;"">+</p>","3","Heavy_Contradictory","",""
"","","","","","picture","47711","image-keyboard-response","114","192491","0.0-6.0-3.19","80","3","2022-11-17 12:25:58","fd252370c17a9971d68c1d4354a03c2e","","Mozilla/5.0 (Macintosh; Intel Mac OS X 10_11_6) AppleWebKit/537.36 (KHTML, like Gecko) Chrome/103.0.0.0 Safari/537.36","Macintosh","Chrome","103.0.0.0","OS X","10_11_6","1157","s","","sushiS.jpg","3","Heavy_Contradictory","true",""
"","","","","","fixation","47711","html-keyboard-response","115","193502","0.0-6.0-0.20","80","3","2022-11-17 12:25:58","fd252370c17a9971d68c1d4354a03c2e","","Mozilla/5.0 (Macintosh; Intel Mac OS X 10_11_6) AppleWebKit/537.36 (KHTML, like Gecko) Chrome/103.0.0.0 Safari/537.36","Macintosh","Chrome","103.0.0.0","OS X","10_11_6","null","null","","<p style=""font-size: 48px;"">+</p>","3","Filler","",""
"","","","","","sentence","47711","html-keyboard-response","116","195557","0.0-6.0-1.20","80","3","2022-11-17 12:25:58","fd252370c17a9971d68c1d4354a03c2e","","Mozilla/5.0 (Macintosh; Intel Mac OS X 10_11_6) AppleWebKit/537.36 (KHTML, like Gecko) Chrome/103.0.0.0 Safari/537.36","Macintosh","Chrome","103.0.0.0","OS X","10_11_6","2049"," ","","A ring was placed on the newspaper","3","Filler","",""
"","","","","","fixation","47711","html-keyboard-response","117","196065","0.0-6.0-2.20","80","3","2022-11-17 12:25:58","fd252370c17a9971d68c1d4354a03c2e","","Mozilla/5.0 (Macintosh; Intel Mac OS X 10_11_6) AppleWebKit/537.36 (KHTML, like Gecko) Chrome/103.0.0.0 Safari/537.36","Macintosh","Chrome","103.0.0.0","OS X","10_11_6","null","null","","<p style=""font-size: 48px;"">+</p>","3","Filler","",""
"","","","","","picture","47711","image-keyboard-response","118","197125","0.0-6.0-3.20","80","3","2022-11-17 12:25:58","fd252370c17a9971d68c1d4354a03c2e","","Mozilla/5.0 (Macintosh; Intel Mac OS X 10_11_6) AppleWebKit/537.36 (KHTML, like Gecko) Chrome/103.0.0.0 Safari/537.36","Macintosh","Chrome","103.0.0.0","OS X","10_11_6","1051","n","","cat.jpg","3","Filler","true",""
"","","","","","fixation","47711","html-keyboard-response","119","198136","0.0-6.0-0.21","80","3","2022-11-17 12:25:58","fd252370c17a9971d68c1d4354a03c2e","","Mozilla/5.0 (Macintosh; Intel Mac OS X 10_11_6) AppleWebKit/537.36 (KHTML, like Gecko) Chrome/103.0.0.0 Safari/537.36","Macintosh","Chrome","103.0.0.0","OS X","10_11_6","null","null","","<p style=""font-size: 48px;"">+</p>","3","Heavy_Matched","",""
"","","","","","sentence","47711","html-keyboard-response","120","200904","0.0-6.0-1.21","80","3","2022-11-17 12:25:58","fd252370c17a9971d68c1d4354a03c2e","","Mozilla/5.0 (Macintosh; Intel Mac OS X 10_11_6) AppleWebKit/537.36 (KHTML, like Gecko) Chrome/103.0.0.0 Safari/537.36","Macintosh","Chrome","103.0.0.0","OS X","10_11_6","2762"," ","","A bowling ball dropped and smashed an iPhone","3","Heavy_Matched","",""
"","","","","","fixation","47711","html-keyboard-response","121","201410","0.0-6.0-2.21","80","3","2022-11-17 12:25:58","fd252370c17a9971d68c1d4354a03c2e","","Mozilla/5.0 (Macintosh; Intel Mac OS X 10_11_6) AppleWebKit/537.36 (KHTML, like Gecko) Chrome/103.0.0.0 Safari/537.36","Macintosh","Chrome","103.0.0.0","OS X","10_11_6","null","null","","<p style=""font-size: 48px;"">+</p>","3","Heavy_Matched","",""
"","","","","","picture","47711","image-keyboard-response","122","202546","0.0-6.0-3.21","80","3","2022-11-17 12:25:58","fd252370c17a9971d68c1d4354a03c2e","","Mozilla/5.0 (Macintosh; Intel Mac OS X 10_11_6) AppleWebKit/537.36 (KHTML, like Gecko) Chrome/103.0.0.0 Safari/537.36","Macintosh","Chrome","103.0.0.0","OS X","10_11_6","1127","s","","iphoneS.png","3","Heavy_Matched","true",""
"","","","","","fixation","47711","html-keyboard-response","123","203557","0.0-6.0-0.22","80","3","2022-11-17 12:25:58","fd252370c17a9971d68c1d4354a03c2e","","Mozilla/5.0 (Macintosh; Intel Mac OS X 10_11_6) AppleWebKit/537.36 (KHTML, like Gecko) Chrome/103.0.0.0 Safari/537.36","Macintosh","Chrome","103.0.0.0","OS X","10_11_6","null","null","","<p style=""font-size: 48px;"">+</p>","3","Filler","",""
"","","","","","sentence","47711","html-keyboard-response","124","204523","0.0-6.0-1.22","80","3","2022-11-17 12:25:58","fd252370c17a9971d68c1d4354a03c2e","","Mozilla/5.0 (Macintosh; Intel Mac OS X 10_11_6) AppleWebKit/537.36 (KHTML, like Gecko) Chrome/103.0.0.0 Safari/537.36","Macintosh","Chrome","103.0.0.0","OS X","10_11_6","960"," ","","A mouse is eating cheese","3","Filler","",""
"","","","","","fixation","47711","html-keyboard-response","125","205030","0.0-6.0-2.22","80","3","2022-11-17 12:25:58","fd252370c17a9971d68c1d4354a03c2e","","Mozilla/5.0 (Macintosh; Intel Mac OS X 10_11_6) AppleWebKit/537.36 (KHTML, like Gecko) Chrome/103.0.0.0 Safari/537.36","Macintosh","Chrome","103.0.0.0","OS X","10_11_6","null","null","","<p style=""font-size: 48px;"">+</p>","3","Filler","",""
"","","","","","picture","47711","image-keyboard-response","126","206025","0.0-6.0-3.22","80","3","2022-11-17 12:25:58","fd252370c17a9971d68c1d4354a03c2e","","Mozilla/5.0 (Macintosh; Intel Mac OS X 10_11_6) AppleWebKit/537.36 (KHTML, like Gecko) Chrome/103.0.0.0 Safari/537.36","Macintosh","Chrome","103.0.0.0","OS X","10_11_6","986","n","","ring.jpg","3","Filler","true",""
"","","","","","fixation","47711","html-keyboard-response","127","207035","0.0-6.0-0.23","80","3","2022-11-17 12:25:58","fd252370c17a9971d68c1d4354a03c2e","","Mozilla/5.0 (Macintosh; Intel Mac OS X 10_11_6) AppleWebKit/537.36 (KHTML, like Gecko) Chrome/103.0.0.0 Safari/537.36","Macintosh","Chrome","103.0.0.0","OS X","10_11_6","null","null","","<p style=""font-size: 48px;"">+</p>","3","Heavy_Matched","",""
"","","","","","sentence","47711","html-keyboard-response","128","208373","0.0-6.0-1.23","80","3","2022-11-17 12:25:58","fd252370c17a9971d68c1d4354a03c2e","","Mozilla/5.0 (Macintosh; Intel Mac OS X 10_11_6) AppleWebKit/537.36 (KHTML, like Gecko) Chrome/103.0.0.0 Safari/537.36","Macintosh","Chrome","103.0.0.0","OS X","10_11_6","1332"," ","","A bowling ball dropped and smashed a donut","3","Heavy_Matched","",""
"","","","","","fixation","47711","html-keyboard-response","129","208881","0.0-6.0-2.23","80","3","2022-11-17 12:25:58","fd252370c17a9971d68c1d4354a03c2e","","Mozilla/5.0 (Macintosh; Intel Mac OS X 10_11_6) AppleWebKit/537.36 (KHTML, like Gecko) Chrome/103.0.0.0 Safari/537.36","Macintosh","Chrome","103.0.0.0","OS X","10_11_6","null","null","","<p style=""font-size: 48px;"">+</p>","3","Heavy_Matched","",""
"","","","","","picture","47711","image-keyboard-response","130","209863","0.0-6.0-3.23","80","3","2022-11-17 12:25:58","fd252370c17a9971d68c1d4354a03c2e","","Mozilla/5.0 (Macintosh; Intel Mac OS X 10_11_6) AppleWebKit/537.36 (KHTML, like Gecko) Chrome/103.0.0.0 Safari/537.36","Macintosh","Chrome","103.0.0.0","OS X","10_11_6","972","s","","donutS.jpg","3","Heavy_Matched","true",""
"","","","","","fixation","47711","html-keyboard-response","131","210874","0.0-6.0-0.24","80","3","2022-11-17 12:25:58","fd252370c17a9971d68c1d4354a03c2e","","Mozilla/5.0 (Macintosh; Intel Mac OS X 10_11_6) AppleWebKit/537.36 (KHTML, like Gecko) Chrome/103.0.0.0 Safari/537.36","Macintosh","Chrome","103.0.0.0","OS X","10_11_6","null","null","","<p style=""font-size: 48px;"">+</p>","3","Filler","",""
"","","","","","sentence","47711","html-keyboard-response","132","212073","0.0-6.0-1.24","80","3","2022-11-17 12:25:58","fd252370c17a9971d68c1d4354a03c2e","","Mozilla/5.0 (Macintosh; Intel Mac OS X 10_11_6) AppleWebKit/537.36 (KHTML, like Gecko) Chrome/103.0.0.0 Safari/537.36","Macintosh","Chrome","103.0.0.0","OS X","10_11_6","1193"," ","","A man is boiling potatoes.","3","Filler","",""
"","","","","","fixation","47711","html-keyboard-response","133","212583","0.0-6.0-2.24","80","3","2022-11-17 12:25:58","fd252370c17a9971d68c1d4354a03c2e","","Mozilla/5.0 (Macintosh; Intel Mac OS X 10_11_6) AppleWebKit/537.36 (KHTML, like Gecko) Chrome/103.0.0.0 Safari/537.36","Macintosh","Chrome","103.0.0.0","OS X","10_11_6","null","null","","<p style=""font-size: 48px;"">+</p>","3","Filler","",""
"","","","","","picture","47711","image-keyboard-response","134","213403","0.0-6.0-3.24","80","3","2022-11-17 12:25:58","fd252370c17a9971d68c1d4354a03c2e","","Mozilla/5.0 (Macintosh; Intel Mac OS X 10_11_6) AppleWebKit/537.36 (KHTML, like Gecko) Chrome/103.0.0.0 Safari/537.36","Macintosh","Chrome","103.0.0.0","OS X","10_11_6","810","n","","cup.jpg","3","Filler","true",""
"","","","","","fixation","47711","html-keyboard-response","135","214414","0.0-6.0-0.25","80","3","2022-11-17 12:25:58","fd252370c17a9971d68c1d4354a03c2e","","Mozilla/5.0 (Macintosh; Intel Mac OS X 10_11_6) AppleWebKit/537.36 (KHTML, like Gecko) Chrome/103.0.0.0 Safari/537.36","Macintosh","Chrome","103.0.0.0","OS X","10_11_6","null","null","","<p style=""font-size: 48px;"">+</p>","3","Filler","",""
"","","","","","sentence","47711","html-keyboard-response","136","215841","0.0-6.0-1.25","80","3","2022-11-17 12:25:58","fd252370c17a9971d68c1d4354a03c2e","","Mozilla/5.0 (Macintosh; Intel Mac OS X 10_11_6) AppleWebKit/537.36 (KHTML, like Gecko) Chrome/103.0.0.0 Safari/537.36","Macintosh","Chrome","103.0.0.0","OS X","10_11_6","1421"," ","","An owl is sitting on the branch","3","Filler","",""
"","","","","","fixation","47711","html-keyboard-response","137","216350","0.0-6.0-2.25","80","3","2022-11-17 12:25:58","fd252370c17a9971d68c1d4354a03c2e","","Mozilla/5.0 (Macintosh; Intel Mac OS X 10_11_6) AppleWebKit/537.36 (KHTML, like Gecko) Chrome/103.0.0.0 Safari/537.36","Macintosh","Chrome","103.0.0.0","OS X","10_11_6","null","null","","<p style=""font-size: 48px;"">+</p>","3","Filler","",""
"","","","","","picture","47711","image-keyboard-response","138","217132","0.0-6.0-3.25","80","3","2022-11-17 12:25:58","fd252370c17a9971d68c1d4354a03c2e","","Mozilla/5.0 (Macintosh; Intel Mac OS X 10_11_6) AppleWebKit/537.36 (KHTML, like Gecko) Chrome/103.0.0.0 Safari/537.36","Macintosh","Chrome","103.0.0.0","OS X","10_11_6","772","n","","rubberduck.jpg","3","Filler","true",""
"","","","","","fixation","47711","html-keyboard-response","139","218143","0.0-6.0-0.26","80","3","2022-11-17 12:25:58","fd252370c17a9971d68c1d4354a03c2e","","Mozilla/5.0 (Macintosh; Intel Mac OS X 10_11_6) AppleWebKit/537.36 (KHTML, like Gecko) Chrome/103.0.0.0 Safari/537.36","Macintosh","Chrome","103.0.0.0","OS X","10_11_6","null","null","","<p style=""font-size: 48px;"">+</p>","3","Light_Matched","",""
"","","","","","sentence","47711","html-keyboard-response","140","219482","0.0-6.0-1.26","80","3","2022-11-17 12:25:58","fd252370c17a9971d68c1d4354a03c2e","","Mozilla/5.0 (Macintosh; Intel Mac OS X 10_11_6) AppleWebKit/537.36 (KHTML, like Gecko) Chrome/103.0.0.0 Safari/537.36","Macintosh","Chrome","103.0.0.0","OS X","10_11_6","1332"," ","","A balloon dropped and touched an egg","3","Light_Matched","",""
"","","","","","fixation","47711","html-keyboard-response","141","219989","0.0-6.0-2.26","80","3","2022-11-17 12:25:58","fd252370c17a9971d68c1d4354a03c2e","","Mozilla/5.0 (Macintosh; Intel Mac OS X 10_11_6) AppleWebKit/537.36 (KHTML, like Gecko) Chrome/103.0.0.0 Safari/537.36","Macintosh","Chrome","103.0.0.0","OS X","10_11_6","null","null","","<p style=""font-size: 48px;"">+</p>","3","Light_Matched","",""
"","","","","","picture","47711","image-keyboard-response","142","220907","0.0-6.0-3.26","80","3","2022-11-17 12:25:58","fd252370c17a9971d68c1d4354a03c2e","","Mozilla/5.0 (Macintosh; Intel Mac OS X 10_11_6) AppleWebKit/537.36 (KHTML, like Gecko) Chrome/103.0.0.0 Safari/537.36","Macintosh","Chrome","103.0.0.0","OS X","10_11_6","907","s","","eggS.jpg","3","Light_Matched","true",""
"","","","","","fixation","47711","html-keyboard-response","143","221918","0.0-6.0-0.27","80","3","2022-11-17 12:25:58","fd252370c17a9971d68c1d4354a03c2e","","Mozilla/5.0 (Macintosh; Intel Mac OS X 10_11_6) AppleWebKit/537.36 (KHTML, like Gecko) Chrome/103.0.0.0 Safari/537.36","Macintosh","Chrome","103.0.0.0","OS X","10_11_6","null","null","","<p style=""font-size: 48px;"">+</p>","3","Filler","",""
"","","","","","sentence","47711","html-keyboard-response","144","223848","0.0-6.0-1.27","80","3","2022-11-17 12:25:58","fd252370c17a9971d68c1d4354a03c2e","","Mozilla/5.0 (Macintosh; Intel Mac OS X 10_11_6) AppleWebKit/537.36 (KHTML, like Gecko) Chrome/103.0.0.0 Safari/537.36","Macintosh","Chrome","103.0.0.0","OS X","10_11_6","1923"," ","","A dentist is drinking a can of cola","3","Filler","",""
"","","","","","fixation","47711","html-keyboard-response","145","224357","0.0-6.0-2.27","80","3","2022-11-17 12:25:58","fd252370c17a9971d68c1d4354a03c2e","","Mozilla/5.0 (Macintosh; Intel Mac OS X 10_11_6) AppleWebKit/537.36 (KHTML, like Gecko) Chrome/103.0.0.0 Safari/537.36","Macintosh","Chrome","103.0.0.0","OS X","10_11_6","null","null","","<p style=""font-size: 48px;"">+</p>","3","Filler","",""
"","","","","","picture","47711","image-keyboard-response","146","225467","0.0-6.0-3.27","80","3","2022-11-17 12:25:58","fd252370c17a9971d68c1d4354a03c2e","","Mozilla/5.0 (Macintosh; Intel Mac OS X 10_11_6) AppleWebKit/537.36 (KHTML, like Gecko) Chrome/103.0.0.0 Safari/537.36","Macintosh","Chrome","103.0.0.0","OS X","10_11_6","1100","n","","doll.jpg","3","Filler","true",""
"","","","","","fixation","47711","html-keyboard-response","147","226477","0.0-6.0-0.28","80","3","2022-11-17 12:25:58","fd252370c17a9971d68c1d4354a03c2e","","Mozilla/5.0 (Macintosh; Intel Mac OS X 10_11_6) AppleWebKit/537.36 (KHTML, like Gecko) Chrome/103.0.0.0 Safari/537.36","Macintosh","Chrome","103.0.0.0","OS X","10_11_6","null","null","","<p style=""font-size: 48px;"">+</p>","3","Filler","",""
"","","","","","sentence","47711","html-keyboard-response","148","227530","0.0-6.0-1.28","80","3","2022-11-17 12:25:58","fd252370c17a9971d68c1d4354a03c2e","","Mozilla/5.0 (Macintosh; Intel Mac OS X 10_11_6) AppleWebKit/537.36 (KHTML, like Gecko) Chrome/103.0.0.0 Safari/537.36","Macintosh","Chrome","103.0.0.0","OS X","10_11_6","1046"," ","","A watch was placed on the laptop","3","Filler","",""
"","","","","","fixation","47711","html-keyboard-response","149","228038","0.0-6.0-2.28","80","3","2022-11-17 12:25:58","fd252370c17a9971d68c1d4354a03c2e","","Mozilla/5.0 (Macintosh; Intel Mac OS X 10_11_6) AppleWebKit/537.36 (KHTML, like Gecko) Chrome/103.0.0.0 Safari/537.36","Macintosh","Chrome","103.0.0.0","OS X","10_11_6","null","null","","<p style=""font-size: 48px;"">+</p>","3","Filler","",""
"","","","","","picture","47711","image-keyboard-response","150","228898","0.0-6.0-3.28","80","3","2022-11-17 12:25:58","fd252370c17a9971d68c1d4354a03c2e","","Mozilla/5.0 (Macintosh; Intel Mac OS X 10_11_6) AppleWebKit/537.36 (KHTML, like Gecko) Chrome/103.0.0.0 Safari/537.36","Macintosh","Chrome","103.0.0.0","OS X","10_11_6","849","n","","bow.jpg","3","Filler","true",""
"","","","","","fixation","47711","html-keyboard-response","151","229909","0.0-6.0-0.29","80","3","2022-11-17 12:25:58","fd252370c17a9971d68c1d4354a03c2e","","Mozilla/5.0 (Macintosh; Intel Mac OS X 10_11_6) AppleWebKit/537.36 (KHTML, like Gecko) Chrome/103.0.0.0 Safari/537.36","Macintosh","Chrome","103.0.0.0","OS X","10_11_6","null","null","","<p style=""font-size: 48px;"">+</p>","3","Filler","",""
"","","","","","sentence","47711","html-keyboard-response","152","231047","0.0-6.0-1.29","80","3","2022-11-17 12:25:58","fd252370c17a9971d68c1d4354a03c2e","","Mozilla/5.0 (Macintosh; Intel Mac OS X 10_11_6) AppleWebKit/537.36 (KHTML, like Gecko) Chrome/103.0.0.0 Safari/537.36","Macintosh","Chrome","103.0.0.0","OS X","10_11_6","1131"," ","","A butterfly is sitting on a flower","3","Filler","",""
"","","","","","fixation","47711","html-keyboard-response","153","231555","0.0-6.0-2.29","80","3","2022-11-17 12:25:58","fd252370c17a9971d68c1d4354a03c2e","","Mozilla/5.0 (Macintosh; Intel Mac OS X 10_11_6) AppleWebKit/537.36 (KHTML, like Gecko) Chrome/103.0.0.0 Safari/537.36","Macintosh","Chrome","103.0.0.0","OS X","10_11_6","null","null","","<p style=""font-size: 48px;"">+</p>","3","Filler","",""
"","","","","","picture","47711","image-keyboard-response","154","233018","0.0-6.0-3.29","80","3","2022-11-17 12:25:58","fd252370c17a9971d68c1d4354a03c2e","","Mozilla/5.0 (Macintosh; Intel Mac OS X 10_11_6) AppleWebKit/537.36 (KHTML, like Gecko) Chrome/103.0.0.0 Safari/537.36","Macintosh","Chrome","103.0.0.0","OS X","10_11_6","1452","n","","soap.jpg","3","Filler","true",""
"","","","","","fixation","47711","html-keyboard-response","155","234029","0.0-6.0-0.30","80","3","2022-11-17 12:25:58","fd252370c17a9971d68c1d4354a03c2e","","Mozilla/5.0 (Macintosh; Intel Mac OS X 10_11_6) AppleWebKit/537.36 (KHTML, like Gecko) Chrome/103.0.0.0 Safari/537.36","Macintosh","Chrome","103.0.0.0","OS X","10_11_6","null","null","","<p style=""font-size: 48px;"">+</p>","3","Light_Matched","",""
"","","","","","sentence","47711","html-keyboard-response","156","235595","0.0-6.0-1.30","80","3","2022-11-17 12:25:58","fd252370c17a9971d68c1d4354a03c2e","","Mozilla/5.0 (Macintosh; Intel Mac OS X 10_11_6) AppleWebKit/537.36 (KHTML, like Gecko) Chrome/103.0.0.0 Safari/537.36","Macintosh","Chrome","103.0.0.0","OS X","10_11_6","1558"," ","","A balloon dropped and touched a porcelain figure","3","Light_Matched","",""
"","","","","","fixation","47711","html-keyboard-response","157","236104","0.0-6.0-2.30","80","3","2022-11-17 12:25:58","fd252370c17a9971d68c1d4354a03c2e","","Mozilla/5.0 (Macintosh; Intel Mac OS X 10_11_6) AppleWebKit/537.36 (KHTML, like Gecko) Chrome/103.0.0.0 Safari/537.36","Macintosh","Chrome","103.0.0.0","OS X","10_11_6","null","null","","<p style=""font-size: 48px;"">+</p>","3","Light_Matched","",""
"","","","","","picture","47711","image-keyboard-response","158","237986","0.0-6.0-3.30","80","3","2022-11-17 12:25:58","fd252370c17a9971d68c1d4354a03c2e","","Mozilla/5.0 (Macintosh; Intel Mac OS X 10_11_6) AppleWebKit/537.36 (KHTML, like Gecko) Chrome/103.0.0.0 Safari/537.36","Macintosh","Chrome","103.0.0.0","OS X","10_11_6","1871","s","","figureS.jpg","3","Light_Matched","true",""
"","","","","","fixation","47711","html-keyboard-response","159","238996","0.0-6.0-0.31","80","3","2022-11-17 12:25:58","fd252370c17a9971d68c1d4354a03c2e","","Mozilla/5.0 (Macintosh; Intel Mac OS X 10_11_6) AppleWebKit/537.36 (KHTML, like Gecko) Chrome/103.0.0.0 Safari/537.36","Macintosh","Chrome","103.0.0.0","OS X","10_11_6","null","null","","<p style=""font-size: 48px;"">+</p>","3","Heavy_Contradictory","",""
"","","","","","sentence","47711","html-keyboard-response","160","240281","0.0-6.0-1.31","80","3","2022-11-17 12:25:58","fd252370c17a9971d68c1d4354a03c2e","","Mozilla/5.0 (Macintosh; Intel Mac OS X 10_11_6) AppleWebKit/537.36 (KHTML, like Gecko) Chrome/103.0.0.0 Safari/537.36","Macintosh","Chrome","103.0.0.0","OS X","10_11_6","1276"," ","","A bowling ball dropped and touched a tile","3","Heavy_Contradictory","",""
"","","","","","fixation","47711","html-keyboard-response","161","240790","0.0-6.0-2.31","80","3","2022-11-17 12:25:58","fd252370c17a9971d68c1d4354a03c2e","","Mozilla/5.0 (Macintosh; Intel Mac OS X 10_11_6) AppleWebKit/537.36 (KHTML, like Gecko) Chrome/103.0.0.0 Safari/537.36","Macintosh","Chrome","103.0.0.0","OS X","10_11_6","null","null","","<p style=""font-size: 48px;"">+</p>","3","Heavy_Contradictory","",""
"","","","","","picture","47711","image-keyboard-response","162","242195","0.0-6.0-3.31","80","3","2022-11-17 12:25:58","fd252370c17a9971d68c1d4354a03c2e","","Mozilla/5.0 (Macintosh; Intel Mac OS X 10_11_6) AppleWebKit/537.36 (KHTML, like Gecko) Chrome/103.0.0.0 Safari/537.36","Macintosh","Chrome","103.0.0.0","OS X","10_11_6","1395","s","","tileS.jpg","3","Heavy_Contradictory","true",""
"","","","","","fixation","47711","html-keyboard-response","163","243207","0.0-6.0-0.32","80","3","2022-11-17 12:25:58","fd252370c17a9971d68c1d4354a03c2e","","Mozilla/5.0 (Macintosh; Intel Mac OS X 10_11_6) AppleWebKit/537.36 (KHTML, like Gecko) Chrome/103.0.0.0 Safari/537.36","Macintosh","Chrome","103.0.0.0","OS X","10_11_6","null","null","","<p style=""font-size: 48px;"">+</p>","3","Heavy_Matched","",""
"","","","","","sentence","47711","html-keyboard-response","164","244299","0.0-6.0-1.32","80","3","2022-11-17 12:25:58","fd252370c17a9971d68c1d4354a03c2e","","Mozilla/5.0 (Macintosh; Intel Mac OS X 10_11_6) AppleWebKit/537.36 (KHTML, like Gecko) Chrome/103.0.0.0 Safari/537.36","Macintosh","Chrome","103.0.0.0","OS X","10_11_6","1085"," ","","A bowling ball dropped and smashed a mirror","3","Heavy_Matched","",""
"","","","","","fixation","47711","html-keyboard-response","165","244806","0.0-6.0-2.32","80","3","2022-11-17 12:25:58","fd252370c17a9971d68c1d4354a03c2e","","Mozilla/5.0 (Macintosh; Intel Mac OS X 10_11_6) AppleWebKit/537.36 (KHTML, like Gecko) Chrome/103.0.0.0 Safari/537.36","Macintosh","Chrome","103.0.0.0","OS X","10_11_6","null","null","","<p style=""font-size: 48px;"">+</p>","3","Heavy_Matched","",""
"","","","","","picture","47711","image-keyboard-response","166","245666","0.0-6.0-3.32","80","3","2022-11-17 12:25:58","fd252370c17a9971d68c1d4354a03c2e","","Mozilla/5.0 (Macintosh; Intel Mac OS X 10_11_6) AppleWebKit/537.36 (KHTML, like Gecko) Chrome/103.0.0.0 Safari/537.36","Macintosh","Chrome","103.0.0.0","OS X","10_11_6","849","s","","mirrorS.jpg","3","Heavy_Matched","true",""
"","","","","","fixation","47711","html-keyboard-response","167","246677","0.0-6.0-0.33","80","3","2022-11-17 12:25:58","fd252370c17a9971d68c1d4354a03c2e","","Mozilla/5.0 (Macintosh; Intel Mac OS X 10_11_6) AppleWebKit/537.36 (KHTML, like Gecko) Chrome/103.0.0.0 Safari/537.36","Macintosh","Chrome","103.0.0.0","OS X","10_11_6","null","null","","<p style=""font-size: 48px;"">+</p>","3","Filler","",""
"","","","","","sentence","47711","html-keyboard-response","168","247704","0.0-6.0-1.33","80","3","2022-11-17 12:25:58","fd252370c17a9971d68c1d4354a03c2e","","Mozilla/5.0 (Macintosh; Intel Mac OS X 10_11_6) AppleWebKit/537.36 (KHTML, like Gecko) Chrome/103.0.0.0 Safari/537.36","Macintosh","Chrome","103.0.0.0","OS X","10_11_6","1020"," ","","A puppy is playing with a ball","3","Filler","",""
"","","","","","fixation","47711","html-keyboard-response","169","248214","0.0-6.0-2.33","80","3","2022-11-17 12:25:58","fd252370c17a9971d68c1d4354a03c2e","","Mozilla/5.0 (Macintosh; Intel Mac OS X 10_11_6) AppleWebKit/537.36 (KHTML, like Gecko) Chrome/103.0.0.0 Safari/537.36","Macintosh","Chrome","103.0.0.0","OS X","10_11_6","null","null","","<p style=""font-size: 48px;"">+</p>","3","Filler","",""
"","","","","","picture","47711","image-keyboard-response","170","250013","0.0-6.0-3.33","80","3","2022-11-17 12:25:58","fd252370c17a9971d68c1d4354a03c2e","","Mozilla/5.0 (Macintosh; Intel Mac OS X 10_11_6) AppleWebKit/537.36 (KHTML, like Gecko) Chrome/103.0.0.0 Safari/537.36","Macintosh","Chrome","103.0.0.0","OS X","10_11_6","1789","s","","tennisball.jpg","3","Filler","true",""
"","","","","","fixation","47711","html-keyboard-response","171","251024","0.0-6.0-0.34","80","3","2022-11-17 12:25:58","fd252370c17a9971d68c1d4354a03c2e","","Mozilla/5.0 (Macintosh; Intel Mac OS X 10_11_6) AppleWebKit/537.36 (KHTML, like Gecko) Chrome/103.0.0.0 Safari/537.36","Macintosh","Chrome","103.0.0.0","OS X","10_11_6","null","null","","<p style=""font-size: 48px;"">+</p>","3","Heavy_Contradictory","",""
"","","","","","sentence","47711","html-keyboard-response","172","252814","0.0-6.0-1.34","80","3","2022-11-17 12:25:58","fd252370c17a9971d68c1d4354a03c2e","","Mozilla/5.0 (Macintosh; Intel Mac OS X 10_11_6) AppleWebKit/537.36 (KHTML, like Gecko) Chrome/103.0.0.0 Safari/537.36","Macintosh","Chrome","103.0.0.0","OS X","10_11_6","1784"," ","","A bowling ball dropped and touched a vase","3","Heavy_Contradictory","",""
"","","","","","fixation","47711","html-keyboard-response","173","253324","0.0-6.0-2.34","80","3","2022-11-17 12:25:58","fd252370c17a9971d68c1d4354a03c2e","","Mozilla/5.0 (Macintosh; Intel Mac OS X 10_11_6) AppleWebKit/537.36 (KHTML, like Gecko) Chrome/103.0.0.0 Safari/537.36","Macintosh","Chrome","103.0.0.0","OS X","10_11_6","null","null","","<p style=""font-size: 48px;"">+</p>","3","Heavy_Contradictory","",""
"","","","","","picture","47711","image-keyboard-response","174","254457","0.0-6.0-3.34","80","3","2022-11-17 12:25:58","fd252370c17a9971d68c1d4354a03c2e","","Mozilla/5.0 (Macintosh; Intel Mac OS X 10_11_6) AppleWebKit/537.36 (KHTML, like Gecko) Chrome/103.0.0.0 Safari/537.36","Macintosh","Chrome","103.0.0.0","OS X","10_11_6","1122","s","","vaseS.jpg","3","Heavy_Contradictory","true",""
"","","","","","fixation","47711","html-keyboard-response","175","255470","0.0-6.0-0.35","80","3","2022-11-17 12:25:58","fd252370c17a9971d68c1d4354a03c2e","","Mozilla/5.0 (Macintosh; Intel Mac OS X 10_11_6) AppleWebKit/537.36 (KHTML, like Gecko) Chrome/103.0.0.0 Safari/537.36","Macintosh","Chrome","103.0.0.0","OS X","10_11_6","null","null","","<p style=""font-size: 48px;"">+</p>","3","Light_Contradictory","",""
"","","","","","sentence","47711","html-keyboard-response","176","256885","0.0-6.0-1.35","80","3","2022-11-17 12:25:58","fd252370c17a9971d68c1d4354a03c2e","","Mozilla/5.0 (Macintosh; Intel Mac OS X 10_11_6) AppleWebKit/537.36 (KHTML, like Gecko) Chrome/103.0.0.0 Safari/537.36","Macintosh","Chrome","103.0.0.0","OS X","10_11_6","1408"," ","","A balloon dropped and smashed a chocolate ice-cream","3","Light_Contradictory","",""
"","","","","","fixation","47711","html-keyboard-response","177","257394","0.0-6.0-2.35","80","3","2022-11-17 12:25:58","fd252370c17a9971d68c1d4354a03c2e","","Mozilla/5.0 (Macintosh; Intel Mac OS X 10_11_6) AppleWebKit/537.36 (KHTML, like Gecko) Chrome/103.0.0.0 Safari/537.36","Macintosh","Chrome","103.0.0.0","OS X","10_11_6","null","null","","<p style=""font-size: 48px;"">+</p>","3","Light_Contradictory","",""
"","","","","","picture","47711","image-keyboard-response","178","258656","0.0-6.0-3.35","80","3","2022-11-17 12:25:58","fd252370c17a9971d68c1d4354a03c2e","","Mozilla/5.0 (Macintosh; Intel Mac OS X 10_11_6) AppleWebKit/537.36 (KHTML, like Gecko) Chrome/103.0.0.0 Safari/537.36","Macintosh","Chrome","103.0.0.0","OS X","10_11_6","1252","s","","icecreamS.jpg","3","Light_Contradictory","true",""
"","","","","","fixation","47711","html-keyboard-response","179","259666","0.0-6.0-0.36","80","3","2022-11-17 12:25:58","fd252370c17a9971d68c1d4354a03c2e","","Mozilla/5.0 (Macintosh; Intel Mac OS X 10_11_6) AppleWebKit/537.36 (KHTML, like Gecko) Chrome/103.0.0.0 Safari/537.36","Macintosh","Chrome","103.0.0.0","OS X","10_11_6","null","null","","<p style=""font-size: 48px;"">+</p>","3","Filler","",""
"","","","","","sentence","47711","html-keyboard-response","180","261181","0.0-6.0-1.36","80","3","2022-11-17 12:25:58","fd252370c17a9971d68c1d4354a03c2e","","Mozilla/5.0 (Macintosh; Intel Mac OS X 10_11_6) AppleWebKit/537.36 (KHTML, like Gecko) Chrome/103.0.0.0 Safari/537.36","Macintosh","Chrome","103.0.0.0","OS X","10_11_6","1506"," ","","A president is writing in the notebook","3","Filler","",""
"","","","","","fixation","47711","html-keyboard-response","181","261691","0.0-6.0-2.36","80","3","2022-11-17 12:25:58","fd252370c17a9971d68c1d4354a03c2e","","Mozilla/5.0 (Macintosh; Intel Mac OS X 10_11_6) AppleWebKit/537.36 (KHTML, like Gecko) Chrome/103.0.0.0 Safari/537.36","Macintosh","Chrome","103.0.0.0","OS X","10_11_6","null","null","","<p style=""font-size: 48px;"">+</p>","3","Filler","",""
"","","","","","picture","47711","image-keyboard-response","182","262840","0.0-6.0-3.36","80","3","2022-11-17 12:25:58","fd252370c17a9971d68c1d4354a03c2e","","Mozilla/5.0 (Macintosh; Intel Mac OS X 10_11_6) AppleWebKit/537.36 (KHTML, like Gecko) Chrome/103.0.0.0 Safari/537.36","Macintosh","Chrome","103.0.0.0","OS X","10_11_6","1138","n","","can.jpg","3","Filler","true",""
"","","","","","fixation","47711","html-keyboard-response","183","263852","0.0-6.0-0.37","80","3","2022-11-17 12:25:58","fd252370c17a9971d68c1d4354a03c2e","","Mozilla/5.0 (Macintosh; Intel Mac OS X 10_11_6) AppleWebKit/537.36 (KHTML, like Gecko) Chrome/103.0.0.0 Safari/537.36","Macintosh","Chrome","103.0.0.0","OS X","10_11_6","null","null","","<p style=""font-size: 48px;"">+</p>","3","Filler","",""
"","","","","","sentence","47711","html-keyboard-response","184","265498","0.0-6.0-1.37","80","3","2022-11-17 12:25:58","fd252370c17a9971d68c1d4354a03c2e","","Mozilla/5.0 (Macintosh; Intel Mac OS X 10_11_6) AppleWebKit/537.36 (KHTML, like Gecko) Chrome/103.0.0.0 Safari/537.36","Macintosh","Chrome","103.0.0.0","OS X","10_11_6","1639"," ","","A giraffe is playing with a zebra","3","Filler","",""
"","","","","","fixation","47711","html-keyboard-response","185","266007","0.0-6.0-2.37","80","3","2022-11-17 12:25:58","fd252370c17a9971d68c1d4354a03c2e","","Mozilla/5.0 (Macintosh; Intel Mac OS X 10_11_6) AppleWebKit/537.36 (KHTML, like Gecko) Chrome/103.0.0.0 Safari/537.36","Macintosh","Chrome","103.0.0.0","OS X","10_11_6","null","null","","<p style=""font-size: 48px;"">+</p>","3","Filler","",""
"","","","","","picture","47711","image-keyboard-response","186","268094","0.0-6.0-3.37","80","3","2022-11-17 12:25:58","fd252370c17a9971d68c1d4354a03c2e","","Mozilla/5.0 (Macintosh; Intel Mac OS X 10_11_6) AppleWebKit/537.36 (KHTML, like Gecko) Chrome/103.0.0.0 Safari/537.36","Macintosh","Chrome","103.0.0.0","OS X","10_11_6","2077","n","","wallet.jpg","3","Filler","true",""
"","","","","","fixation","47711","html-keyboard-response","187","269107","0.0-6.0-0.38","80","3","2022-11-17 12:25:58","fd252370c17a9971d68c1d4354a03c2e","","Mozilla/5.0 (Macintosh; Intel Mac OS X 10_11_6) AppleWebKit/537.36 (KHTML, like Gecko) Chrome/103.0.0.0 Safari/537.36","Macintosh","Chrome","103.0.0.0","OS X","10_11_6","null","null","","<p style=""font-size: 48px;"">+</p>","3","Filler","",""
"","","","","","sentence","47711","html-keyboard-response","188","270474","0.0-6.0-1.38","80","3","2022-11-17 12:25:58","fd252370c17a9971d68c1d4354a03c2e","","Mozilla/5.0 (Macintosh; Intel Mac OS X 10_11_6) AppleWebKit/537.36 (KHTML, like Gecko) Chrome/103.0.0.0 Safari/537.36","Macintosh","Chrome","103.0.0.0","OS X","10_11_6","1359"," ","","An actress is taking a microphone","3","Filler","",""
"","","","","","fixation","47711","html-keyboard-response","189","270983","0.0-6.0-2.38","80","3","2022-11-17 12:25:58","fd252370c17a9971d68c1d4354a03c2e","","Mozilla/5.0 (Macintosh; Intel Mac OS X 10_11_6) AppleWebKit/537.36 (KHTML, like Gecko) Chrome/103.0.0.0 Safari/537.36","Macintosh","Chrome","103.0.0.0","OS X","10_11_6","null","null","","<p style=""font-size: 48px;"">+</p>","3","Filler","",""
"","","","","","picture","47711","image-keyboard-response","190","271874","0.0-6.0-3.38","80","3","2022-11-17 12:25:58","fd252370c17a9971d68c1d4354a03c2e","","Mozilla/5.0 (Macintosh; Intel Mac OS X 10_11_6) AppleWebKit/537.36 (KHTML, like Gecko) Chrome/103.0.0.0 Safari/537.36","Macintosh","Chrome","103.0.0.0","OS X","10_11_6","880","n","","pants.jpg","3","Filler","true",""
"","","","","","fixation","47711","html-keyboard-response","191","272886","0.0-6.0-0.39","80","3","2022-11-17 12:25:58","fd252370c17a9971d68c1d4354a03c2e","","Mozilla/5.0 (Macintosh; Intel Mac OS X 10_11_6) AppleWebKit/537.36 (KHTML, like Gecko) Chrome/103.0.0.0 Safari/537.36","Macintosh","Chrome","103.0.0.0","OS X","10_11_6","null","null","","<p style=""font-size: 48px;"">+</p>","3","Filler","",""
"","","","","","sentence","47711","html-keyboard-response","192","274120","0.0-6.0-1.39","80","3","2022-11-17 12:25:58","fd252370c17a9971d68c1d4354a03c2e","","Mozilla/5.0 (Macintosh; Intel Mac OS X 10_11_6) AppleWebKit/537.36 (KHTML, like Gecko) Chrome/103.0.0.0 Safari/537.36","Macintosh","Chrome","103.0.0.0","OS X","10_11_6","1225"," ","","A toothbrush was placed on the sponge","3","Filler","",""
"","","","","","fixation","47711","html-keyboard-response","193","274630","0.0-6.0-2.39","80","3","2022-11-17 12:25:58","fd252370c17a9971d68c1d4354a03c2e","","Mozilla/5.0 (Macintosh; Intel Mac OS X 10_11_6) AppleWebKit/537.36 (KHTML, like Gecko) Chrome/103.0.0.0 Safari/537.36","Macintosh","Chrome","103.0.0.0","OS X","10_11_6","null","null","","<p style=""font-size: 48px;"">+</p>","3","Filler","",""
"","","","","","picture","47711","image-keyboard-response","194","275562","0.0-6.0-3.39","80","3","2022-11-17 12:25:58","fd252370c17a9971d68c1d4354a03c2e","","Mozilla/5.0 (Macintosh; Intel Mac OS X 10_11_6) AppleWebKit/537.36 (KHTML, like Gecko) Chrome/103.0.0.0 Safari/537.36","Macintosh","Chrome","103.0.0.0","OS X","10_11_6","920","s","","sponge.jpg","3","Filler","true",""
"","","","","","fixation","47711","html-keyboard-response","195","276574","0.0-6.0-0.40","80","3","2022-11-17 12:25:58","fd252370c17a9971d68c1d4354a03c2e","","Mozilla/5.0 (Macintosh; Intel Mac OS X 10_11_6) AppleWebKit/537.36 (KHTML, like Gecko) Chrome/103.0.0.0 Safari/537.36","Macintosh","Chrome","103.0.0.0","OS X","10_11_6","null","null","","<p style=""font-size: 48px;"">+</p>","3","Filler","",""
"","","","","","sentence","47711","html-keyboard-response","196","277648","0.0-6.0-1.40","80","3","2022-11-17 12:25:58","fd252370c17a9971d68c1d4354a03c2e","","Mozilla/5.0 (Macintosh; Intel Mac OS X 10_11_6) AppleWebKit/537.36 (KHTML, like Gecko) Chrome/103.0.0.0 Safari/537.36","Macintosh","Chrome","103.0.0.0","OS X","10_11_6","1067"," ","","A towel was placed on the TV","3","Filler","",""
"","","","","","fixation","47711","html-keyboard-response","197","278158","0.0-6.0-2.40","80","3","2022-11-17 12:25:58","fd252370c17a9971d68c1d4354a03c2e","","Mozilla/5.0 (Macintosh; Intel Mac OS X 10_11_6) AppleWebKit/537.36 (KHTML, like Gecko) Chrome/103.0.0.0 Safari/537.36","Macintosh","Chrome","103.0.0.0","OS X","10_11_6","null","null","","<p style=""font-size: 48px;"">+</p>","3","Filler","",""
"","","","","","picture","47711","image-keyboard-response","198","279086","0.0-6.0-3.40","80","3","2022-11-17 12:25:58","fd252370c17a9971d68c1d4354a03c2e","","Mozilla/5.0 (Macintosh; Intel Mac OS X 10_11_6) AppleWebKit/537.36 (KHTML, like Gecko) Chrome/103.0.0.0 Safari/537.36","Macintosh","Chrome","103.0.0.0","OS X","10_11_6","918","n","","pencil.jpg","3","Filler","true",""
"","","","","","fixation","47711","html-keyboard-response","199","280099","0.0-6.0-0.41","80","3","2022-11-17 12:25:58","fd252370c17a9971d68c1d4354a03c2e","","Mozilla/5.0 (Macintosh; Intel Mac OS X 10_11_6) AppleWebKit/537.36 (KHTML, like Gecko) Chrome/103.0.0.0 Safari/537.36","Macintosh","Chrome","103.0.0.0","OS X","10_11_6","null","null","","<p style=""font-size: 48px;"">+</p>","3","Filler","",""
"","","","","","sentence","47711","html-keyboard-response","200","281757","0.0-6.0-1.41","80","3","2022-11-17 12:25:58","fd252370c17a9971d68c1d4354a03c2e","","Mozilla/5.0 (Macintosh; Intel Mac OS X 10_11_6) AppleWebKit/537.36 (KHTML, like Gecko) Chrome/103.0.0.0 Safari/537.36","Macintosh","Chrome","103.0.0.0","OS X","10_11_6","1650"," ","","An elephant is eating a watermelon","3","Filler","",""
"","","","","","fixation","47711","html-keyboard-response","201","282265","0.0-6.0-2.41","80","3","2022-11-17 12:25:58","fd252370c17a9971d68c1d4354a03c2e","","Mozilla/5.0 (Macintosh; Intel Mac OS X 10_11_6) AppleWebKit/537.36 (KHTML, like Gecko) Chrome/103.0.0.0 Safari/537.36","Macintosh","Chrome","103.0.0.0","OS X","10_11_6","null","null","","<p style=""font-size: 48px;"">+</p>","3","Filler","",""
"","","","","","picture","47711","image-keyboard-response","202","283083","0.0-6.0-3.41","80","3","2022-11-17 12:25:58","fd252370c17a9971d68c1d4354a03c2e","","Mozilla/5.0 (Macintosh; Intel Mac OS X 10_11_6) AppleWebKit/537.36 (KHTML, like Gecko) Chrome/103.0.0.0 Safari/537.36","Macintosh","Chrome","103.0.0.0","OS X","10_11_6","805","s","","watermelon.jpg","3","Filler","true",""
"","","","","","fixation","47711","html-keyboard-response","203","284093","0.0-6.0-0.42","80","3","2022-11-17 12:25:58","fd252370c17a9971d68c1d4354a03c2e","","Mozilla/5.0 (Macintosh; Intel Mac OS X 10_11_6) AppleWebKit/537.36 (KHTML, like Gecko) Chrome/103.0.0.0 Safari/537.36","Macintosh","Chrome","103.0.0.0","OS X","10_11_6","null","null","","<p style=""font-size: 48px;"">+</p>","3","Filler","",""
"","","","","","sentence","47711","html-keyboard-response","204","285259","0.0-6.0-1.42","80","3","2022-11-17 12:25:58","fd252370c17a9971d68c1d4354a03c2e","","Mozilla/5.0 (Macintosh; Intel Mac OS X 10_11_6) AppleWebKit/537.36 (KHTML, like Gecko) Chrome/103.0.0.0 Safari/537.36","Macintosh","Chrome","103.0.0.0","OS X","10_11_6","1159"," ","","A student is writing on a board","3","Filler","",""
"","","","","","fixation","47711","html-keyboard-response","205","285769","0.0-6.0-2.42","80","3","2022-11-17 12:25:58","fd252370c17a9971d68c1d4354a03c2e","","Mozilla/5.0 (Macintosh; Intel Mac OS X 10_11_6) AppleWebKit/537.36 (KHTML, like Gecko) Chrome/103.0.0.0 Safari/537.36","Macintosh","Chrome","103.0.0.0","OS X","10_11_6","null","null","","<p style=""font-size: 48px;"">+</p>","3","Filler","",""
"","","","","","picture","47711","image-keyboard-response","206","286854","0.0-6.0-3.42","80","3","2022-11-17 12:25:58","fd252370c17a9971d68c1d4354a03c2e","","Mozilla/5.0 (Macintosh; Intel Mac OS X 10_11_6) AppleWebKit/537.36 (KHTML, like Gecko) Chrome/103.0.0.0 Safari/537.36","Macintosh","Chrome","103.0.0.0","OS X","10_11_6","1074","n","","owl.jpg","3","Filler","true",""
"","","","","","fixation","47711","html-keyboard-response","207","287866","0.0-6.0-0.43","80","3","2022-11-17 12:25:58","fd252370c17a9971d68c1d4354a03c2e","","Mozilla/5.0 (Macintosh; Intel Mac OS X 10_11_6) AppleWebKit/537.36 (KHTML, like Gecko) Chrome/103.0.0.0 Safari/537.36","Macintosh","Chrome","103.0.0.0","OS X","10_11_6","null","null","","<p style=""font-size: 48px;"">+</p>","3","Filler","",""
"","","","","","sentence","47711","html-keyboard-response","208","288784","0.0-6.0-1.43","80","3","2022-11-17 12:25:58","fd252370c17a9971d68c1d4354a03c2e","","Mozilla/5.0 (Macintosh; Intel Mac OS X 10_11_6) AppleWebKit/537.36 (KHTML, like Gecko) Chrome/103.0.0.0 Safari/537.36","Macintosh","Chrome","103.0.0.0","OS X","10_11_6","911"," ","","A kitten is playing in the sandbox","3","Filler","",""
"","","","","","fixation","47711","html-keyboard-response","209","289294","0.0-6.0-2.43","80","3","2022-11-17 12:25:58","fd252370c17a9971d68c1d4354a03c2e","","Mozilla/5.0 (Macintosh; Intel Mac OS X 10_11_6) AppleWebKit/537.36 (KHTML, like Gecko) Chrome/103.0.0.0 Safari/537.36","Macintosh","Chrome","103.0.0.0","OS X","10_11_6","null","null","","<p style=""font-size: 48px;"">+</p>","3","Filler","",""
"","","","","","picture","47711","image-keyboard-response","210","290095","0.0-6.0-3.43","80","3","2022-11-17 12:25:58","fd252370c17a9971d68c1d4354a03c2e","","Mozilla/5.0 (Macintosh; Intel Mac OS X 10_11_6) AppleWebKit/537.36 (KHTML, like Gecko) Chrome/103.0.0.0 Safari/537.36","Macintosh","Chrome","103.0.0.0","OS X","10_11_6","789","n","","dustbin.jpg","3","Filler","true",""
"","","","","","fixation","47711","html-keyboard-response","211","291105","0.0-6.0-0.44","80","3","2022-11-17 12:25:58","fd252370c17a9971d68c1d4354a03c2e","","Mozilla/5.0 (Macintosh; Intel Mac OS X 10_11_6) AppleWebKit/537.36 (KHTML, like Gecko) Chrome/103.0.0.0 Safari/537.36","Macintosh","Chrome","103.0.0.0","OS X","10_11_6","null","null","","<p style=""font-size: 48px;"">+</p>","3","Filler","",""
"","","","","","sentence","47711","html-keyboard-response","212","293115","0.0-6.0-1.44","80","3","2022-11-17 12:25:58","fd252370c17a9971d68c1d4354a03c2e","","Mozilla/5.0 (Macintosh; Intel Mac OS X 10_11_6) AppleWebKit/537.36 (KHTML, like Gecko) Chrome/103.0.0.0 Safari/537.36","Macintosh","Chrome","103.0.0.0","OS X","10_11_6","2004"," ","","A pencil was placed on the shoe","3","Filler","",""
"","","","","","fixation","47711","html-keyboard-response","213","293625","0.0-6.0-2.44","80","3","2022-11-17 12:25:58","fd252370c17a9971d68c1d4354a03c2e","","Mozilla/5.0 (Macintosh; Intel Mac OS X 10_11_6) AppleWebKit/537.36 (KHTML, like Gecko) Chrome/103.0.0.0 Safari/537.36","Macintosh","Chrome","103.0.0.0","OS X","10_11_6","null","null","","<p style=""font-size: 48px;"">+</p>","3","Filler","",""
"","","","","","picture","47711","image-keyboard-response","214","294482","0.0-6.0-3.44","80","3","2022-11-17 12:25:58","fd252370c17a9971d68c1d4354a03c2e","","Mozilla/5.0 (Macintosh; Intel Mac OS X 10_11_6) AppleWebKit/537.36 (KHTML, like Gecko) Chrome/103.0.0.0 Safari/537.36","Macintosh","Chrome","103.0.0.0","OS X","10_11_6","845","n","","perfume.jpg","3","Filler","true",""
"","","","","","fixation","47711","html-keyboard-response","215","295494","0.0-6.0-0.45","80","3","2022-11-17 12:25:58","fd252370c17a9971d68c1d4354a03c2e","","Mozilla/5.0 (Macintosh; Intel Mac OS X 10_11_6) AppleWebKit/537.36 (KHTML, like Gecko) Chrome/103.0.0.0 Safari/537.36","Macintosh","Chrome","103.0.0.0","OS X","10_11_6","null","null","","<p style=""font-size: 48px;"">+</p>","3","Filler","",""
"","","","","","sentence","47711","html-keyboard-response","216","296649","0.0-6.0-1.45","80","3","2022-11-17 12:25:58","fd252370c17a9971d68c1d4354a03c2e","","Mozilla/5.0 (Macintosh; Intel Mac OS X 10_11_6) AppleWebKit/537.36 (KHTML, like Gecko) Chrome/103.0.0.0 Safari/537.36","Macintosh","Chrome","103.0.0.0","OS X","10_11_6","1146"," ","","A postman is driving a car","3","Filler","",""
"","","","","","fixation","47711","html-keyboard-response","217","297160","0.0-6.0-2.45","80","3","2022-11-17 12:25:58","fd252370c17a9971d68c1d4354a03c2e","","Mozilla/5.0 (Macintosh; Intel Mac OS X 10_11_6) AppleWebKit/537.36 (KHTML, like Gecko) Chrome/103.0.0.0 Safari/537.36","Macintosh","Chrome","103.0.0.0","OS X","10_11_6","null","null","","<p style=""font-size: 48px;"">+</p>","3","Filler","",""
"","","","","","picture","47711","image-keyboard-response","218","298370","0.0-6.0-3.45","80","3","2022-11-17 12:25:58","fd252370c17a9971d68c1d4354a03c2e","","Mozilla/5.0 (Macintosh; Intel Mac OS X 10_11_6) AppleWebKit/537.36 (KHTML, like Gecko) Chrome/103.0.0.0 Safari/537.36","Macintosh","Chrome","103.0.0.0","OS X","10_11_6","1197","s","","car.jpg","3","Filler","true",""
"","","","","","fixation","47711","html-keyboard-response","219","299384","0.0-6.0-0.46","80","3","2022-11-17 12:25:58","fd252370c17a9971d68c1d4354a03c2e","","Mozilla/5.0 (Macintosh; Intel Mac OS X 10_11_6) AppleWebKit/537.36 (KHTML, like Gecko) Chrome/103.0.0.0 Safari/537.36","Macintosh","Chrome","103.0.0.0","OS X","10_11_6","null","null","","<p style=""font-size: 48px;"">+</p>","3","Filler","",""
"","","","","","sentence","47711","html-keyboard-response","220","300820","0.0-6.0-1.46","80","3","2022-11-17 12:25:58","fd252370c17a9971d68c1d4354a03c2e","","Mozilla/5.0 (Macintosh; Intel Mac OS X 10_11_6) AppleWebKit/537.36 (KHTML, like Gecko) Chrome/103.0.0.0 Safari/537.36","Macintosh","Chrome","103.0.0.0","OS X","10_11_6","1427"," ","","A zebra is playing with a horse","3","Filler","",""
"","","","","","fixation","47711","html-keyboard-response","221","301331","0.0-6.0-2.46","80","3","2022-11-17 12:25:58","fd252370c17a9971d68c1d4354a03c2e","","Mozilla/5.0 (Macintosh; Intel Mac OS X 10_11_6) AppleWebKit/537.36 (KHTML, like Gecko) Chrome/103.0.0.0 Safari/537.36","Macintosh","Chrome","103.0.0.0","OS X","10_11_6","null","null","","<p style=""font-size: 48px;"">+</p>","3","Filler","",""
"","","","","","picture","47711","image-keyboard-response","222","302295","0.0-6.0-3.46","80","3","2022-11-17 12:25:58","fd252370c17a9971d68c1d4354a03c2e","","Mozilla/5.0 (Macintosh; Intel Mac OS X 10_11_6) AppleWebKit/537.36 (KHTML, like Gecko) Chrome/103.0.0.0 Safari/537.36","Macintosh","Chrome","103.0.0.0","OS X","10_11_6","951","n","","watch.jpg","3","Filler","true",""
"","","","","","fixation","47711","html-keyboard-response","223","303308","0.0-6.0-0.47","80","3","2022-11-17 12:25:58","fd252370c17a9971d68c1d4354a03c2e","","Mozilla/5.0 (Macintosh; Intel Mac OS X 10_11_6) AppleWebKit/537.36 (KHTML, like Gecko) Chrome/103.0.0.0 Safari/537.36","Macintosh","Chrome","103.0.0.0","OS X","10_11_6","null","null","","<p style=""font-size: 48px;"">+</p>","3","Filler","",""
"","","","","","sentence","47711","html-keyboard-response","224","304594","0.0-6.0-1.47","80","3","2022-11-17 12:25:58","fd252370c17a9971d68c1d4354a03c2e","","Mozilla/5.0 (Macintosh; Intel Mac OS X 10_11_6) AppleWebKit/537.36 (KHTML, like Gecko) Chrome/103.0.0.0 Safari/537.36","Macintosh","Chrome","103.0.0.0","OS X","10_11_6","1277"," ","","A thief is stealing a wallet","3","Filler","",""
"","","","","","fixation","47711","html-keyboard-response","225","305104","0.0-6.0-2.47","80","3","2022-11-17 12:25:58","fd252370c17a9971d68c1d4354a03c2e","","Mozilla/5.0 (Macintosh; Intel Mac OS X 10_11_6) AppleWebKit/537.36 (KHTML, like Gecko) Chrome/103.0.0.0 Safari/537.36","Macintosh","Chrome","103.0.0.0","OS X","10_11_6","null","null","","<p style=""font-size: 48px;"">+</p>","3","Filler","",""
"","","","","","picture","47711","image-keyboard-response","226","306307","0.0-6.0-3.47","80","3","2022-11-17 12:25:58","fd252370c17a9971d68c1d4354a03c2e","","Mozilla/5.0 (Macintosh; Intel Mac OS X 10_11_6) AppleWebKit/537.36 (KHTML, like Gecko) Chrome/103.0.0.0 Safari/537.36","Macintosh","Chrome","103.0.0.0","OS X","10_11_6","1189","n","","teddybear.jpg","3","Filler","true",""
"","","","","","fixation","47711","html-keyboard-response","227","307319","0.0-6.0-0.48","80","3","2022-11-17 12:25:58","fd252370c17a9971d68c1d4354a03c2e","","Mozilla/5.0 (Macintosh; Intel Mac OS X 10_11_6) AppleWebKit/537.36 (KHTML, like Gecko) Chrome/103.0.0.0 Safari/537.36","Macintosh","Chrome","103.0.0.0","OS X","10_11_6","null","null","","<p style=""font-size: 48px;"">+</p>","3","Filler","",""
"","","","","","sentence","47711","html-keyboard-response","228","309031","0.0-6.0-1.48","80","3","2022-11-17 12:25:58","fd252370c17a9971d68c1d4354a03c2e","","Mozilla/5.0 (Macintosh; Intel Mac OS X 10_11_6) AppleWebKit/537.36 (KHTML, like Gecko) Chrome/103.0.0.0 Safari/537.36","Macintosh","Chrome","103.0.0.0","OS X","10_11_6","1703"," ","","An astronaut is putting on a space suit","3","Filler","",""
"","","","","","fixation","47711","html-keyboard-response","229","309542","0.0-6.0-2.48","80","3","2022-11-17 12:25:58","fd252370c17a9971d68c1d4354a03c2e","","Mozilla/5.0 (Macintosh; Intel Mac OS X 10_11_6) AppleWebKit/537.36 (KHTML, like Gecko) Chrome/103.0.0.0 Safari/537.36","Macintosh","Chrome","103.0.0.0","OS X","10_11_6","null","null","","<p style=""font-size: 48px;"">+</p>","3","Filler","",""
"","","","","","picture","47711","image-keyboard-response","230","310543","0.0-6.0-3.48","80","3","2022-11-17 12:25:58","fd252370c17a9971d68c1d4354a03c2e","","Mozilla/5.0 (Macintosh; Intel Mac OS X 10_11_6) AppleWebKit/537.36 (KHTML, like Gecko) Chrome/103.0.0.0 Safari/537.36","Macintosh","Chrome","103.0.0.0","OS X","10_11_6","988","s","","spacesuit.jpg","3","Filler","true",""
"","","","","","fixation","47711","html-keyboard-response","231","311557","0.0-6.0-0.49","80","3","2022-11-17 12:25:58","fd252370c17a9971d68c1d4354a03c2e","","Mozilla/5.0 (Macintosh; Intel Mac OS X 10_11_6) AppleWebKit/537.36 (KHTML, like Gecko) Chrome/103.0.0.0 Safari/537.36","Macintosh","Chrome","103.0.0.0","OS X","10_11_6","null","null","","<p style=""font-size: 48px;"">+</p>","3","Light_Contradictory","",""
"","","","","","sentence","47711","html-keyboard-response","232","313167","0.0-6.0-1.49","80","3","2022-11-17 12:25:58","fd252370c17a9971d68c1d4354a03c2e","","Mozilla/5.0 (Macintosh; Intel Mac OS X 10_11_6) AppleWebKit/537.36 (KHTML, like Gecko) Chrome/103.0.0.0 Safari/537.36","Macintosh","Chrome","103.0.0.0","OS X","10_11_6","1602"," ","","A balloon dropped and smashed an egg flan","3","Light_Contradictory","",""
"","","","","","fixation","47711","html-keyboard-response","233","313678","0.0-6.0-2.49","80","3","2022-11-17 12:25:58","fd252370c17a9971d68c1d4354a03c2e","","Mozilla/5.0 (Macintosh; Intel Mac OS X 10_11_6) AppleWebKit/537.36 (KHTML, like Gecko) Chrome/103.0.0.0 Safari/537.36","Macintosh","Chrome","103.0.0.0","OS X","10_11_6","null","null","","<p style=""font-size: 48px;"">+</p>","3","Light_Contradictory","",""
"","","","","","picture","47711","image-keyboard-response","234","320944","0.0-6.0-3.49","80","3","2022-11-17 12:25:58","fd252370c17a9971d68c1d4354a03c2e","","Mozilla/5.0 (Macintosh; Intel Mac OS X 10_11_6) AppleWebKit/537.36 (KHTML, like Gecko) Chrome/103.0.0.0 Safari/537.36","Macintosh","Chrome","103.0.0.0","OS X","10_11_6","7253","s","","eggflanS.jpg","3","Light_Contradictory","true",""
"","","","","","fixation","47711","html-keyboard-response","235","321954","0.0-6.0-0.50","80","3","2022-11-17 12:25:58","fd252370c17a9971d68c1d4354a03c2e","","Mozilla/5.0 (Macintosh; Intel Mac OS X 10_11_6) AppleWebKit/537.36 (KHTML, like Gecko) Chrome/103.0.0.0 Safari/537.36","Macintosh","Chrome","103.0.0.0","OS X","10_11_6","null","null","","<p style=""font-size: 48px;"">+</p>","3","Filler","",""
"","","","","","sentence","47711","html-keyboard-response","236","322881","0.0-6.0-1.50","80","3","2022-11-17 12:25:58","fd252370c17a9971d68c1d4354a03c2e","","Mozilla/5.0 (Macintosh; Intel Mac OS X 10_11_6) AppleWebKit/537.36 (KHTML, like Gecko) Chrome/103.0.0.0 Safari/537.36","Macintosh","Chrome","103.0.0.0","OS X","10_11_6","916"," ","","A cat is drinking water from a bowl","3","Filler","",""
"","","","","","fixation","47711","html-keyboard-response","237","323393","0.0-6.0-2.50","80","3","2022-11-17 12:25:58","fd252370c17a9971d68c1d4354a03c2e","","Mozilla/5.0 (Macintosh; Intel Mac OS X 10_11_6) AppleWebKit/537.36 (KHTML, like Gecko) Chrome/103.0.0.0 Safari/537.36","Macintosh","Chrome","103.0.0.0","OS X","10_11_6","null","null","","<p style=""font-size: 48px;"">+</p>","3","Filler","",""
"","","","","","picture","47711","image-keyboard-response","238","324522","0.0-6.0-3.50","80","3","2022-11-17 12:25:58","fd252370c17a9971d68c1d4354a03c2e","","Mozilla/5.0 (Macintosh; Intel Mac OS X 10_11_6) AppleWebKit/537.36 (KHTML, like Gecko) Chrome/103.0.0.0 Safari/537.36","Macintosh","Chrome","103.0.0.0","OS X","10_11_6","1116","s","","bowl.jpg","3","Filler","true",""
"","","","","","fixation","47711","html-keyboard-response","239","325536","0.0-6.0-0.51","80","3","2022-11-17 12:25:58","fd252370c17a9971d68c1d4354a03c2e","","Mozilla/5.0 (Macintosh; Intel Mac OS X 10_11_6) AppleWebKit/537.36 (KHTML, like Gecko) Chrome/103.0.0.0 Safari/537.36","Macintosh","Chrome","103.0.0.0","OS X","10_11_6","null","null","","<p style=""font-size: 48px;"">+</p>","3","Filler","",""
"","","","","","sentence","47711","html-keyboard-response","240","326650","0.0-6.0-1.51","80","3","2022-11-17 12:25:58","fd252370c17a9971d68c1d4354a03c2e","","Mozilla/5.0 (Macintosh; Intel Mac OS X 10_11_6) AppleWebKit/537.36 (KHTML, like Gecko) Chrome/103.0.0.0 Safari/537.36","Macintosh","Chrome","103.0.0.0","OS X","10_11_6","1104"," ","","An old man is hammering a nail","3","Filler","",""
"","","","","","fixation","47711","html-keyboard-response","241","327161","0.0-6.0-2.51","80","3","2022-11-17 12:25:58","fd252370c17a9971d68c1d4354a03c2e","","Mozilla/5.0 (Macintosh; Intel Mac OS X 10_11_6) AppleWebKit/537.36 (KHTML, like Gecko) Chrome/103.0.0.0 Safari/537.36","Macintosh","Chrome","103.0.0.0","OS X","10_11_6","null","null","","<p style=""font-size: 48px;"">+</p>","3","Filler","",""
"","","","","","picture","47711","image-keyboard-response","242","330686","0.0-6.0-3.51","80","3","2022-11-17 12:25:58","fd252370c17a9971d68c1d4354a03c2e","","Mozilla/5.0 (Macintosh; Intel Mac OS X 10_11_6) AppleWebKit/537.36 (KHTML, like Gecko) Chrome/103.0.0.0 Safari/537.36","Macintosh","Chrome","103.0.0.0","OS X","10_11_6","3513","s","","nail.jpg","3","Filler","true",""
"","","","","","fixation","47711","html-keyboard-response","243","331699","0.0-6.0-0.52","80","3","2022-11-17 12:25:58","fd252370c17a9971d68c1d4354a03c2e","","Mozilla/5.0 (Macintosh; Intel Mac OS X 10_11_6) AppleWebKit/537.36 (KHTML, like Gecko) Chrome/103.0.0.0 Safari/537.36","Macintosh","Chrome","103.0.0.0","OS X","10_11_6","null","null","","<p style=""font-size: 48px;"">+</p>","3","Filler","",""
