"success","timeout","failed_images","failed_audio","failed_video","typeoftrial","subject","trial_type","trial_index","time_elapsed","internal_node_id","run_id","condition","recorded_at","source_code_version","ip","user_agent","device","browser","browser_version","platform","platform_version","rt","response","Experiment","stimulus","list_number","trialcondition","correct","question_order"
"true","false","[]","[]","[]","preload","77799","preload","0","4643","0.0-0.0","70","3","2022-11-17 12:24:55","fd252370c17a9971d68c1d4354a03c2e","","Mozilla/5.0 (Windows NT 10.0; Win64; x64; rv:107.0) Gecko/20100101 Firefox/107.0","","Firefox","107.0","Windows","10.0","","","","","","","",""
"","","","","","ID","77799","survey-text","1","17084","0.0-1.0","70","3","2022-11-17 12:24:55","fd252370c17a9971d68c1d4354a03c2e","","Mozilla/5.0 (Windows NT 10.0; Win64; x64; rv:107.0) Gecko/20100101 Firefox/107.0","","Firefox","107.0","Windows","10.0","12403","{""ID"":""600dc0cb8625143956a3c76a""}","","","","","",""
"","","","","","instructions","77799","html-button-response","2","38211","0.0-2.0","70","3","2022-11-17 12:24:55","fd252370c17a9971d68c1d4354a03c2e","","Mozilla/5.0 (Windows NT 10.0; Win64; x64; rv:107.0) Gecko/20100101 Firefox/107.0","","Firefox","107.0","Windows","10.0","21121","0","","
                    <p style=""font-size:20px;""> Welcome to the experiment! </p>
                    <p style=""font-size:20px;""> In this experiment, you will be asked to make judgments about the content of different sentences.</p>
                    <p style=""font-size:20px;""> On each trial, you will read a sentence, and will be shown a picture immediately following the sentence. </p>
                    <p style=""font-size:20px;""> Your task is to decide whether the object displayed in the picture was mentioned in the sentence or not </p>
                    <p style=""font-size:20px;""> and respond as quickly as possible by pressing <strong>S</strong> for yes or <strong>N</strong> for no. </p>
                    <p style=""font-size:20px;""> You will now do a practice session with feedback and instructions. </p>
                    <p style=""font-size:20px;""> Click the button below to continue.</p>
                    ","","","",""
"","","","","","instructions","77799","html-button-response","3","58392","0.0-3.0","70","3","2022-11-17 12:24:55","fd252370c17a9971d68c1d4354a03c2e","","Mozilla/5.0 (Windows NT 10.0; Win64; x64; rv:107.0) Gecko/20100101 Firefox/107.0","","Firefox","107.0","Windows","10.0","20176","0","","
                    <p style=""font-size:20px;""> You are about to begin the practice test. </p>
                    <p style=""font-size:20px;""> On each trial, a sentence will appear on the screen. You should press SPACEBAR when you have read and understood the sentence.</p>
                    <p style=""font-size:20px;""> After you press SPACEBAR, a picture will appear on the screen. </p>
                    <p style=""font-size:20px;""> You need to indicate whether or not the pictured object was mentioned in the sentence. </p>
                    <p style=""font-size:20px;""> If the object WAS mentioned in the preceding sentence, you should press <strong>S</strong> </p>
                    <p style=""font-size:20px;""> If the object was NOT mentioned in the preceding sentence, you should press <strong>N</strong>. </p>
                    <p style=""font-size:20px;""> Click the button below to continue to the practice session.</p>
                    ","","","",""
"","","","","","fixation","77799","html-keyboard-response","4","59400","0.0-4.0-0.0","70","3","2022-11-17 12:24:55","fd252370c17a9971d68c1d4354a03c2e","","Mozilla/5.0 (Windows NT 10.0; Win64; x64; rv:107.0) Gecko/20100101 Firefox/107.0","","Firefox","107.0","Windows","10.0","null","null","","<p style=""font-size: 48px;"">+</p>","practice","practice_s","",""
"","","","","","sentence","77799","html-keyboard-response","5","67513","0.0-4.0-1.0","70","3","2022-11-17 12:24:55","fd252370c17a9971d68c1d4354a03c2e","","Mozilla/5.0 (Windows NT 10.0; Win64; x64; rv:107.0) Gecko/20100101 Firefox/107.0","","Firefox","107.0","Windows","10.0","8107"," ","","A knife was placed on a hammer","practice","practice_s","",""
"","","","","","fixation","77799","html-keyboard-response","6","68039","0.0-4.0-2.0","70","3","2022-11-17 12:24:55","fd252370c17a9971d68c1d4354a03c2e","","Mozilla/5.0 (Windows NT 10.0; Win64; x64; rv:107.0) Gecko/20100101 Firefox/107.0","","Firefox","107.0","Windows","10.0","null","null","","<p style=""font-size: 48px;"">+</p>","practice","practice_s","",""
"","","","","","picture","77799","image-keyboard-response","7","73942","0.0-4.0-3.0","70","3","2022-11-17 12:24:55","fd252370c17a9971d68c1d4354a03c2e","","Mozilla/5.0 (Windows NT 10.0; Win64; x64; rv:107.0) Gecko/20100101 Firefox/107.0","","Firefox","107.0","Windows","10.0","5767","s","","hammerB.jpg","practice","practice_s","true",""
"","","","","","","","html-keyboard-response","8","75957","0.0-4.0-4.0","70","3","2022-11-17 12:24:55","fd252370c17a9971d68c1d4354a03c2e","","Mozilla/5.0 (Windows NT 10.0; Win64; x64; rv:107.0) Gecko/20100101 Firefox/107.0","","Firefox","107.0","Windows","10.0","null","null","","CORRECT!","","","",""
"","","","","","fixation","77799","html-keyboard-response","9","76976","0.0-4.0-0.1","70","3","2022-11-17 12:24:55","fd252370c17a9971d68c1d4354a03c2e","","Mozilla/5.0 (Windows NT 10.0; Win64; x64; rv:107.0) Gecko/20100101 Firefox/107.0","","Firefox","107.0","Windows","10.0","null","null","","<p style=""font-size: 48px;"">+</p>","practice","practice_n","",""
"","","","","","sentence","77799","html-keyboard-response","10","85810","0.0-4.0-1.1","70","3","2022-11-17 12:24:55","fd252370c17a9971d68c1d4354a03c2e","","Mozilla/5.0 (Windows NT 10.0; Win64; x64; rv:107.0) Gecko/20100101 Firefox/107.0","","Firefox","107.0","Windows","10.0","8828"," ","","A fork was placed on a stool","practice","practice_n","",""
"","","","","","fixation","77799","html-keyboard-response","11","86333","0.0-4.0-2.1","70","3","2022-11-17 12:24:55","fd252370c17a9971d68c1d4354a03c2e","","Mozilla/5.0 (Windows NT 10.0; Win64; x64; rv:107.0) Gecko/20100101 Firefox/107.0","","Firefox","107.0","Windows","10.0","null","null","","<p style=""font-size: 48px;"">+</p>","practice","practice_n","",""
"","","","","","picture","77799","image-keyboard-response","12","90002","0.0-4.0-3.1","70","3","2022-11-17 12:24:55","fd252370c17a9971d68c1d4354a03c2e","","Mozilla/5.0 (Windows NT 10.0; Win64; x64; rv:107.0) Gecko/20100101 Firefox/107.0","","Firefox","107.0","Windows","10.0","3661","s","","tableB.jpg","practice","practice_n","false",""
"","","","","","","","html-keyboard-response","13","92019","0.0-4.0-4.1","70","3","2022-11-17 12:24:55","fd252370c17a9971d68c1d4354a03c2e","","Mozilla/5.0 (Windows NT 10.0; Win64; x64; rv:107.0) Gecko/20100101 Firefox/107.0","","Firefox","107.0","Windows","10.0","null","null","","WRONG!","","","",""
"","","","","","fixation","77799","html-keyboard-response","14","93036","0.0-4.0-0.2","70","3","2022-11-17 12:24:55","fd252370c17a9971d68c1d4354a03c2e","","Mozilla/5.0 (Windows NT 10.0; Win64; x64; rv:107.0) Gecko/20100101 Firefox/107.0","","Firefox","107.0","Windows","10.0","null","null","","<p style=""font-size: 48px;"">+</p>","practice","practice_s","",""
"","","","","","sentence","77799","html-keyboard-response","15","104313","0.0-4.0-1.2","70","3","2022-11-17 12:24:55","fd252370c17a9971d68c1d4354a03c2e","","Mozilla/5.0 (Windows NT 10.0; Win64; x64; rv:107.0) Gecko/20100101 Firefox/107.0","","Firefox","107.0","Windows","10.0","11271"," ","","A bowling ball dropped and smashed a teacup","practice","practice_s","",""
"","","","","","fixation","77799","html-keyboard-response","16","104825","0.0-4.0-2.2","70","3","2022-11-17 12:24:55","fd252370c17a9971d68c1d4354a03c2e","","Mozilla/5.0 (Windows NT 10.0; Win64; x64; rv:107.0) Gecko/20100101 Firefox/107.0","","Firefox","107.0","Windows","10.0","null","null","","<p style=""font-size: 48px;"">+</p>","practice","practice_s","",""
"","","","","","picture","77799","image-keyboard-response","17","107556","0.0-4.0-3.2","70","3","2022-11-17 12:24:55","fd252370c17a9971d68c1d4354a03c2e","","Mozilla/5.0 (Windows NT 10.0; Win64; x64; rv:107.0) Gecko/20100101 Firefox/107.0","","Firefox","107.0","Windows","10.0","2717","n","","cupB.jpg","practice","practice_s","false",""
"","","","","","","","html-keyboard-response","18","109573","0.0-4.0-4.2","70","3","2022-11-17 12:24:55","fd252370c17a9971d68c1d4354a03c2e","","Mozilla/5.0 (Windows NT 10.0; Win64; x64; rv:107.0) Gecko/20100101 Firefox/107.0","","Firefox","107.0","Windows","10.0","null","null","","WRONG!","","","",""
"","","","","","fixation","77799","html-keyboard-response","19","110592","0.0-4.0-0.3","70","3","2022-11-17 12:24:55","fd252370c17a9971d68c1d4354a03c2e","","Mozilla/5.0 (Windows NT 10.0; Win64; x64; rv:107.0) Gecko/20100101 Firefox/107.0","","Firefox","107.0","Windows","10.0","null","null","","<p style=""font-size: 48px;"">+</p>","practice","practice_n","",""
"","","","","","sentence","77799","html-keyboard-response","20","123678","0.0-4.0-1.3","70","3","2022-11-17 12:24:55","fd252370c17a9971d68c1d4354a03c2e","","Mozilla/5.0 (Windows NT 10.0; Win64; x64; rv:107.0) Gecko/20100101 Firefox/107.0","","Firefox","107.0","Windows","10.0","13082"," ","","A balloon dropped and smashed a cup","practice","practice_n","",""
"","","","","","fixation","77799","html-keyboard-response","21","124191","0.0-4.0-2.3","70","3","2022-11-17 12:24:55","fd252370c17a9971d68c1d4354a03c2e","","Mozilla/5.0 (Windows NT 10.0; Win64; x64; rv:107.0) Gecko/20100101 Firefox/107.0","","Firefox","107.0","Windows","10.0","null","null","","<p style=""font-size: 48px;"">+</p>","practice","practice_n","",""
"","","","","","picture","77799","image-keyboard-response","22","126459","0.0-4.0-3.3","70","3","2022-11-17 12:24:55","fd252370c17a9971d68c1d4354a03c2e","","Mozilla/5.0 (Windows NT 10.0; Win64; x64; rv:107.0) Gecko/20100101 Firefox/107.0","","Firefox","107.0","Windows","10.0","2257","n","","bananaB.jpg","practice","practice_n","true",""
"","","","","","","","html-keyboard-response","23","128473","0.0-4.0-4.3","70","3","2022-11-17 12:24:55","fd252370c17a9971d68c1d4354a03c2e","","Mozilla/5.0 (Windows NT 10.0; Win64; x64; rv:107.0) Gecko/20100101 Firefox/107.0","","Firefox","107.0","Windows","10.0","null","null","","CORRECT!","","","",""
"","","","","","fixation","77799","html-keyboard-response","24","129490","0.0-4.0-0.4","70","3","2022-11-17 12:24:55","fd252370c17a9971d68c1d4354a03c2e","","Mozilla/5.0 (Windows NT 10.0; Win64; x64; rv:107.0) Gecko/20100101 Firefox/107.0","","Firefox","107.0","Windows","10.0","null","null","","<p style=""font-size: 48px;"">+</p>","practice","practice_n","",""
"","","","","","sentence","77799","html-keyboard-response","25","136528","0.0-4.0-1.4","70","3","2022-11-17 12:24:55","fd252370c17a9971d68c1d4354a03c2e","","Mozilla/5.0 (Windows NT 10.0; Win64; x64; rv:107.0) Gecko/20100101 Firefox/107.0","","Firefox","107.0","Windows","10.0","7030"," ","","A bowling ball dropped and touched a bottle","practice","practice_n","",""
"","","","","","fixation","77799","html-keyboard-response","26","137046","0.0-4.0-2.4","70","3","2022-11-17 12:24:55","fd252370c17a9971d68c1d4354a03c2e","","Mozilla/5.0 (Windows NT 10.0; Win64; x64; rv:107.0) Gecko/20100101 Firefox/107.0","","Firefox","107.0","Windows","10.0","null","null","","<p style=""font-size: 48px;"">+</p>","practice","practice_n","",""
"","","","","","picture","77799","image-keyboard-response","27","138698","0.0-4.0-3.4","70","3","2022-11-17 12:24:55","fd252370c17a9971d68c1d4354a03c2e","","Mozilla/5.0 (Windows NT 10.0; Win64; x64; rv:107.0) Gecko/20100101 Firefox/107.0","","Firefox","107.0","Windows","10.0","1635","n","","bookB.jpg","practice","practice_n","true",""
"","","","","","","","html-keyboard-response","28","140715","0.0-4.0-4.4","70","3","2022-11-17 12:24:55","fd252370c17a9971d68c1d4354a03c2e","","Mozilla/5.0 (Windows NT 10.0; Win64; x64; rv:107.0) Gecko/20100101 Firefox/107.0","","Firefox","107.0","Windows","10.0","null","null","","CORRECT!","","","",""
"","","","","","fixation","77799","html-keyboard-response","29","141733","0.0-4.0-0.5","70","3","2022-11-17 12:24:55","fd252370c17a9971d68c1d4354a03c2e","","Mozilla/5.0 (Windows NT 10.0; Win64; x64; rv:107.0) Gecko/20100101 Firefox/107.0","","Firefox","107.0","Windows","10.0","null","null","","<p style=""font-size: 48px;"">+</p>","practice","practice_s","",""
"","","","","","sentence","77799","html-keyboard-response","30","148187","0.0-4.0-1.5","70","3","2022-11-17 12:24:55","fd252370c17a9971d68c1d4354a03c2e","","Mozilla/5.0 (Windows NT 10.0; Win64; x64; rv:107.0) Gecko/20100101 Firefox/107.0","","Firefox","107.0","Windows","10.0","6448"," ","","A balloon dropped and touched a cigarette","practice","practice_s","",""
"","","","","","fixation","77799","html-keyboard-response","31","148695","0.0-4.0-2.5","70","3","2022-11-17 12:24:55","fd252370c17a9971d68c1d4354a03c2e","","Mozilla/5.0 (Windows NT 10.0; Win64; x64; rv:107.0) Gecko/20100101 Firefox/107.0","","Firefox","107.0","Windows","10.0","null","null","","<p style=""font-size: 48px;"">+</p>","practice","practice_s","",""
"","","","","","picture","77799","image-keyboard-response","32","150297","0.0-4.0-3.5","70","3","2022-11-17 12:24:55","fd252370c17a9971d68c1d4354a03c2e","","Mozilla/5.0 (Windows NT 10.0; Win64; x64; rv:107.0) Gecko/20100101 Firefox/107.0","","Firefox","107.0","Windows","10.0","1587","s","","cigaretteB.jpg","practice","practice_s","true",""
"","","","","","","","html-keyboard-response","33","152317","0.0-4.0-4.5","70","3","2022-11-17 12:24:55","fd252370c17a9971d68c1d4354a03c2e","","Mozilla/5.0 (Windows NT 10.0; Win64; x64; rv:107.0) Gecko/20100101 Firefox/107.0","","Firefox","107.0","Windows","10.0","null","null","","CORRECT!","","","",""
"","","","","","movetoexp","77799","html-button-response","34","166086","0.0-5.0","70","3","2022-11-17 12:24:55","fd252370c17a9971d68c1d4354a03c2e","","Mozilla/5.0 (Windows NT 10.0; Win64; x64; rv:107.0) Gecko/20100101 Firefox/107.0","","Firefox","107.0","Windows","10.0","13763","0","","<p style=""font-size:20px;"">You have now completed the practice session! </p>
                    <p style=""font-size:20px;"">You will now move on to the main experiment, where you will not be provided any feedback. </p>
                    <p style=""font-size:20px;"">Remember, you should press <strong>S</strong> if the pictured object was mentioned in the preceding sentence<br> and <strong>N</strong> if the pictured object was not mentioned in the preceding sentence.</p>
                    <p style=""font-size:20px;"">Please click the button below to continue to the main experiment. </p>","","","",""
"","","","","","fixation","77799","html-keyboard-response","35","167104","0.0-6.0-0.0","70","3","2022-11-17 12:24:55","fd252370c17a9971d68c1d4354a03c2e","","Mozilla/5.0 (Windows NT 10.0; Win64; x64; rv:107.0) Gecko/20100101 Firefox/107.0","","Firefox","107.0","Windows","10.0","null","null","","<p style=""font-size: 48px;"">+</p>","3","Light_Matched","",""
"","","","","","sentence","77799","html-keyboard-response","36","175904","0.0-6.0-1.0","70","3","2022-11-17 12:24:55","fd252370c17a9971d68c1d4354a03c2e","","Mozilla/5.0 (Windows NT 10.0; Win64; x64; rv:107.0) Gecko/20100101 Firefox/107.0","","Firefox","107.0","Windows","10.0","8795"," ","","A balloon dropped and touched a cracker","3","Light_Matched","",""
"","","","","","fixation","77799","html-keyboard-response","37","176437","0.0-6.0-2.0","70","3","2022-11-17 12:24:55","fd252370c17a9971d68c1d4354a03c2e","","Mozilla/5.0 (Windows NT 10.0; Win64; x64; rv:107.0) Gecko/20100101 Firefox/107.0","","Firefox","107.0","Windows","10.0","null","null","","<p style=""font-size: 48px;"">+</p>","3","Light_Matched","",""
"","","","","","picture","77799","image-keyboard-response","38","177671","0.0-6.0-3.0","70","3","2022-11-17 12:24:55","fd252370c17a9971d68c1d4354a03c2e","","Mozilla/5.0 (Windows NT 10.0; Win64; x64; rv:107.0) Gecko/20100101 Firefox/107.0","","Firefox","107.0","Windows","10.0","1223","s","","crackerS.jpg","3","Light_Matched","true",""
"","","","","","fixation","77799","html-keyboard-response","39","178678","0.0-6.0-0.1","70","3","2022-11-17 12:24:55","fd252370c17a9971d68c1d4354a03c2e","","Mozilla/5.0 (Windows NT 10.0; Win64; x64; rv:107.0) Gecko/20100101 Firefox/107.0","","Firefox","107.0","Windows","10.0","null","null","","<p style=""font-size: 48px;"">+</p>","3","Filler","",""
"","","","","","sentence","77799","html-keyboard-response","40","184060","0.0-6.0-1.1","70","3","2022-11-17 12:24:55","fd252370c17a9971d68c1d4354a03c2e","","Mozilla/5.0 (Windows NT 10.0; Win64; x64; rv:107.0) Gecko/20100101 Firefox/107.0","","Firefox","107.0","Windows","10.0","5377"," ","","A towel was placed on the TV","3","Filler","",""
"","","","","","fixation","77799","html-keyboard-response","41","184571","0.0-6.0-2.1","70","3","2022-11-17 12:24:55","fd252370c17a9971d68c1d4354a03c2e","","Mozilla/5.0 (Windows NT 10.0; Win64; x64; rv:107.0) Gecko/20100101 Firefox/107.0","","Firefox","107.0","Windows","10.0","null","null","","<p style=""font-size: 48px;"">+</p>","3","Filler","",""
"","","","","","picture","77799","image-keyboard-response","42","185870","0.0-6.0-3.1","70","3","2022-11-17 12:24:55","fd252370c17a9971d68c1d4354a03c2e","","Mozilla/5.0 (Windows NT 10.0; Win64; x64; rv:107.0) Gecko/20100101 Firefox/107.0","","Firefox","107.0","Windows","10.0","1281","n","","pencil.jpg","3","Filler","true",""
"","","","","","fixation","77799","html-keyboard-response","43","186891","0.0-6.0-0.2","70","3","2022-11-17 12:24:55","fd252370c17a9971d68c1d4354a03c2e","","Mozilla/5.0 (Windows NT 10.0; Win64; x64; rv:107.0) Gecko/20100101 Firefox/107.0","","Firefox","107.0","Windows","10.0","null","null","","<p style=""font-size: 48px;"">+</p>","3","Filler","",""
"","","","","","sentence","77799","html-keyboard-response","44","194005","0.0-6.0-1.2","70","3","2022-11-17 12:24:55","fd252370c17a9971d68c1d4354a03c2e","","Mozilla/5.0 (Windows NT 10.0; Win64; x64; rv:107.0) Gecko/20100101 Firefox/107.0","","Firefox","107.0","Windows","10.0","7110"," ","","A watch was placed on the laptop","3","Filler","",""
"","","","","","fixation","77799","html-keyboard-response","45","194533","0.0-6.0-2.2","70","3","2022-11-17 12:24:55","fd252370c17a9971d68c1d4354a03c2e","","Mozilla/5.0 (Windows NT 10.0; Win64; x64; rv:107.0) Gecko/20100101 Firefox/107.0","","Firefox","107.0","Windows","10.0","null","null","","<p style=""font-size: 48px;"">+</p>","3","Filler","",""
"","","","","","picture","77799","image-keyboard-response","46","198502","0.0-6.0-3.2","70","3","2022-11-17 12:24:55","fd252370c17a9971d68c1d4354a03c2e","","Mozilla/5.0 (Windows NT 10.0; Win64; x64; rv:107.0) Gecko/20100101 Firefox/107.0","","Firefox","107.0","Windows","10.0","3957","n","","bow.jpg","3","Filler","true",""
"","","","","","fixation","77799","html-keyboard-response","47","199519","0.0-6.0-0.3","70","3","2022-11-17 12:24:55","fd252370c17a9971d68c1d4354a03c2e","","Mozilla/5.0 (Windows NT 10.0; Win64; x64; rv:107.0) Gecko/20100101 Firefox/107.0","","Firefox","107.0","Windows","10.0","null","null","","<p style=""font-size: 48px;"">+</p>","3","Heavy_Contradictory","",""
"","","","","","sentence","77799","html-keyboard-response","48","204924","0.0-6.0-1.3","70","3","2022-11-17 12:24:55","fd252370c17a9971d68c1d4354a03c2e","","Mozilla/5.0 (Windows NT 10.0; Win64; x64; rv:107.0) Gecko/20100101 Firefox/107.0","","Firefox","107.0","Windows","10.0","5399"," ","","A bowling ball dropped and touched a vase","3","Heavy_Contradictory","",""
"","","","","","fixation","77799","html-keyboard-response","49","205439","0.0-6.0-2.3","70","3","2022-11-17 12:24:55","fd252370c17a9971d68c1d4354a03c2e","","Mozilla/5.0 (Windows NT 10.0; Win64; x64; rv:107.0) Gecko/20100101 Firefox/107.0","","Firefox","107.0","Windows","10.0","null","null","","<p style=""font-size: 48px;"">+</p>","3","Heavy_Contradictory","",""
"","","","","","picture","77799","image-keyboard-response","50","210760","0.0-6.0-3.3","70","3","2022-11-17 12:24:55","fd252370c17a9971d68c1d4354a03c2e","","Mozilla/5.0 (Windows NT 10.0; Win64; x64; rv:107.0) Gecko/20100101 Firefox/107.0","","Firefox","107.0","Windows","10.0","5310","s","","vaseS.jpg","3","Heavy_Contradictory","true",""
"","","","","","fixation","77799","html-keyboard-response","51","211768","0.0-6.0-0.4","70","3","2022-11-17 12:24:55","fd252370c17a9971d68c1d4354a03c2e","","Mozilla/5.0 (Windows NT 10.0; Win64; x64; rv:107.0) Gecko/20100101 Firefox/107.0","","Firefox","107.0","Windows","10.0","null","null","","<p style=""font-size: 48px;"">+</p>","3","Filler","",""
"","","","","","sentence","77799","html-keyboard-response","52","218113","0.0-6.0-1.4","70","3","2022-11-17 12:24:55","fd252370c17a9971d68c1d4354a03c2e","","Mozilla/5.0 (Windows NT 10.0; Win64; x64; rv:107.0) Gecko/20100101 Firefox/107.0","","Firefox","107.0","Windows","10.0","6338"," ","","A president is writing in the notebook","3","Filler","",""
"","","","","","fixation","77799","html-keyboard-response","53","218632","0.0-6.0-2.4","70","3","2022-11-17 12:24:55","fd252370c17a9971d68c1d4354a03c2e","","Mozilla/5.0 (Windows NT 10.0; Win64; x64; rv:107.0) Gecko/20100101 Firefox/107.0","","Firefox","107.0","Windows","10.0","null","null","","<p style=""font-size: 48px;"">+</p>","3","Filler","",""
"","","","","","picture","77799","image-keyboard-response","54","220929","0.0-6.0-3.4","70","3","2022-11-17 12:24:55","fd252370c17a9971d68c1d4354a03c2e","","Mozilla/5.0 (Windows NT 10.0; Win64; x64; rv:107.0) Gecko/20100101 Firefox/107.0","","Firefox","107.0","Windows","10.0","2275","n","","can.jpg","3","Filler","true",""
"","","","","","fixation","77799","html-keyboard-response","55","221943","0.0-6.0-0.5","70","3","2022-11-17 12:24:55","fd252370c17a9971d68c1d4354a03c2e","","Mozilla/5.0 (Windows NT 10.0; Win64; x64; rv:107.0) Gecko/20100101 Firefox/107.0","","Firefox","107.0","Windows","10.0","null","null","","<p style=""font-size: 48px;"">+</p>","3","Filler","",""
"","","","","","sentence","77799","html-keyboard-response","56","225523","0.0-6.0-1.5","70","3","2022-11-17 12:24:55","fd252370c17a9971d68c1d4354a03c2e","","Mozilla/5.0 (Windows NT 10.0; Win64; x64; rv:107.0) Gecko/20100101 Firefox/107.0","","Firefox","107.0","Windows","10.0","3574"," ","","A thief is stealing a wallet","3","Filler","",""
"","","","","","fixation","77799","html-keyboard-response","57","226031","0.0-6.0-2.5","70","3","2022-11-17 12:24:55","fd252370c17a9971d68c1d4354a03c2e","","Mozilla/5.0 (Windows NT 10.0; Win64; x64; rv:107.0) Gecko/20100101 Firefox/107.0","","Firefox","107.0","Windows","10.0","null","null","","<p style=""font-size: 48px;"">+</p>","3","Filler","",""
"","","","","","picture","77799","image-keyboard-response","58","227395","0.0-6.0-3.5","70","3","2022-11-17 12:24:55","fd252370c17a9971d68c1d4354a03c2e","","Mozilla/5.0 (Windows NT 10.0; Win64; x64; rv:107.0) Gecko/20100101 Firefox/107.0","","Firefox","107.0","Windows","10.0","1347","n","","teddybear.jpg","3","Filler","true",""
"","","","","","fixation","77799","html-keyboard-response","59","228405","0.0-6.0-0.6","70","3","2022-11-17 12:24:55","fd252370c17a9971d68c1d4354a03c2e","","Mozilla/5.0 (Windows NT 10.0; Win64; x64; rv:107.0) Gecko/20100101 Firefox/107.0","","Firefox","107.0","Windows","10.0","null","null","","<p style=""font-size: 48px;"">+</p>","3","Filler","",""
"","","","","","sentence","77799","html-keyboard-response","60","232325","0.0-6.0-1.6","70","3","2022-11-17 12:24:55","fd252370c17a9971d68c1d4354a03c2e","","Mozilla/5.0 (Windows NT 10.0; Win64; x64; rv:107.0) Gecko/20100101 Firefox/107.0","","Firefox","107.0","Windows","10.0","3914"," ","","A hairdresser is taking scissors","3","Filler","",""
"","","","","","fixation","77799","html-keyboard-response","61","232841","0.0-6.0-2.6","70","3","2022-11-17 12:24:55","fd252370c17a9971d68c1d4354a03c2e","","Mozilla/5.0 (Windows NT 10.0; Win64; x64; rv:107.0) Gecko/20100101 Firefox/107.0","","Firefox","107.0","Windows","10.0","null","null","","<p style=""font-size: 48px;"">+</p>","3","Filler","",""
"","","","","","picture","77799","image-keyboard-response","62","234052","0.0-6.0-3.6","70","3","2022-11-17 12:24:55","fd252370c17a9971d68c1d4354a03c2e","","Mozilla/5.0 (Windows NT 10.0; Win64; x64; rv:107.0) Gecko/20100101 Firefox/107.0","","Firefox","107.0","Windows","10.0","1198","n","","sock.jpg","3","Filler","true",""
"","","","","","fixation","77799","html-keyboard-response","63","235072","0.0-6.0-0.7","70","3","2022-11-17 12:24:55","fd252370c17a9971d68c1d4354a03c2e","","Mozilla/5.0 (Windows NT 10.0; Win64; x64; rv:107.0) Gecko/20100101 Firefox/107.0","","Firefox","107.0","Windows","10.0","null","null","","<p style=""font-size: 48px;"">+</p>","3","Light_Contradictory","",""
"","","","","","sentence","77799","html-keyboard-response","64","239484","0.0-6.0-1.7","70","3","2022-11-17 12:24:55","fd252370c17a9971d68c1d4354a03c2e","","Mozilla/5.0 (Windows NT 10.0; Win64; x64; rv:107.0) Gecko/20100101 Firefox/107.0","","Firefox","107.0","Windows","10.0","4404"," ","","A balloon dropped and smashed an iPAD","3","Light_Contradictory","",""
"","","","","","fixation","77799","html-keyboard-response","65","240001","0.0-6.0-2.7","70","3","2022-11-17 12:24:55","fd252370c17a9971d68c1d4354a03c2e","","Mozilla/5.0 (Windows NT 10.0; Win64; x64; rv:107.0) Gecko/20100101 Firefox/107.0","","Firefox","107.0","Windows","10.0","null","null","","<p style=""font-size: 48px;"">+</p>","3","Light_Contradictory","",""
"","","","","","picture","77799","image-keyboard-response","66","241196","0.0-6.0-3.7","70","3","2022-11-17 12:24:55","fd252370c17a9971d68c1d4354a03c2e","","Mozilla/5.0 (Windows NT 10.0; Win64; x64; rv:107.0) Gecko/20100101 Firefox/107.0","","Firefox","107.0","Windows","10.0","1181","s","","iPadS.jpg","3","Light_Contradictory","true",""
"","","","","","fixation","77799","html-keyboard-response","67","242212","0.0-6.0-0.8","70","3","2022-11-17 12:24:55","fd252370c17a9971d68c1d4354a03c2e","","Mozilla/5.0 (Windows NT 10.0; Win64; x64; rv:107.0) Gecko/20100101 Firefox/107.0","","Firefox","107.0","Windows","10.0","null","null","","<p style=""font-size: 48px;"">+</p>","3","Filler","",""
"","","","","","sentence","77799","html-keyboard-response","68","244746","0.0-6.0-1.8","70","3","2022-11-17 12:24:55","fd252370c17a9971d68c1d4354a03c2e","","Mozilla/5.0 (Windows NT 10.0; Win64; x64; rv:107.0) Gecko/20100101 Firefox/107.0","","Firefox","107.0","Windows","10.0","2527"," ","","A donkey is drinking water.","3","Filler","",""
"","","","","","fixation","77799","html-keyboard-response","69","245254","0.0-6.0-2.8","70","3","2022-11-17 12:24:55","fd252370c17a9971d68c1d4354a03c2e","","Mozilla/5.0 (Windows NT 10.0; Win64; x64; rv:107.0) Gecko/20100101 Firefox/107.0","","Firefox","107.0","Windows","10.0","null","null","","<p style=""font-size: 48px;"">+</p>","3","Filler","",""
"","","","","","picture","77799","image-keyboard-response","70","246367","0.0-6.0-3.8","70","3","2022-11-17 12:24:55","fd252370c17a9971d68c1d4354a03c2e","","Mozilla/5.0 (Windows NT 10.0; Win64; x64; rv:107.0) Gecko/20100101 Firefox/107.0","","Firefox","107.0","Windows","10.0","1097","n","","couch.jpg","3","Filler","true",""
"","","","","","fixation","77799","html-keyboard-response","71","247386","0.0-6.0-0.9","70","3","2022-11-17 12:24:55","fd252370c17a9971d68c1d4354a03c2e","","Mozilla/5.0 (Windows NT 10.0; Win64; x64; rv:107.0) Gecko/20100101 Firefox/107.0","","Firefox","107.0","Windows","10.0","null","null","","<p style=""font-size: 48px;"">+</p>","3","Filler","",""
"","","","","","sentence","77799","html-keyboard-response","72","252074","0.0-6.0-1.9","70","3","2022-11-17 12:24:55","fd252370c17a9971d68c1d4354a03c2e","","Mozilla/5.0 (Windows NT 10.0; Win64; x64; rv:107.0) Gecko/20100101 Firefox/107.0","","Firefox","107.0","Windows","10.0","4683"," ","","A needle was placed on the mouse pad","3","Filler","",""
"","","","","","fixation","77799","html-keyboard-response","73","252592","0.0-6.0-2.9","70","3","2022-11-17 12:24:55","fd252370c17a9971d68c1d4354a03c2e","","Mozilla/5.0 (Windows NT 10.0; Win64; x64; rv:107.0) Gecko/20100101 Firefox/107.0","","Firefox","107.0","Windows","10.0","null","null","","<p style=""font-size: 48px;"">+</p>","3","Filler","",""
"","","","","","picture","77799","image-keyboard-response","74","253646","0.0-6.0-3.9","70","3","2022-11-17 12:24:55","fd252370c17a9971d68c1d4354a03c2e","","Mozilla/5.0 (Windows NT 10.0; Win64; x64; rv:107.0) Gecko/20100101 Firefox/107.0","","Firefox","107.0","Windows","10.0","1038","n","","chocolate.jpg","3","Filler","true",""
"","","","","","fixation","77799","html-keyboard-response","75","254662","0.0-6.0-0.10","70","3","2022-11-17 12:24:55","fd252370c17a9971d68c1d4354a03c2e","","Mozilla/5.0 (Windows NT 10.0; Win64; x64; rv:107.0) Gecko/20100101 Firefox/107.0","","Firefox","107.0","Windows","10.0","null","null","","<p style=""font-size: 48px;"">+</p>","3","Filler","",""
"","","","","","sentence","77799","html-keyboard-response","76","259109","0.0-6.0-1.10","70","3","2022-11-17 12:24:55","fd252370c17a9971d68c1d4354a03c2e","","Mozilla/5.0 (Windows NT 10.0; Win64; x64; rv:107.0) Gecko/20100101 Firefox/107.0","","Firefox","107.0","Windows","10.0","4441"," ","","A photographer is taking a photo of a lion","3","Filler","",""
"","","","","","fixation","77799","html-keyboard-response","77","259628","0.0-6.0-2.10","70","3","2022-11-17 12:24:55","fd252370c17a9971d68c1d4354a03c2e","","Mozilla/5.0 (Windows NT 10.0; Win64; x64; rv:107.0) Gecko/20100101 Firefox/107.0","","Firefox","107.0","Windows","10.0","null","null","","<p style=""font-size: 48px;"">+</p>","3","Filler","",""
"","","","","","picture","77799","image-keyboard-response","78","260502","0.0-6.0-3.10","70","3","2022-11-17 12:24:55","fd252370c17a9971d68c1d4354a03c2e","","Mozilla/5.0 (Windows NT 10.0; Win64; x64; rv:107.0) Gecko/20100101 Firefox/107.0","","Firefox","107.0","Windows","10.0","850","s","","lion.jpg","3","Filler","true",""
"","","","","","fixation","77799","html-keyboard-response","79","261525","0.0-6.0-0.11","70","3","2022-11-17 12:24:55","fd252370c17a9971d68c1d4354a03c2e","","Mozilla/5.0 (Windows NT 10.0; Win64; x64; rv:107.0) Gecko/20100101 Firefox/107.0","","Firefox","107.0","Windows","10.0","null","null","","<p style=""font-size: 48px;"">+</p>","3","Filler","",""
"","","","","","sentence","77799","html-keyboard-response","80","264600","0.0-6.0-1.11","70","3","2022-11-17 12:24:55","fd252370c17a9971d68c1d4354a03c2e","","Mozilla/5.0 (Windows NT 10.0; Win64; x64; rv:107.0) Gecko/20100101 Firefox/107.0","","Firefox","107.0","Windows","10.0","3064"," ","","A zebra is playing with a horse","3","Filler","",""
"","","","","","fixation","77799","html-keyboard-response","81","265117","0.0-6.0-2.11","70","3","2022-11-17 12:24:55","fd252370c17a9971d68c1d4354a03c2e","","Mozilla/5.0 (Windows NT 10.0; Win64; x64; rv:107.0) Gecko/20100101 Firefox/107.0","","Firefox","107.0","Windows","10.0","null","null","","<p style=""font-size: 48px;"">+</p>","3","Filler","",""
"","","","","","picture","77799","image-keyboard-response","82","266119","0.0-6.0-3.11","70","3","2022-11-17 12:24:55","fd252370c17a9971d68c1d4354a03c2e","","Mozilla/5.0 (Windows NT 10.0; Win64; x64; rv:107.0) Gecko/20100101 Firefox/107.0","","Firefox","107.0","Windows","10.0","991","n","","watch.jpg","3","Filler","true",""
"","","","","","fixation","77799","html-keyboard-response","83","267138","0.0-6.0-0.12","70","3","2022-11-17 12:24:55","fd252370c17a9971d68c1d4354a03c2e","","Mozilla/5.0 (Windows NT 10.0; Win64; x64; rv:107.0) Gecko/20100101 Firefox/107.0","","Firefox","107.0","Windows","10.0","null","null","","<p style=""font-size: 48px;"">+</p>","3","Heavy_Matched","",""
"","","","","","sentence","77799","html-keyboard-response","84","270647","0.0-6.0-1.12","70","3","2022-11-17 12:24:55","fd252370c17a9971d68c1d4354a03c2e","","Mozilla/5.0 (Windows NT 10.0; Win64; x64; rv:107.0) Gecko/20100101 Firefox/107.0","","Firefox","107.0","Windows","10.0","3503"," ","","A bowling ball dropped and smashed a rice cake","3","Heavy_Matched","",""
"","","","","","fixation","77799","html-keyboard-response","85","271168","0.0-6.0-2.12","70","3","2022-11-17 12:24:55","fd252370c17a9971d68c1d4354a03c2e","","Mozilla/5.0 (Windows NT 10.0; Win64; x64; rv:107.0) Gecko/20100101 Firefox/107.0","","Firefox","107.0","Windows","10.0","null","null","","<p style=""font-size: 48px;"">+</p>","3","Heavy_Matched","",""
"","","","","","picture","77799","image-keyboard-response","86","272262","0.0-6.0-3.12","70","3","2022-11-17 12:24:55","fd252370c17a9971d68c1d4354a03c2e","","Mozilla/5.0 (Windows NT 10.0; Win64; x64; rv:107.0) Gecko/20100101 Firefox/107.0","","Firefox","107.0","Windows","10.0","1074","s","","tortitaS.jpg","3","Heavy_Matched","true",""
"","","","","","fixation","77799","html-keyboard-response","87","273286","0.0-6.0-0.13","70","3","2022-11-17 12:24:55","fd252370c17a9971d68c1d4354a03c2e","","Mozilla/5.0 (Windows NT 10.0; Win64; x64; rv:107.0) Gecko/20100101 Firefox/107.0","","Firefox","107.0","Windows","10.0","null","null","","<p style=""font-size: 48px;"">+</p>","3","Light_Matched","",""
"","","","","","sentence","77799","html-keyboard-response","88","278112","0.0-6.0-1.13","70","3","2022-11-17 12:24:55","fd252370c17a9971d68c1d4354a03c2e","","Mozilla/5.0 (Windows NT 10.0; Win64; x64; rv:107.0) Gecko/20100101 Firefox/107.0","","Firefox","107.0","Windows","10.0","4822"," ","","A balloon dropped and touched a porcelain figure","3","Light_Matched","",""
"","","","","","fixation","77799","html-keyboard-response","89","278632","0.0-6.0-2.13","70","3","2022-11-17 12:24:55","fd252370c17a9971d68c1d4354a03c2e","","Mozilla/5.0 (Windows NT 10.0; Win64; x64; rv:107.0) Gecko/20100101 Firefox/107.0","","Firefox","107.0","Windows","10.0","null","null","","<p style=""font-size: 48px;"">+</p>","3","Light_Matched","",""
"","","","","","picture","77799","image-keyboard-response","90","281172","0.0-6.0-3.13","70","3","2022-11-17 12:24:55","fd252370c17a9971d68c1d4354a03c2e","","Mozilla/5.0 (Windows NT 10.0; Win64; x64; rv:107.0) Gecko/20100101 Firefox/107.0","","Firefox","107.0","Windows","10.0","2525","s","","figureS.jpg","3","Light_Matched","true",""
"","","","","","fixation","77799","html-keyboard-response","91","282189","0.0-6.0-0.14","70","3","2022-11-17 12:24:55","fd252370c17a9971d68c1d4354a03c2e","","Mozilla/5.0 (Windows NT 10.0; Win64; x64; rv:107.0) Gecko/20100101 Firefox/107.0","","Firefox","107.0","Windows","10.0","null","null","","<p style=""font-size: 48px;"">+</p>","3","Heavy_Matched","",""
"","","","","","sentence","77799","html-keyboard-response","92","284384","0.0-6.0-1.14","70","3","2022-11-17 12:24:55","fd252370c17a9971d68c1d4354a03c2e","","Mozilla/5.0 (Windows NT 10.0; Win64; x64; rv:107.0) Gecko/20100101 Firefox/107.0","","Firefox","107.0","Windows","10.0","2184"," ","","A bowling ball dropped and smashed a chocolate muffin","3","Heavy_Matched","",""
"","","","","","fixation","77799","html-keyboard-response","93","284904","0.0-6.0-2.14","70","3","2022-11-17 12:24:55","fd252370c17a9971d68c1d4354a03c2e","","Mozilla/5.0 (Windows NT 10.0; Win64; x64; rv:107.0) Gecko/20100101 Firefox/107.0","","Firefox","107.0","Windows","10.0","null","null","","<p style=""font-size: 48px;"">+</p>","3","Heavy_Matched","",""
"","","","","","picture","77799","image-keyboard-response","94","286055","0.0-6.0-3.14","70","3","2022-11-17 12:24:55","fd252370c17a9971d68c1d4354a03c2e","","Mozilla/5.0 (Windows NT 10.0; Win64; x64; rv:107.0) Gecko/20100101 Firefox/107.0","","Firefox","107.0","Windows","10.0","1132","s","","muffinS.jpg","3","Heavy_Matched","true",""
"","","","","","fixation","77799","html-keyboard-response","95","287066","0.0-6.0-0.15","70","3","2022-11-17 12:24:55","fd252370c17a9971d68c1d4354a03c2e","","Mozilla/5.0 (Windows NT 10.0; Win64; x64; rv:107.0) Gecko/20100101 Firefox/107.0","","Firefox","107.0","Windows","10.0","null","null","","<p style=""font-size: 48px;"">+</p>","3","Filler","",""
"","","","","","sentence","77799","html-keyboard-response","96","289898","0.0-6.0-1.15","70","3","2022-11-17 12:24:55","fd252370c17a9971d68c1d4354a03c2e","","Mozilla/5.0 (Windows NT 10.0; Win64; x64; rv:107.0) Gecko/20100101 Firefox/107.0","","Firefox","107.0","Windows","10.0","2828"," ","","A ring was placed on the newspaper","3","Filler","",""
"","","","","","fixation","77799","html-keyboard-response","97","290413","0.0-6.0-2.15","70","3","2022-11-17 12:24:55","fd252370c17a9971d68c1d4354a03c2e","","Mozilla/5.0 (Windows NT 10.0; Win64; x64; rv:107.0) Gecko/20100101 Firefox/107.0","","Firefox","107.0","Windows","10.0","null","null","","<p style=""font-size: 48px;"">+</p>","3","Filler","",""
"","","","","","picture","77799","image-keyboard-response","98","291380","0.0-6.0-3.15","70","3","2022-11-17 12:24:55","fd252370c17a9971d68c1d4354a03c2e","","Mozilla/5.0 (Windows NT 10.0; Win64; x64; rv:107.0) Gecko/20100101 Firefox/107.0","","Firefox","107.0","Windows","10.0","949","n","","cat.jpg","3","Filler","true",""
"","","","","","fixation","77799","html-keyboard-response","99","292411","0.0-6.0-0.16","70","3","2022-11-17 12:24:55","fd252370c17a9971d68c1d4354a03c2e","","Mozilla/5.0 (Windows NT 10.0; Win64; x64; rv:107.0) Gecko/20100101 Firefox/107.0","","Firefox","107.0","Windows","10.0","null","null","","<p style=""font-size: 48px;"">+</p>","3","Filler","",""
"","","","","","sentence","77799","html-keyboard-response","100","294618","0.0-6.0-1.16","70","3","2022-11-17 12:24:55","fd252370c17a9971d68c1d4354a03c2e","","Mozilla/5.0 (Windows NT 10.0; Win64; x64; rv:107.0) Gecko/20100101 Firefox/107.0","","Firefox","107.0","Windows","10.0","2202"," ","","A horse is chewing hay","3","Filler","",""
"","","","","","fixation","77799","html-keyboard-response","101","295129","0.0-6.0-2.16","70","3","2022-11-17 12:24:55","fd252370c17a9971d68c1d4354a03c2e","","Mozilla/5.0 (Windows NT 10.0; Win64; x64; rv:107.0) Gecko/20100101 Firefox/107.0","","Firefox","107.0","Windows","10.0","null","null","","<p style=""font-size: 48px;"">+</p>","3","Filler","",""
"","","","","","picture","77799","image-keyboard-response","102","295789","0.0-6.0-3.16","70","3","2022-11-17 12:24:55","fd252370c17a9971d68c1d4354a03c2e","","Mozilla/5.0 (Windows NT 10.0; Win64; x64; rv:107.0) Gecko/20100101 Firefox/107.0","","Firefox","107.0","Windows","10.0","648","n","","purse.jpg","3","Filler","true",""
"","","","","","fixation","77799","html-keyboard-response","103","296808","0.0-6.0-0.17","70","3","2022-11-17 12:24:55","fd252370c17a9971d68c1d4354a03c2e","","Mozilla/5.0 (Windows NT 10.0; Win64; x64; rv:107.0) Gecko/20100101 Firefox/107.0","","Firefox","107.0","Windows","10.0","null","null","","<p style=""font-size: 48px;"">+</p>","3","Light_Matched","",""
"","","","","","sentence","77799","html-keyboard-response","104","300632","0.0-6.0-1.17","70","3","2022-11-17 12:24:55","fd252370c17a9971d68c1d4354a03c2e","","Mozilla/5.0 (Windows NT 10.0; Win64; x64; rv:107.0) Gecko/20100101 Firefox/107.0","","Firefox","107.0","Windows","10.0","3815"," ","","A balloon dropped and touched a wineglass","3","Light_Matched","",""
"","","","","","fixation","77799","html-keyboard-response","105","301149","0.0-6.0-2.17","70","3","2022-11-17 12:24:55","fd252370c17a9971d68c1d4354a03c2e","","Mozilla/5.0 (Windows NT 10.0; Win64; x64; rv:107.0) Gecko/20100101 Firefox/107.0","","Firefox","107.0","Windows","10.0","null","null","","<p style=""font-size: 48px;"">+</p>","3","Light_Matched","",""
"","","","","","picture","77799","image-keyboard-response","106","301985","0.0-6.0-3.17","70","3","2022-11-17 12:24:55","fd252370c17a9971d68c1d4354a03c2e","","Mozilla/5.0 (Windows NT 10.0; Win64; x64; rv:107.0) Gecko/20100101 Firefox/107.0","","Firefox","107.0","Windows","10.0","824","s","","wineglassS.jpg","3","Light_Matched","true",""
"","","","","","fixation","77799","html-keyboard-response","107","302999","0.0-6.0-0.18","70","3","2022-11-17 12:24:55","fd252370c17a9971d68c1d4354a03c2e","","Mozilla/5.0 (Windows NT 10.0; Win64; x64; rv:107.0) Gecko/20100101 Firefox/107.0","","Firefox","107.0","Windows","10.0","null","null","","<p style=""font-size: 48px;"">+</p>","3","Light_Matched","",""
"","","","","","sentence","77799","html-keyboard-response","108","307579","0.0-6.0-1.18","70","3","2022-11-17 12:24:55","fd252370c17a9971d68c1d4354a03c2e","","Mozilla/5.0 (Windows NT 10.0; Win64; x64; rv:107.0) Gecko/20100101 Firefox/107.0","","Firefox","107.0","Windows","10.0","4571"," ","","A balloon dropped and touched a piece of cake","3","Light_Matched","",""
"","","","","","fixation","77799","html-keyboard-response","109","308127","0.0-6.0-2.18","70","3","2022-11-17 12:24:55","fd252370c17a9971d68c1d4354a03c2e","","Mozilla/5.0 (Windows NT 10.0; Win64; x64; rv:107.0) Gecko/20100101 Firefox/107.0","","Firefox","107.0","Windows","10.0","null","null","","<p style=""font-size: 48px;"">+</p>","3","Light_Matched","",""
"","","","","","picture","77799","image-keyboard-response","110","309880","0.0-6.0-3.18","70","3","2022-11-17 12:24:55","fd252370c17a9971d68c1d4354a03c2e","","Mozilla/5.0 (Windows NT 10.0; Win64; x64; rv:107.0) Gecko/20100101 Firefox/107.0","","Firefox","107.0","Windows","10.0","1742","s","","cakeS.jpg","3","Light_Matched","true",""
"","","","","","fixation","77799","html-keyboard-response","111","310889","0.0-6.0-0.19","70","3","2022-11-17 12:24:55","fd252370c17a9971d68c1d4354a03c2e","","Mozilla/5.0 (Windows NT 10.0; Win64; x64; rv:107.0) Gecko/20100101 Firefox/107.0","","Firefox","107.0","Windows","10.0","null","null","","<p style=""font-size: 48px;"">+</p>","3","Filler","",""
"","","","","","sentence","77799","html-keyboard-response","112","316489","0.0-6.0-1.19","70","3","2022-11-17 12:24:55","fd252370c17a9971d68c1d4354a03c2e","","Mozilla/5.0 (Windows NT 10.0; Win64; x64; rv:107.0) Gecko/20100101 Firefox/107.0","","Firefox","107.0","Windows","10.0","5593"," ","","A puppy is playing with a ball","3","Filler","",""
"","","","","","fixation","77799","html-keyboard-response","113","317013","0.0-6.0-2.19","70","3","2022-11-17 12:24:55","fd252370c17a9971d68c1d4354a03c2e","","Mozilla/5.0 (Windows NT 10.0; Win64; x64; rv:107.0) Gecko/20100101 Firefox/107.0","","Firefox","107.0","Windows","10.0","null","null","","<p style=""font-size: 48px;"">+</p>","3","Filler","",""
"","","","","","picture","77799","image-keyboard-response","114","318321","0.0-6.0-3.19","70","3","2022-11-17 12:24:55","fd252370c17a9971d68c1d4354a03c2e","","Mozilla/5.0 (Windows NT 10.0; Win64; x64; rv:107.0) Gecko/20100101 Firefox/107.0","","Firefox","107.0","Windows","10.0","1290","s","","tennisball.jpg","3","Filler","true",""
"","","","","","fixation","77799","html-keyboard-response","115","319335","0.0-6.0-0.20","70","3","2022-11-17 12:24:55","fd252370c17a9971d68c1d4354a03c2e","","Mozilla/5.0 (Windows NT 10.0; Win64; x64; rv:107.0) Gecko/20100101 Firefox/107.0","","Firefox","107.0","Windows","10.0","null","null","","<p style=""font-size: 48px;"">+</p>","3","Light_Contradictory","",""
"","","","","","sentence","77799","html-keyboard-response","116","321881","0.0-6.0-1.20","70","3","2022-11-17 12:24:55","fd252370c17a9971d68c1d4354a03c2e","","Mozilla/5.0 (Windows NT 10.0; Win64; x64; rv:107.0) Gecko/20100101 Firefox/107.0","","Firefox","107.0","Windows","10.0","2534"," ","","A balloon dropped and smashed glasses","3","Light_Contradictory","",""
"","","","","","fixation","77799","html-keyboard-response","117","322409","0.0-6.0-2.20","70","3","2022-11-17 12:24:55","fd252370c17a9971d68c1d4354a03c2e","","Mozilla/5.0 (Windows NT 10.0; Win64; x64; rv:107.0) Gecko/20100101 Firefox/107.0","","Firefox","107.0","Windows","10.0","null","null","","<p style=""font-size: 48px;"">+</p>","3","Light_Contradictory","",""
"","","","","","picture","77799","image-keyboard-response","118","323393","0.0-6.0-3.20","70","3","2022-11-17 12:24:55","fd252370c17a9971d68c1d4354a03c2e","","Mozilla/5.0 (Windows NT 10.0; Win64; x64; rv:107.0) Gecko/20100101 Firefox/107.0","","Firefox","107.0","Windows","10.0","957","s","","glassesS.jpg","3","Light_Contradictory","true",""
"","","","","","fixation","77799","html-keyboard-response","119","324416","0.0-6.0-0.21","70","3","2022-11-17 12:24:55","fd252370c17a9971d68c1d4354a03c2e","","Mozilla/5.0 (Windows NT 10.0; Win64; x64; rv:107.0) Gecko/20100101 Firefox/107.0","","Firefox","107.0","Windows","10.0","null","null","","<p style=""font-size: 48px;"">+</p>","3","Heavy_Matched","",""
"","","","","","sentence","77799","html-keyboard-response","120","326704","0.0-6.0-1.21","70","3","2022-11-17 12:24:55","fd252370c17a9971d68c1d4354a03c2e","","Mozilla/5.0 (Windows NT 10.0; Win64; x64; rv:107.0) Gecko/20100101 Firefox/107.0","","Firefox","107.0","Windows","10.0","2274"," ","","A bowling ball dropped and smashed a donut","3","Heavy_Matched","",""
"","","","","","fixation","77799","html-keyboard-response","121","327224","0.0-6.0-2.21","70","3","2022-11-17 12:24:55","fd252370c17a9971d68c1d4354a03c2e","","Mozilla/5.0 (Windows NT 10.0; Win64; x64; rv:107.0) Gecko/20100101 Firefox/107.0","","Firefox","107.0","Windows","10.0","null","null","","<p style=""font-size: 48px;"">+</p>","3","Heavy_Matched","",""
"","","","","","picture","77799","image-keyboard-response","122","328112","0.0-6.0-3.21","70","3","2022-11-17 12:24:55","fd252370c17a9971d68c1d4354a03c2e","","Mozilla/5.0 (Windows NT 10.0; Win64; x64; rv:107.0) Gecko/20100101 Firefox/107.0","","Firefox","107.0","Windows","10.0","871","s","","donutS.jpg","3","Heavy_Matched","true",""
"","","","","","fixation","77799","html-keyboard-response","123","329136","0.0-6.0-0.22","70","3","2022-11-17 12:24:55","fd252370c17a9971d68c1d4354a03c2e","","Mozilla/5.0 (Windows NT 10.0; Win64; x64; rv:107.0) Gecko/20100101 Firefox/107.0","","Firefox","107.0","Windows","10.0","null","null","","<p style=""font-size: 48px;"">+</p>","3","Filler","",""
"","","","","","sentence","77799","html-keyboard-response","124","331621","0.0-6.0-1.22","70","3","2022-11-17 12:24:55","fd252370c17a9971d68c1d4354a03c2e","","Mozilla/5.0 (Windows NT 10.0; Win64; x64; rv:107.0) Gecko/20100101 Firefox/107.0","","Firefox","107.0","Windows","10.0","2478"," ","","A teenage girl is playing the piano","3","Filler","",""
"","","","","","fixation","77799","html-keyboard-response","125","332133","0.0-6.0-2.22","70","3","2022-11-17 12:24:55","fd252370c17a9971d68c1d4354a03c2e","","Mozilla/5.0 (Windows NT 10.0; Win64; x64; rv:107.0) Gecko/20100101 Firefox/107.0","","Firefox","107.0","Windows","10.0","null","null","","<p style=""font-size: 48px;"">+</p>","3","Filler","",""
"","","","","","picture","77799","image-keyboard-response","126","332957","0.0-6.0-3.22","70","3","2022-11-17 12:24:55","fd252370c17a9971d68c1d4354a03c2e","","Mozilla/5.0 (Windows NT 10.0; Win64; x64; rv:107.0) Gecko/20100101 Firefox/107.0","","Firefox","107.0","Windows","10.0","810","n","","pillow.jpg","3","Filler","true",""
"","","","","","fixation","77799","html-keyboard-response","127","333984","0.0-6.0-0.23","70","3","2022-11-17 12:24:55","fd252370c17a9971d68c1d4354a03c2e","","Mozilla/5.0 (Windows NT 10.0; Win64; x64; rv:107.0) Gecko/20100101 Firefox/107.0","","Firefox","107.0","Windows","10.0","null","null","","<p style=""font-size: 48px;"">+</p>","3","Filler","",""
"","","","","","sentence","77799","html-keyboard-response","128","337190","0.0-6.0-1.23","70","3","2022-11-17 12:24:55","fd252370c17a9971d68c1d4354a03c2e","","Mozilla/5.0 (Windows NT 10.0; Win64; x64; rv:107.0) Gecko/20100101 Firefox/107.0","","Firefox","107.0","Windows","10.0","3195"," ","","A doctor is taking a stethoscope","3","Filler","",""
"","","","","","fixation","77799","html-keyboard-response","129","337699","0.0-6.0-2.23","70","3","2022-11-17 12:24:55","fd252370c17a9971d68c1d4354a03c2e","","Mozilla/5.0 (Windows NT 10.0; Win64; x64; rv:107.0) Gecko/20100101 Firefox/107.0","","Firefox","107.0","Windows","10.0","null","null","","<p style=""font-size: 48px;"">+</p>","3","Filler","",""
"","","","","","picture","77799","image-keyboard-response","130","340190","0.0-6.0-3.23","70","3","2022-11-17 12:24:55","fd252370c17a9971d68c1d4354a03c2e","","Mozilla/5.0 (Windows NT 10.0; Win64; x64; rv:107.0) Gecko/20100101 Firefox/107.0","","Firefox","107.0","Windows","10.0","2470","n","","matchesbox.jpg","3","Filler","true",""
"","","","","","fixation","77799","html-keyboard-response","131","341196","0.0-6.0-0.24","70","3","2022-11-17 12:24:55","fd252370c17a9971d68c1d4354a03c2e","","Mozilla/5.0 (Windows NT 10.0; Win64; x64; rv:107.0) Gecko/20100101 Firefox/107.0","","Firefox","107.0","Windows","10.0","null","null","","<p style=""font-size: 48px;"">+</p>","3","Light_Contradictory","",""
"","","","","","sentence","77799","html-keyboard-response","132","344583","0.0-6.0-1.24","70","3","2022-11-17 12:24:55","fd252370c17a9971d68c1d4354a03c2e","","Mozilla/5.0 (Windows NT 10.0; Win64; x64; rv:107.0) Gecko/20100101 Firefox/107.0","","Firefox","107.0","Windows","10.0","3382"," ","","A balloon dropped and smashed a banana","3","Light_Contradictory","",""
"","","","","","fixation","77799","html-keyboard-response","133","345100","0.0-6.0-2.24","70","3","2022-11-17 12:24:55","fd252370c17a9971d68c1d4354a03c2e","","Mozilla/5.0 (Windows NT 10.0; Win64; x64; rv:107.0) Gecko/20100101 Firefox/107.0","","Firefox","107.0","Windows","10.0","null","null","","<p style=""font-size: 48px;"">+</p>","3","Light_Contradictory","",""
"","","","","","picture","77799","image-keyboard-response","134","346112","0.0-6.0-3.24","70","3","2022-11-17 12:24:55","fd252370c17a9971d68c1d4354a03c2e","","Mozilla/5.0 (Windows NT 10.0; Win64; x64; rv:107.0) Gecko/20100101 Firefox/107.0","","Firefox","107.0","Windows","10.0","982","s","","bananaS.jpg","3","Light_Contradictory","true",""
"","","","","","fixation","77799","html-keyboard-response","135","347154","0.0-6.0-0.25","70","3","2022-11-17 12:24:55","fd252370c17a9971d68c1d4354a03c2e","","Mozilla/5.0 (Windows NT 10.0; Win64; x64; rv:107.0) Gecko/20100101 Firefox/107.0","","Firefox","107.0","Windows","10.0","null","null","","<p style=""font-size: 48px;"">+</p>","3","Filler","",""
"","","","","","sentence","77799","html-keyboard-response","136","349720","0.0-6.0-1.25","70","3","2022-11-17 12:24:55","fd252370c17a9971d68c1d4354a03c2e","","Mozilla/5.0 (Windows NT 10.0; Win64; x64; rv:107.0) Gecko/20100101 Firefox/107.0","","Firefox","107.0","Windows","10.0","2559"," ","","A student is writing on a board","3","Filler","",""
"","","","","","fixation","77799","html-keyboard-response","137","350245","0.0-6.0-2.25","70","3","2022-11-17 12:24:55","fd252370c17a9971d68c1d4354a03c2e","","Mozilla/5.0 (Windows NT 10.0; Win64; x64; rv:107.0) Gecko/20100101 Firefox/107.0","","Firefox","107.0","Windows","10.0","null","null","","<p style=""font-size: 48px;"">+</p>","3","Filler","",""
"","","","","","picture","77799","image-keyboard-response","138","351099","0.0-6.0-3.25","70","3","2022-11-17 12:24:55","fd252370c17a9971d68c1d4354a03c2e","","Mozilla/5.0 (Windows NT 10.0; Win64; x64; rv:107.0) Gecko/20100101 Firefox/107.0","","Firefox","107.0","Windows","10.0","833","n","","owl.jpg","3","Filler","true",""
"","","","","","fixation","77799","html-keyboard-response","139","352112","0.0-6.0-0.26","70","3","2022-11-17 12:24:55","fd252370c17a9971d68c1d4354a03c2e","","Mozilla/5.0 (Windows NT 10.0; Win64; x64; rv:107.0) Gecko/20100101 Firefox/107.0","","Firefox","107.0","Windows","10.0","null","null","","<p style=""font-size: 48px;"">+</p>","3","Filler","",""
"","","","","","sentence","77799","html-keyboard-response","140","354672","0.0-6.0-1.26","70","3","2022-11-17 12:24:55","fd252370c17a9971d68c1d4354a03c2e","","Mozilla/5.0 (Windows NT 10.0; Win64; x64; rv:107.0) Gecko/20100101 Firefox/107.0","","Firefox","107.0","Windows","10.0","2549"," ","","A panda is resting on a tree","3","Filler","",""
"","","","","","fixation","77799","html-keyboard-response","141","355184","0.0-6.0-2.26","70","3","2022-11-17 12:24:55","fd252370c17a9971d68c1d4354a03c2e","","Mozilla/5.0 (Windows NT 10.0; Win64; x64; rv:107.0) Gecko/20100101 Firefox/107.0","","Firefox","107.0","Windows","10.0","null","null","","<p style=""font-size: 48px;"">+</p>","3","Filler","",""
"","","","","","picture","77799","image-keyboard-response","142","355951","0.0-6.0-3.26","70","3","2022-11-17 12:24:55","fd252370c17a9971d68c1d4354a03c2e","","Mozilla/5.0 (Windows NT 10.0; Win64; x64; rv:107.0) Gecko/20100101 Firefox/107.0","","Firefox","107.0","Windows","10.0","754","n","","dollar.jpg","3","Filler","true",""
"","","","","","fixation","77799","html-keyboard-response","143","356972","0.0-6.0-0.27","70","3","2022-11-17 12:24:55","fd252370c17a9971d68c1d4354a03c2e","","Mozilla/5.0 (Windows NT 10.0; Win64; x64; rv:107.0) Gecko/20100101 Firefox/107.0","","Firefox","107.0","Windows","10.0","null","null","","<p style=""font-size: 48px;"">+</p>","3","Filler","",""
"","","","","","sentence","77799","html-keyboard-response","144","360041","0.0-6.0-1.27","70","3","2022-11-17 12:24:55","fd252370c17a9971d68c1d4354a03c2e","","Mozilla/5.0 (Windows NT 10.0; Win64; x64; rv:107.0) Gecko/20100101 Firefox/107.0","","Firefox","107.0","Windows","10.0","3058"," ","","A pencil was placed on the shoe","3","Filler","",""
"","","","","","fixation","77799","html-keyboard-response","145","360561","0.0-6.0-2.27","70","3","2022-11-17 12:24:55","fd252370c17a9971d68c1d4354a03c2e","","Mozilla/5.0 (Windows NT 10.0; Win64; x64; rv:107.0) Gecko/20100101 Firefox/107.0","","Firefox","107.0","Windows","10.0","null","null","","<p style=""font-size: 48px;"">+</p>","3","Filler","",""
"","","","","","picture","77799","image-keyboard-response","146","361619","0.0-6.0-3.27","70","3","2022-11-17 12:24:55","fd252370c17a9971d68c1d4354a03c2e","","Mozilla/5.0 (Windows NT 10.0; Win64; x64; rv:107.0) Gecko/20100101 Firefox/107.0","","Firefox","107.0","Windows","10.0","1035","n","","perfume.jpg","3","Filler","true",""
"","","","","","fixation","77799","html-keyboard-response","147","362630","0.0-6.0-0.28","70","3","2022-11-17 12:24:55","fd252370c17a9971d68c1d4354a03c2e","","Mozilla/5.0 (Windows NT 10.0; Win64; x64; rv:107.0) Gecko/20100101 Firefox/107.0","","Firefox","107.0","Windows","10.0","null","null","","<p style=""font-size: 48px;"">+</p>","3","Filler","",""
"","","","","","sentence","77799","html-keyboard-response","148","365048","0.0-6.0-1.28","70","3","2022-11-17 12:24:55","fd252370c17a9971d68c1d4354a03c2e","","Mozilla/5.0 (Windows NT 10.0; Win64; x64; rv:107.0) Gecko/20100101 Firefox/107.0","","Firefox","107.0","Windows","10.0","2407"," ","","A man is playing with a cat","3","Filler","",""
"","","","","","fixation","77799","html-keyboard-response","149","365562","0.0-6.0-2.28","70","3","2022-11-17 12:24:55","fd252370c17a9971d68c1d4354a03c2e","","Mozilla/5.0 (Windows NT 10.0; Win64; x64; rv:107.0) Gecko/20100101 Firefox/107.0","","Firefox","107.0","Windows","10.0","null","null","","<p style=""font-size: 48px;"">+</p>","3","Filler","",""
"","","","","","picture","77799","image-keyboard-response","150","366418","0.0-6.0-3.28","70","3","2022-11-17 12:24:55","fd252370c17a9971d68c1d4354a03c2e","","Mozilla/5.0 (Windows NT 10.0; Win64; x64; rv:107.0) Gecko/20100101 Firefox/107.0","","Firefox","107.0","Windows","10.0","836","n","","ceramicplate.jpg","3","Filler","true",""
"","","","","","fixation","77799","html-keyboard-response","151","367430","0.0-6.0-0.29","70","3","2022-11-17 12:24:55","fd252370c17a9971d68c1d4354a03c2e","","Mozilla/5.0 (Windows NT 10.0; Win64; x64; rv:107.0) Gecko/20100101 Firefox/107.0","","Firefox","107.0","Windows","10.0","null","null","","<p style=""font-size: 48px;"">+</p>","3","Filler","",""
"","","","","","sentence","77799","html-keyboard-response","152","370044","0.0-6.0-1.29","70","3","2022-11-17 12:24:55","fd252370c17a9971d68c1d4354a03c2e","","Mozilla/5.0 (Windows NT 10.0; Win64; x64; rv:107.0) Gecko/20100101 Firefox/107.0","","Firefox","107.0","Windows","10.0","2602"," ","","A musician is playing a guitar","3","Filler","",""
"","","","","","fixation","77799","html-keyboard-response","153","370566","0.0-6.0-2.29","70","3","2022-11-17 12:24:55","fd252370c17a9971d68c1d4354a03c2e","","Mozilla/5.0 (Windows NT 10.0; Win64; x64; rv:107.0) Gecko/20100101 Firefox/107.0","","Firefox","107.0","Windows","10.0","null","null","","<p style=""font-size: 48px;"">+</p>","3","Filler","",""
"","","","","","picture","77799","image-keyboard-response","154","372036","0.0-6.0-3.29","70","3","2022-11-17 12:24:55","fd252370c17a9971d68c1d4354a03c2e","","Mozilla/5.0 (Windows NT 10.0; Win64; x64; rv:107.0) Gecko/20100101 Firefox/107.0","","Firefox","107.0","Windows","10.0","1449","s","","guitar.jpg","3","Filler","true",""
"","","","","","fixation","77799","html-keyboard-response","155","373075","0.0-6.0-0.30","70","3","2022-11-17 12:24:55","fd252370c17a9971d68c1d4354a03c2e","","Mozilla/5.0 (Windows NT 10.0; Win64; x64; rv:107.0) Gecko/20100101 Firefox/107.0","","Firefox","107.0","Windows","10.0","null","null","","<p style=""font-size: 48px;"">+</p>","3","Heavy_Contradictory","",""
"","","","","","sentence","77799","html-keyboard-response","156","376660","0.0-6.0-1.30","70","3","2022-11-17 12:24:55","fd252370c17a9971d68c1d4354a03c2e","","Mozilla/5.0 (Windows NT 10.0; Win64; x64; rv:107.0) Gecko/20100101 Firefox/107.0","","Firefox","107.0","Windows","10.0","3577"," ","","A bowling ball dropped and touched a ceramic plate","3","Heavy_Contradictory","",""
"","","","","","fixation","77799","html-keyboard-response","157","377185","0.0-6.0-2.30","70","3","2022-11-17 12:24:55","fd252370c17a9971d68c1d4354a03c2e","","Mozilla/5.0 (Windows NT 10.0; Win64; x64; rv:107.0) Gecko/20100101 Firefox/107.0","","Firefox","107.0","Windows","10.0","null","null","","<p style=""font-size: 48px;"">+</p>","3","Heavy_Contradictory","",""
"","","","","","picture","77799","image-keyboard-response","158","378149","0.0-6.0-3.30","70","3","2022-11-17 12:24:55","fd252370c17a9971d68c1d4354a03c2e","","Mozilla/5.0 (Windows NT 10.0; Win64; x64; rv:107.0) Gecko/20100101 Firefox/107.0","","Firefox","107.0","Windows","10.0","950","s","","plateS.jpg","3","Heavy_Contradictory","true",""
"","","","","","fixation","77799","html-keyboard-response","159","379175","0.0-6.0-0.31","70","3","2022-11-17 12:24:55","fd252370c17a9971d68c1d4354a03c2e","","Mozilla/5.0 (Windows NT 10.0; Win64; x64; rv:107.0) Gecko/20100101 Firefox/107.0","","Firefox","107.0","Windows","10.0","null","null","","<p style=""font-size: 48px;"">+</p>","3","Filler","",""
"","","","","","sentence","77799","html-keyboard-response","160","381725","0.0-6.0-1.31","70","3","2022-11-17 12:24:55","fd252370c17a9971d68c1d4354a03c2e","","Mozilla/5.0 (Windows NT 10.0; Win64; x64; rv:107.0) Gecko/20100101 Firefox/107.0","","Firefox","107.0","Windows","10.0","2543"," ","","A toothbrush was placed on the sponge","3","Filler","",""
"","","","","","fixation","77799","html-keyboard-response","161","382247","0.0-6.0-2.31","70","3","2022-11-17 12:24:55","fd252370c17a9971d68c1d4354a03c2e","","Mozilla/5.0 (Windows NT 10.0; Win64; x64; rv:107.0) Gecko/20100101 Firefox/107.0","","Firefox","107.0","Windows","10.0","null","null","","<p style=""font-size: 48px;"">+</p>","3","Filler","",""
"","","","","","picture","77799","image-keyboard-response","162","383088","0.0-6.0-3.31","70","3","2022-11-17 12:24:55","fd252370c17a9971d68c1d4354a03c2e","","Mozilla/5.0 (Windows NT 10.0; Win64; x64; rv:107.0) Gecko/20100101 Firefox/107.0","","Firefox","107.0","Windows","10.0","827","s","","sponge.jpg","3","Filler","true",""
"","","","","","fixation","77799","html-keyboard-response","163","384113","0.0-6.0-0.32","70","3","2022-11-17 12:24:55","fd252370c17a9971d68c1d4354a03c2e","","Mozilla/5.0 (Windows NT 10.0; Win64; x64; rv:107.0) Gecko/20100101 Firefox/107.0","","Firefox","107.0","Windows","10.0","null","null","","<p style=""font-size: 48px;"">+</p>","3","Filler","",""
"","","","","","sentence","77799","html-keyboard-response","164","386778","0.0-6.0-1.32","70","3","2022-11-17 12:24:55","fd252370c17a9971d68c1d4354a03c2e","","Mozilla/5.0 (Windows NT 10.0; Win64; x64; rv:107.0) Gecko/20100101 Firefox/107.0","","Firefox","107.0","Windows","10.0","2651"," ","","An actress is taking a microphone","3","Filler","",""
"","","","","","fixation","77799","html-keyboard-response","165","387311","0.0-6.0-2.32","70","3","2022-11-17 12:24:55","fd252370c17a9971d68c1d4354a03c2e","","Mozilla/5.0 (Windows NT 10.0; Win64; x64; rv:107.0) Gecko/20100101 Firefox/107.0","","Firefox","107.0","Windows","10.0","null","null","","<p style=""font-size: 48px;"">+</p>","3","Filler","",""
"","","","","","picture","77799","image-keyboard-response","166","388263","0.0-6.0-3.32","70","3","2022-11-17 12:24:55","fd252370c17a9971d68c1d4354a03c2e","","Mozilla/5.0 (Windows NT 10.0; Win64; x64; rv:107.0) Gecko/20100101 Firefox/107.0","","Firefox","107.0","Windows","10.0","920","n","","pants.jpg","3","Filler","true",""
"","","","","","fixation","77799","html-keyboard-response","167","389287","0.0-6.0-0.33","70","3","2022-11-17 12:24:55","fd252370c17a9971d68c1d4354a03c2e","","Mozilla/5.0 (Windows NT 10.0; Win64; x64; rv:107.0) Gecko/20100101 Firefox/107.0","","Firefox","107.0","Windows","10.0","null","null","","<p style=""font-size: 48px;"">+</p>","3","Light_Contradictory","",""
"","","","","","sentence","77799","html-keyboard-response","168","392880","0.0-6.0-1.33","70","3","2022-11-17 12:24:55","fd252370c17a9971d68c1d4354a03c2e","","Mozilla/5.0 (Windows NT 10.0; Win64; x64; rv:107.0) Gecko/20100101 Firefox/107.0","","Firefox","107.0","Windows","10.0","3582"," ","","A balloon dropped and smashed an egg flan","3","Light_Contradictory","",""
"","","","","","fixation","77799","html-keyboard-response","169","393446","0.0-6.0-2.33","70","3","2022-11-17 12:24:55","fd252370c17a9971d68c1d4354a03c2e","","Mozilla/5.0 (Windows NT 10.0; Win64; x64; rv:107.0) Gecko/20100101 Firefox/107.0","","Firefox","107.0","Windows","10.0","null","null","","<p style=""font-size: 48px;"">+</p>","3","Light_Contradictory","",""
"","","","","","picture","77799","image-keyboard-response","170","394984","0.0-6.0-3.33","70","3","2022-11-17 12:24:55","fd252370c17a9971d68c1d4354a03c2e","","Mozilla/5.0 (Windows NT 10.0; Win64; x64; rv:107.0) Gecko/20100101 Firefox/107.0","","Firefox","107.0","Windows","10.0","1515","s","","eggflanS.jpg","3","Light_Contradictory","true",""
"","","","","","fixation","77799","html-keyboard-response","171","395998","0.0-6.0-0.34","70","3","2022-11-17 12:24:55","fd252370c17a9971d68c1d4354a03c2e","","Mozilla/5.0 (Windows NT 10.0; Win64; x64; rv:107.0) Gecko/20100101 Firefox/107.0","","Firefox","107.0","Windows","10.0","null","null","","<p style=""font-size: 48px;"">+</p>","3","Filler","",""
"","","","","","sentence","77799","html-keyboard-response","172","397753","0.0-6.0-1.34","70","3","2022-11-17 12:24:55","fd252370c17a9971d68c1d4354a03c2e","","Mozilla/5.0 (Windows NT 10.0; Win64; x64; rv:107.0) Gecko/20100101 Firefox/107.0","","Firefox","107.0","Windows","10.0","1742"," ","","An owl is sitting on the branch","3","Filler","",""
"","","","","","fixation","77799","html-keyboard-response","173","398273","0.0-6.0-2.34","70","3","2022-11-17 12:24:55","fd252370c17a9971d68c1d4354a03c2e","","Mozilla/5.0 (Windows NT 10.0; Win64; x64; rv:107.0) Gecko/20100101 Firefox/107.0","","Firefox","107.0","Windows","10.0","null","null","","<p style=""font-size: 48px;"">+</p>","3","Filler","",""
"","","","","","picture","77799","image-keyboard-response","174","399213","0.0-6.0-3.34","70","3","2022-11-17 12:24:55","fd252370c17a9971d68c1d4354a03c2e","","Mozilla/5.0 (Windows NT 10.0; Win64; x64; rv:107.0) Gecko/20100101 Firefox/107.0","","Firefox","107.0","Windows","10.0","920","n","","rubberduck.jpg","3","Filler","true",""
"","","","","","fixation","77799","html-keyboard-response","175","400231","0.0-6.0-0.35","70","3","2022-11-17 12:24:55","fd252370c17a9971d68c1d4354a03c2e","","Mozilla/5.0 (Windows NT 10.0; Win64; x64; rv:107.0) Gecko/20100101 Firefox/107.0","","Firefox","107.0","Windows","10.0","null","null","","<p style=""font-size: 48px;"">+</p>","3","Filler","",""
"","","","","","sentence","77799","html-keyboard-response","176","403842","0.0-6.0-1.35","70","3","2022-11-17 12:24:55","fd252370c17a9971d68c1d4354a03c2e","","Mozilla/5.0 (Windows NT 10.0; Win64; x64; rv:107.0) Gecko/20100101 Firefox/107.0","","Firefox","107.0","Windows","10.0","3602"," ","","An astronaut is putting on a space suit","3","Filler","",""
"","","","","","fixation","77799","html-keyboard-response","177","404361","0.0-6.0-2.35","70","3","2022-11-17 12:24:55","fd252370c17a9971d68c1d4354a03c2e","","Mozilla/5.0 (Windows NT 10.0; Win64; x64; rv:107.0) Gecko/20100101 Firefox/107.0","","Firefox","107.0","Windows","10.0","null","null","","<p style=""font-size: 48px;"">+</p>","3","Filler","",""
"","","","","","picture","77799","image-keyboard-response","178","405338","0.0-6.0-3.35","70","3","2022-11-17 12:24:55","fd252370c17a9971d68c1d4354a03c2e","","Mozilla/5.0 (Windows NT 10.0; Win64; x64; rv:107.0) Gecko/20100101 Firefox/107.0","","Firefox","107.0","Windows","10.0","964","s","","spacesuit.jpg","3","Filler","true",""
"","","","","","fixation","77799","html-keyboard-response","179","406346","0.0-6.0-0.36","70","3","2022-11-17 12:24:55","fd252370c17a9971d68c1d4354a03c2e","","Mozilla/5.0 (Windows NT 10.0; Win64; x64; rv:107.0) Gecko/20100101 Firefox/107.0","","Firefox","107.0","Windows","10.0","null","null","","<p style=""font-size: 48px;"">+</p>","3","Filler","",""
"","","","","","sentence","77799","html-keyboard-response","180","409842","0.0-6.0-1.36","70","3","2022-11-17 12:24:55","fd252370c17a9971d68c1d4354a03c2e","","Mozilla/5.0 (Windows NT 10.0; Win64; x64; rv:107.0) Gecko/20100101 Firefox/107.0","","Firefox","107.0","Windows","10.0","3483"," ","","A woman is paying with a debit card","3","Filler","",""
"","","","","","fixation","77799","html-keyboard-response","181","410357","0.0-6.0-2.36","70","3","2022-11-17 12:24:55","fd252370c17a9971d68c1d4354a03c2e","","Mozilla/5.0 (Windows NT 10.0; Win64; x64; rv:107.0) Gecko/20100101 Firefox/107.0","","Firefox","107.0","Windows","10.0","null","null","","<p style=""font-size: 48px;"">+</p>","3","Filler","",""
"","","","","","picture","77799","image-keyboard-response","182","411216","0.0-6.0-3.36","70","3","2022-11-17 12:24:55","fd252370c17a9971d68c1d4354a03c2e","","Mozilla/5.0 (Windows NT 10.0; Win64; x64; rv:107.0) Gecko/20100101 Firefox/107.0","","Firefox","107.0","Windows","10.0","833","n","","papercup.jpg","3","Filler","true",""
"","","","","","fixation","77799","html-keyboard-response","183","412230","0.0-6.0-0.37","70","3","2022-11-17 12:24:55","fd252370c17a9971d68c1d4354a03c2e","","Mozilla/5.0 (Windows NT 10.0; Win64; x64; rv:107.0) Gecko/20100101 Firefox/107.0","","Firefox","107.0","Windows","10.0","null","null","","<p style=""font-size: 48px;"">+</p>","3","Filler","",""
"","","","","","sentence","77799","html-keyboard-response","184","415523","0.0-6.0-1.37","70","3","2022-11-17 12:24:55","fd252370c17a9971d68c1d4354a03c2e","","Mozilla/5.0 (Windows NT 10.0; Win64; x64; rv:107.0) Gecko/20100101 Firefox/107.0","","Firefox","107.0","Windows","10.0","3285"," ","","A thermometer was placed on the box","3","Filler","",""
"","","","","","fixation","77799","html-keyboard-response","185","416049","0.0-6.0-2.37","70","3","2022-11-17 12:24:55","fd252370c17a9971d68c1d4354a03c2e","","Mozilla/5.0 (Windows NT 10.0; Win64; x64; rv:107.0) Gecko/20100101 Firefox/107.0","","Firefox","107.0","Windows","10.0","null","null","","<p style=""font-size: 48px;"">+</p>","3","Filler","",""
"","","","","","picture","77799","image-keyboard-response","186","416727","0.0-6.0-3.37","70","3","2022-11-17 12:24:55","fd252370c17a9971d68c1d4354a03c2e","","Mozilla/5.0 (Windows NT 10.0; Win64; x64; rv:107.0) Gecko/20100101 Firefox/107.0","","Firefox","107.0","Windows","10.0","654","n","","button.jpg","3","Filler","true",""
"","","","","","fixation","77799","html-keyboard-response","187","417748","0.0-6.0-0.38","70","3","2022-11-17 12:24:55","fd252370c17a9971d68c1d4354a03c2e","","Mozilla/5.0 (Windows NT 10.0; Win64; x64; rv:107.0) Gecko/20100101 Firefox/107.0","","Firefox","107.0","Windows","10.0","null","null","","<p style=""font-size: 48px;"">+</p>","3","Heavy_Matched","",""
"","","","","","sentence","77799","html-keyboard-response","188","420874","0.0-6.0-1.38","70","3","2022-11-17 12:24:55","fd252370c17a9971d68c1d4354a03c2e","","Mozilla/5.0 (Windows NT 10.0; Win64; x64; rv:107.0) Gecko/20100101 Firefox/107.0","","Firefox","107.0","Windows","10.0","3113"," ","","A bowling ball dropped and smashed a light bulb","3","Heavy_Matched","",""
"","","","","","fixation","77799","html-keyboard-response","189","421400","0.0-6.0-2.38","70","3","2022-11-17 12:24:55","fd252370c17a9971d68c1d4354a03c2e","","Mozilla/5.0 (Windows NT 10.0; Win64; x64; rv:107.0) Gecko/20100101 Firefox/107.0","","Firefox","107.0","Windows","10.0","null","null","","<p style=""font-size: 48px;"">+</p>","3","Heavy_Matched","",""
"","","","","","picture","77799","image-keyboard-response","190","422690","0.0-6.0-3.38","70","3","2022-11-17 12:24:55","fd252370c17a9971d68c1d4354a03c2e","","Mozilla/5.0 (Windows NT 10.0; Win64; x64; rv:107.0) Gecko/20100101 Firefox/107.0","","Firefox","107.0","Windows","10.0","1269","s","","lampS.jpg","3","Heavy_Matched","true",""
"","","","","","fixation","77799","html-keyboard-response","191","423706","0.0-6.0-0.39","70","3","2022-11-17 12:24:55","fd252370c17a9971d68c1d4354a03c2e","","Mozilla/5.0 (Windows NT 10.0; Win64; x64; rv:107.0) Gecko/20100101 Firefox/107.0","","Firefox","107.0","Windows","10.0","null","null","","<p style=""font-size: 48px;"">+</p>","3","Filler","",""
"","","","","","sentence","77799","html-keyboard-response","192","425972","0.0-6.0-1.39","70","3","2022-11-17 12:24:55","fd252370c17a9971d68c1d4354a03c2e","","Mozilla/5.0 (Windows NT 10.0; Win64; x64; rv:107.0) Gecko/20100101 Firefox/107.0","","Firefox","107.0","Windows","10.0","2259"," ","","A fork was placed on the plate","3","Filler","",""
"","","","","","fixation","77799","html-keyboard-response","193","426483","0.0-6.0-2.39","70","3","2022-11-17 12:24:55","fd252370c17a9971d68c1d4354a03c2e","","Mozilla/5.0 (Windows NT 10.0; Win64; x64; rv:107.0) Gecko/20100101 Firefox/107.0","","Firefox","107.0","Windows","10.0","null","null","","<p style=""font-size: 48px;"">+</p>","3","Filler","",""
"","","","","","picture","77799","image-keyboard-response","194","427401","0.0-6.0-3.39","70","3","2022-11-17 12:24:55","fd252370c17a9971d68c1d4354a03c2e","","Mozilla/5.0 (Windows NT 10.0; Win64; x64; rv:107.0) Gecko/20100101 Firefox/107.0","","Firefox","107.0","Windows","10.0","900","s","","plate.jpg","3","Filler","true",""
"","","","","","fixation","77799","html-keyboard-response","195","428428","0.0-6.0-0.40","70","3","2022-11-17 12:24:55","fd252370c17a9971d68c1d4354a03c2e","","Mozilla/5.0 (Windows NT 10.0; Win64; x64; rv:107.0) Gecko/20100101 Firefox/107.0","","Firefox","107.0","Windows","10.0","null","null","","<p style=""font-size: 48px;"">+</p>","3","Light_Matched","",""
"","","","","","sentence","77799","html-keyboard-response","196","433281","0.0-6.0-1.40","70","3","2022-11-17 12:24:55","fd252370c17a9971d68c1d4354a03c2e","","Mozilla/5.0 (Windows NT 10.0; Win64; x64; rv:107.0) Gecko/20100101 Firefox/107.0","","Firefox","107.0","Windows","10.0","4840"," ","","A balloon dropped and touched an egg","3","Light_Matched","",""
"","","","","","fixation","77799","html-keyboard-response","197","433802","0.0-6.0-2.40","70","3","2022-11-17 12:24:55","fd252370c17a9971d68c1d4354a03c2e","","Mozilla/5.0 (Windows NT 10.0; Win64; x64; rv:107.0) Gecko/20100101 Firefox/107.0","","Firefox","107.0","Windows","10.0","null","null","","<p style=""font-size: 48px;"">+</p>","3","Light_Matched","",""
"","","","","","picture","77799","image-keyboard-response","198","434897","0.0-6.0-3.40","70","3","2022-11-17 12:24:55","fd252370c17a9971d68c1d4354a03c2e","","Mozilla/5.0 (Windows NT 10.0; Win64; x64; rv:107.0) Gecko/20100101 Firefox/107.0","","Firefox","107.0","Windows","10.0","1069","s","","eggS.jpg","3","Light_Matched","true",""
"","","","","","fixation","77799","html-keyboard-response","199","435919","0.0-6.0-0.41","70","3","2022-11-17 12:24:55","fd252370c17a9971d68c1d4354a03c2e","","Mozilla/5.0 (Windows NT 10.0; Win64; x64; rv:107.0) Gecko/20100101 Firefox/107.0","","Firefox","107.0","Windows","10.0","null","null","","<p style=""font-size: 48px;"">+</p>","3","Filler","",""
"","","","","","sentence","77799","html-keyboard-response","200","443945","0.0-6.0-1.41","70","3","2022-11-17 12:24:55","fd252370c17a9971d68c1d4354a03c2e","","Mozilla/5.0 (Windows NT 10.0; Win64; x64; rv:107.0) Gecko/20100101 Firefox/107.0","","Firefox","107.0","Windows","10.0","8012"," ","","A man is boiling potatoes.","3","Filler","",""
"","","","","","fixation","77799","html-keyboard-response","201","444461","0.0-6.0-2.41","70","3","2022-11-17 12:24:55","fd252370c17a9971d68c1d4354a03c2e","","Mozilla/5.0 (Windows NT 10.0; Win64; x64; rv:107.0) Gecko/20100101 Firefox/107.0","","Firefox","107.0","Windows","10.0","null","null","","<p style=""font-size: 48px;"">+</p>","3","Filler","",""
"","","","","","picture","77799","image-keyboard-response","202","445232","0.0-6.0-3.41","70","3","2022-11-17 12:24:55","fd252370c17a9971d68c1d4354a03c2e","","Mozilla/5.0 (Windows NT 10.0; Win64; x64; rv:107.0) Gecko/20100101 Firefox/107.0","","Firefox","107.0","Windows","10.0","747","n","","cup.jpg","3","Filler","true",""
"","","","","","fixation","77799","html-keyboard-response","203","446251","0.0-6.0-0.42","70","3","2022-11-17 12:24:55","fd252370c17a9971d68c1d4354a03c2e","","Mozilla/5.0 (Windows NT 10.0; Win64; x64; rv:107.0) Gecko/20100101 Firefox/107.0","","Firefox","107.0","Windows","10.0","null","null","","<p style=""font-size: 48px;"">+</p>","3","Filler","",""
"","","","","","sentence","77799","html-keyboard-response","204","448133","0.0-6.0-1.42","70","3","2022-11-17 12:24:55","fd252370c17a9971d68c1d4354a03c2e","","Mozilla/5.0 (Windows NT 10.0; Win64; x64; rv:107.0) Gecko/20100101 Firefox/107.0","","Firefox","107.0","Windows","10.0","1874"," ","","An elephant is eating a watermelon","3","Filler","",""
"","","","","","fixation","77799","html-keyboard-response","205","448648","0.0-6.0-2.42","70","3","2022-11-17 12:24:55","fd252370c17a9971d68c1d4354a03c2e","","Mozilla/5.0 (Windows NT 10.0; Win64; x64; rv:107.0) Gecko/20100101 Firefox/107.0","","Firefox","107.0","Windows","10.0","null","null","","<p style=""font-size: 48px;"">+</p>","3","Filler","",""
"","","","","","picture","77799","image-keyboard-response","206","449622","0.0-6.0-3.42","70","3","2022-11-17 12:24:55","fd252370c17a9971d68c1d4354a03c2e","","Mozilla/5.0 (Windows NT 10.0; Win64; x64; rv:107.0) Gecko/20100101 Firefox/107.0","","Firefox","107.0","Windows","10.0","949","s","","watermelon.jpg","3","Filler","true",""
"","","","","","fixation","77799","html-keyboard-response","207","450671","0.0-6.0-0.43","70","3","2022-11-17 12:24:55","fd252370c17a9971d68c1d4354a03c2e","","Mozilla/5.0 (Windows NT 10.0; Win64; x64; rv:107.0) Gecko/20100101 Firefox/107.0","","Firefox","107.0","Windows","10.0","null","null","","<p style=""font-size: 48px;"">+</p>","3","Filler","",""
"","","","","","sentence","77799","html-keyboard-response","208","453073","0.0-6.0-1.43","70","3","2022-11-17 12:24:55","fd252370c17a9971d68c1d4354a03c2e","","Mozilla/5.0 (Windows NT 10.0; Win64; x64; rv:107.0) Gecko/20100101 Firefox/107.0","","Firefox","107.0","Windows","10.0","2375"," ","","A nurse is taking a syringe","3","Filler","",""
"","","","","","fixation","77799","html-keyboard-response","209","453607","0.0-6.0-2.43","70","3","2022-11-17 12:24:55","fd252370c17a9971d68c1d4354a03c2e","","Mozilla/5.0 (Windows NT 10.0; Win64; x64; rv:107.0) Gecko/20100101 Firefox/107.0","","Firefox","107.0","Windows","10.0","null","null","","<p style=""font-size: 48px;"">+</p>","3","Filler","",""
"","","","","","picture","77799","image-keyboard-response","210","454458","0.0-6.0-3.43","70","3","2022-11-17 12:24:55","fd252370c17a9971d68c1d4354a03c2e","","Mozilla/5.0 (Windows NT 10.0; Win64; x64; rv:107.0) Gecko/20100101 Firefox/107.0","","Firefox","107.0","Windows","10.0","831","n","","headphones.jpg","3","Filler","true",""
"","","","","","fixation","77799","html-keyboard-response","211","455487","0.0-6.0-0.44","70","3","2022-11-17 12:24:55","fd252370c17a9971d68c1d4354a03c2e","","Mozilla/5.0 (Windows NT 10.0; Win64; x64; rv:107.0) Gecko/20100101 Firefox/107.0","","Firefox","107.0","Windows","10.0","null","null","","<p style=""font-size: 48px;"">+</p>","3","Heavy_Matched","",""
"","","","","","sentence","77799","html-keyboard-response","212","459108","0.0-6.0-1.44","70","3","2022-11-17 12:24:55","fd252370c17a9971d68c1d4354a03c2e","","Mozilla/5.0 (Windows NT 10.0; Win64; x64; rv:107.0) Gecko/20100101 Firefox/107.0","","Firefox","107.0","Windows","10.0","3605"," ","","A bowling ball dropped and smashed a mirror","3","Heavy_Matched","",""
"","","","","","fixation","77799","html-keyboard-response","213","459626","0.0-6.0-2.44","70","3","2022-11-17 12:24:55","fd252370c17a9971d68c1d4354a03c2e","","Mozilla/5.0 (Windows NT 10.0; Win64; x64; rv:107.0) Gecko/20100101 Firefox/107.0","","Firefox","107.0","Windows","10.0","null","null","","<p style=""font-size: 48px;"">+</p>","3","Heavy_Matched","",""
"","","","","","picture","77799","image-keyboard-response","214","461143","0.0-6.0-3.44","70","3","2022-11-17 12:24:55","fd252370c17a9971d68c1d4354a03c2e","","Mozilla/5.0 (Windows NT 10.0; Win64; x64; rv:107.0) Gecko/20100101 Firefox/107.0","","Firefox","107.0","Windows","10.0","1490","s","","mirrorS.jpg","3","Heavy_Matched","true",""
"","","","","","fixation","77799","html-keyboard-response","215","462163","0.0-6.0-0.45","70","3","2022-11-17 12:24:55","fd252370c17a9971d68c1d4354a03c2e","","Mozilla/5.0 (Windows NT 10.0; Win64; x64; rv:107.0) Gecko/20100101 Firefox/107.0","","Firefox","107.0","Windows","10.0","null","null","","<p style=""font-size: 48px;"">+</p>","3","Heavy_Matched","",""
"","","","","","sentence","77799","html-keyboard-response","216","465252","0.0-6.0-1.45","70","3","2022-11-17 12:24:55","fd252370c17a9971d68c1d4354a03c2e","","Mozilla/5.0 (Windows NT 10.0; Win64; x64; rv:107.0) Gecko/20100101 Firefox/107.0","","Firefox","107.0","Windows","10.0","3074"," ","","A bowling ball dropped and smashed an iPhone","3","Heavy_Matched","",""
"","","","","","fixation","77799","html-keyboard-response","217","465767","0.0-6.0-2.45","70","3","2022-11-17 12:24:55","fd252370c17a9971d68c1d4354a03c2e","","Mozilla/5.0 (Windows NT 10.0; Win64; x64; rv:107.0) Gecko/20100101 Firefox/107.0","","Firefox","107.0","Windows","10.0","null","null","","<p style=""font-size: 48px;"">+</p>","3","Heavy_Matched","",""
"","","","","","picture","77799","image-keyboard-response","218","466649","0.0-6.0-3.45","70","3","2022-11-17 12:24:55","fd252370c17a9971d68c1d4354a03c2e","","Mozilla/5.0 (Windows NT 10.0; Win64; x64; rv:107.0) Gecko/20100101 Firefox/107.0","","Firefox","107.0","Windows","10.0","829","s","","iphoneS.png","3","Heavy_Matched","true",""
"","","","","","fixation","77799","html-keyboard-response","219","467665","0.0-6.0-0.46","70","3","2022-11-17 12:24:55","fd252370c17a9971d68c1d4354a03c2e","","Mozilla/5.0 (Windows NT 10.0; Win64; x64; rv:107.0) Gecko/20100101 Firefox/107.0","","Firefox","107.0","Windows","10.0","null","null","","<p style=""font-size: 48px;"">+</p>","3","Filler","",""
"","","","","","sentence","77799","html-keyboard-response","220","469179","0.0-6.0-1.46","70","3","2022-11-17 12:24:55","fd252370c17a9971d68c1d4354a03c2e","","Mozilla/5.0 (Windows NT 10.0; Win64; x64; rv:107.0) Gecko/20100101 Firefox/107.0","","Firefox","107.0","Windows","10.0","1499"," ","","A giraffe is playing with a zebra","3","Filler","",""
"","","","","","fixation","77799","html-keyboard-response","221","469702","0.0-6.0-2.46","70","3","2022-11-17 12:24:55","fd252370c17a9971d68c1d4354a03c2e","","Mozilla/5.0 (Windows NT 10.0; Win64; x64; rv:107.0) Gecko/20100101 Firefox/107.0","","Firefox","107.0","Windows","10.0","null","null","","<p style=""font-size: 48px;"">+</p>","3","Filler","",""
"","","","","","picture","77799","image-keyboard-response","222","470319","0.0-6.0-3.46","70","3","2022-11-17 12:24:55","fd252370c17a9971d68c1d4354a03c2e","","Mozilla/5.0 (Windows NT 10.0; Win64; x64; rv:107.0) Gecko/20100101 Firefox/107.0","","Firefox","107.0","Windows","10.0","595","n","","wallet.jpg","3","Filler","true",""
"","","","","","fixation","77799","html-keyboard-response","223","471334","0.0-6.0-0.47","70","3","2022-11-17 12:24:55","fd252370c17a9971d68c1d4354a03c2e","","Mozilla/5.0 (Windows NT 10.0; Win64; x64; rv:107.0) Gecko/20100101 Firefox/107.0","","Firefox","107.0","Windows","10.0","null","null","","<p style=""font-size: 48px;"">+</p>","3","Filler","",""
"","","","","","sentence","77799","html-keyboard-response","224","473031","0.0-6.0-1.47","70","3","2022-11-17 12:24:55","fd252370c17a9971d68c1d4354a03c2e","","Mozilla/5.0 (Windows NT 10.0; Win64; x64; rv:107.0) Gecko/20100101 Firefox/107.0","","Firefox","107.0","Windows","10.0","1689"," ","","A pilot is reading a book","3","Filler","",""
"","","","","","fixation","77799","html-keyboard-response","225","473548","0.0-6.0-2.47","70","3","2022-11-17 12:24:55","fd252370c17a9971d68c1d4354a03c2e","","Mozilla/5.0 (Windows NT 10.0; Win64; x64; rv:107.0) Gecko/20100101 Firefox/107.0","","Firefox","107.0","Windows","10.0","null","null","","<p style=""font-size: 48px;"">+</p>","3","Filler","",""
"","","","","","picture","77799","image-keyboard-response","226","474413","0.0-6.0-3.47","70","3","2022-11-17 12:24:55","fd252370c17a9971d68c1d4354a03c2e","","Mozilla/5.0 (Windows NT 10.0; Win64; x64; rv:107.0) Gecko/20100101 Firefox/107.0","","Firefox","107.0","Windows","10.0","851","n","","spoon.jpg","3","Filler","true",""
"","","","","","fixation","77799","html-keyboard-response","227","475430","0.0-6.0-0.48","70","3","2022-11-17 12:24:55","fd252370c17a9971d68c1d4354a03c2e","","Mozilla/5.0 (Windows NT 10.0; Win64; x64; rv:107.0) Gecko/20100101 Firefox/107.0","","Firefox","107.0","Windows","10.0","null","null","","<p style=""font-size: 48px;"">+</p>","3","Filler","",""
"","","","","","sentence","77799","html-keyboard-response","228","481764","0.0-6.0-1.48","70","3","2022-11-17 12:24:55","fd252370c17a9971d68c1d4354a03c2e","","Mozilla/5.0 (Windows NT 10.0; Win64; x64; rv:107.0) Gecko/20100101 Firefox/107.0","","Firefox","107.0","Windows","10.0","6319"," ","","A kitten is playing in the sandbox","3","Filler","",""
"","","","","","fixation","77799","html-keyboard-response","229","482294","0.0-6.0-2.48","70","3","2022-11-17 12:24:55","fd252370c17a9971d68c1d4354a03c2e","","Mozilla/5.0 (Windows NT 10.0; Win64; x64; rv:107.0) Gecko/20100101 Firefox/107.0","","Firefox","107.0","Windows","10.0","null","null","","<p style=""font-size: 48px;"">+</p>","3","Filler","",""
"","","","","","picture","77799","image-keyboard-response","230","483268","0.0-6.0-3.48","70","3","2022-11-17 12:24:55","fd252370c17a9971d68c1d4354a03c2e","","Mozilla/5.0 (Windows NT 10.0; Win64; x64; rv:107.0) Gecko/20100101 Firefox/107.0","","Firefox","107.0","Windows","10.0","960","n","","dustbin.jpg","3","Filler","true",""
"","","","","","fixation","77799","html-keyboard-response","231","484313","0.0-6.0-0.49","70","3","2022-11-17 12:24:55","fd252370c17a9971d68c1d4354a03c2e","","Mozilla/5.0 (Windows NT 10.0; Win64; x64; rv:107.0) Gecko/20100101 Firefox/107.0","","Firefox","107.0","Windows","10.0","null","null","","<p style=""font-size: 48px;"">+</p>","3","Filler","",""
"","","","","","sentence","77799","html-keyboard-response","232","487425","0.0-6.0-1.49","70","3","2022-11-17 12:24:55","fd252370c17a9971d68c1d4354a03c2e","","Mozilla/5.0 (Windows NT 10.0; Win64; x64; rv:107.0) Gecko/20100101 Firefox/107.0","","Firefox","107.0","Windows","10.0","3101"," ","","A remote was placed on the rug","3","Filler","",""
"","","","","","fixation","77799","html-keyboard-response","233","487942","0.0-6.0-2.49","70","3","2022-11-17 12:24:55","fd252370c17a9971d68c1d4354a03c2e","","Mozilla/5.0 (Windows NT 10.0; Win64; x64; rv:107.0) Gecko/20100101 Firefox/107.0","","Firefox","107.0","Windows","10.0","null","null","","<p style=""font-size: 48px;"">+</p>","3","Filler","",""
"","","","","","picture","77799","image-keyboard-response","234","488960","0.0-6.0-3.49","70","3","2022-11-17 12:24:55","fd252370c17a9971d68c1d4354a03c2e","","Mozilla/5.0 (Windows NT 10.0; Win64; x64; rv:107.0) Gecko/20100101 Firefox/107.0","","Firefox","107.0","Windows","10.0","990","n","","CD.jpg","3","Filler","true",""
"","","","","","fixation","77799","html-keyboard-response","235","489979","0.0-6.0-0.50","70","3","2022-11-17 12:24:55","fd252370c17a9971d68c1d4354a03c2e","","Mozilla/5.0 (Windows NT 10.0; Win64; x64; rv:107.0) Gecko/20100101 Firefox/107.0","","Firefox","107.0","Windows","10.0","null","null","","<p style=""font-size: 48px;"">+</p>","3","Light_Contradictory","",""
"","","","","","sentence","77799","html-keyboard-response","236","494793","0.0-6.0-1.50","70","3","2022-11-17 12:24:55","fd252370c17a9971d68c1d4354a03c2e","","Mozilla/5.0 (Windows NT 10.0; Win64; x64; rv:107.0) Gecko/20100101 Firefox/107.0","","Firefox","107.0","Windows","10.0","4797"," ","","A balloon dropped and smashed a chocolate ice-cream","3","Light_Contradictory","",""
"","","","","","fixation","77799","html-keyboard-response","237","495311","0.0-6.0-2.50","70","3","2022-11-17 12:24:55","fd252370c17a9971d68c1d4354a03c2e","","Mozilla/5.0 (Windows NT 10.0; Win64; x64; rv:107.0) Gecko/20100101 Firefox/107.0","","Firefox","107.0","Windows","10.0","null","null","","<p style=""font-size: 48px;"">+</p>","3","Light_Contradictory","",""
"","","","","","picture","77799","image-keyboard-response","238","496597","0.0-6.0-3.50","70","3","2022-11-17 12:24:55","fd252370c17a9971d68c1d4354a03c2e","","Mozilla/5.0 (Windows NT 10.0; Win64; x64; rv:107.0) Gecko/20100101 Firefox/107.0","","Firefox","107.0","Windows","10.0","1270","s","","icecreamS.jpg","3","Light_Contradictory","true",""
"","","","","","fixation","77799","html-keyboard-response","239","497614","0.0-6.0-0.51","70","3","2022-11-17 12:24:55","fd252370c17a9971d68c1d4354a03c2e","","Mozilla/5.0 (Windows NT 10.0; Win64; x64; rv:107.0) Gecko/20100101 Firefox/107.0","","Firefox","107.0","Windows","10.0","null","null","","<p style=""font-size: 48px;"">+</p>","3","Heavy_Contradictory","",""
"","","","","","sentence","77799","html-keyboard-response","240","502431","0.0-6.0-1.51","70","3","2022-11-17 12:24:55","fd252370c17a9971d68c1d4354a03c2e","","Mozilla/5.0 (Windows NT 10.0; Win64; x64; rv:107.0) Gecko/20100101 Firefox/107.0","","Firefox","107.0","Windows","10.0","4799"," ","","A bowling ball dropped and touched a tomato","3","Heavy_Contradictory","",""
"","","","","","fixation","77799","html-keyboard-response","241","502945","0.0-6.0-2.51","70","3","2022-11-17 12:24:55","fd252370c17a9971d68c1d4354a03c2e","","Mozilla/5.0 (Windows NT 10.0; Win64; x64; rv:107.0) Gecko/20100101 Firefox/107.0","","Firefox","107.0","Windows","10.0","null","null","","<p style=""font-size: 48px;"">+</p>","3","Heavy_Contradictory","",""
"","","","","","picture","77799","image-keyboard-response","242","503902","0.0-6.0-3.51","70","3","2022-11-17 12:24:55","fd252370c17a9971d68c1d4354a03c2e","","Mozilla/5.0 (Windows NT 10.0; Win64; x64; rv:107.0) Gecko/20100101 Firefox/107.0","","Firefox","107.0","Windows","10.0","929","s","","tomatoS.jpg","3","Heavy_Contradictory","true",""
"","","","","","fixation","77799","html-keyboard-response","243","504937","0.0-6.0-0.52","70","3","2022-11-17 12:24:55","fd252370c17a9971d68c1d4354a03c2e","","Mozilla/5.0 (Windows NT 10.0; Win64; x64; rv:107.0) Gecko/20100101 Firefox/107.0","","Firefox","107.0","Windows","10.0","null","null","","<p style=""font-size: 48px;"">+</p>","3","Filler","",""
"","","","","","sentence","77799","html-keyboard-response","244","506744","0.0-6.0-1.52","70","3","2022-11-17 12:24:55","fd252370c17a9971d68c1d4354a03c2e","","Mozilla/5.0 (Windows NT 10.0; Win64; x64; rv:107.0) Gecko/20100101 Firefox/107.0","","Firefox","107.0","Windows","10.0","1792"," ","","A man is shaving his beard","3","Filler","",""
"","","","","","fixation","77799","html-keyboard-response","245","507270","0.0-6.0-2.52","70","3","2022-11-17 12:24:55","fd252370c17a9971d68c1d4354a03c2e","","Mozilla/5.0 (Windows NT 10.0; Win64; x64; rv:107.0) Gecko/20100101 Firefox/107.0","","Firefox","107.0","Windows","10.0","null","null","","<p style=""font-size: 48px;"">+</p>","3","Filler","",""
"","","","","","picture","77799","image-keyboard-response","246","508131","0.0-6.0-3.52","70","3","2022-11-17 12:24:55","fd252370c17a9971d68c1d4354a03c2e","","Mozilla/5.0 (Windows NT 10.0; Win64; x64; rv:107.0) Gecko/20100101 Firefox/107.0","","Firefox","107.0","Windows","10.0","837","n","","clock.jpg","3","Filler","true",""
"","","","","","fixation","77799","html-keyboard-response","247","509150","0.0-6.0-0.53","70","3","2022-11-17 12:24:55","fd252370c17a9971d68c1d4354a03c2e","","Mozilla/5.0 (Windows NT 10.0; Win64; x64; rv:107.0) Gecko/20100101 Firefox/107.0","","Firefox","107.0","Windows","10.0","null","null","","<p style=""font-size: 48px;"">+</p>","3","Heavy_Contradictory","",""
"","","","","","sentence","77799","html-keyboard-response","248","512460","0.0-6.0-1.53","70","3","2022-11-17 12:24:55","fd252370c17a9971d68c1d4354a03c2e","","Mozilla/5.0 (Windows NT 10.0; Win64; x64; rv:107.0) Gecko/20100101 Firefox/107.0","","Firefox","107.0","Windows","10.0","3291"," ","","A bowling ball dropped and touched a strawberry","3","Heavy_Contradictory","",""
"","","","","","fixation","77799","html-keyboard-response","249","512975","0.0-6.0-2.53","70","3","2022-11-17 12:24:55","fd252370c17a9971d68c1d4354a03c2e","","Mozilla/5.0 (Windows NT 10.0; Win64; x64; rv:107.0) Gecko/20100101 Firefox/107.0","","Firefox","107.0","Windows","10.0","null","null","","<p style=""font-size: 48px;"">+</p>","3","Heavy_Contradictory","",""
"","","","","","picture","77799","image-keyboard-response","250","513859","0.0-6.0-3.53","70","3","2022-11-17 12:24:55","fd252370c17a9971d68c1d4354a03c2e","","Mozilla/5.0 (Windows NT 10.0; Win64; x64; rv:107.0) Gecko/20100101 Firefox/107.0","","Firefox","107.0","Windows","10.0","854","s","","strawberryS.jpg","3","Heavy_Contradictory","true",""
"","","","","","fixation","77799","html-keyboard-response","251","514902","0.0-6.0-0.54","70","3","2022-11-17 12:24:55","fd252370c17a9971d68c1d4354a03c2e","","Mozilla/5.0 (Windows NT 10.0; Win64; x64; rv:107.0) Gecko/20100101 Firefox/107.0","","Firefox","107.0","Windows","10.0","null","null","","<p style=""font-size: 48px;"">+</p>","3","Filler","",""
"","","","","","sentence","77799","html-keyboard-response","252","516803","0.0-6.0-1.54","70","3","2022-11-17 12:24:55","fd252370c17a9971d68c1d4354a03c2e","","Mozilla/5.0 (Windows NT 10.0; Win64; x64; rv:107.0) Gecko/20100101 Firefox/107.0","","Firefox","107.0","Windows","10.0","1866"," ","","A mouse is eating cheese","3","Filler","",""
"","","","","","fixation","77799","html-keyboard-response","253","517332","0.0-6.0-2.54","70","3","2022-11-17 12:24:55","fd252370c17a9971d68c1d4354a03c2e","","Mozilla/5.0 (Windows NT 10.0; Win64; x64; rv:107.0) Gecko/20100101 Firefox/107.0","","Firefox","107.0","Windows","10.0","null","null","","<p style=""font-size: 48px;"">+</p>","3","Filler","",""
"","","","","","picture","77799","image-keyboard-response","254","518158","0.0-6.0-3.54","70","3","2022-11-17 12:24:55","fd252370c17a9971d68c1d4354a03c2e","","Mozilla/5.0 (Windows NT 10.0; Win64; x64; rv:107.0) Gecko/20100101 Firefox/107.0","","Firefox","107.0","Windows","10.0","800","n","","ring.jpg","3","Filler","true",""
"","","","","","fixation","77799","html-keyboard-response","255","519186","0.0-6.0-0.55","70","3","2022-11-17 12:24:55","fd252370c17a9971d68c1d4354a03c2e","","Mozilla/5.0 (Windows NT 10.0; Win64; x64; rv:107.0) Gecko/20100101 Firefox/107.0","","Firefox","107.0","Windows","10.0","null","null","","<p style=""font-size: 48px;"">+</p>","3","Light_Contradictory","",""
"","","","","","sentence","77799","html-keyboard-response","256","521770","0.0-6.0-1.55","70","3","2022-11-17 12:24:55","fd252370c17a9971d68c1d4354a03c2e","","Mozilla/5.0 (Windows NT 10.0; Win64; x64; rv:107.0) Gecko/20100101 Firefox/107.0","","Firefox","107.0","Windows","10.0","2565"," ","","A balloon dropped and smashed a blackberry","3","Light_Contradictory","",""
"","","","","","fixation","77799","html-keyboard-response","257","522293","0.0-6.0-2.55","70","3","2022-11-17 12:24:55","fd252370c17a9971d68c1d4354a03c2e","","Mozilla/5.0 (Windows NT 10.0; Win64; x64; rv:107.0) Gecko/20100101 Firefox/107.0","","Firefox","107.0","Windows","10.0","null","null","","<p style=""font-size: 48px;"">+</p>","3","Light_Contradictory","",""
"","","","","","picture","77799","image-keyboard-response","258","523175","0.0-6.0-3.55","70","3","2022-11-17 12:24:55","fd252370c17a9971d68c1d4354a03c2e","","Mozilla/5.0 (Windows NT 10.0; Win64; x64; rv:107.0) Gecko/20100101 Firefox/107.0","","Firefox","107.0","Windows","10.0","856","s","","blackberryS.jpg","3","Light_Contradictory","true",""
"","","","","","fixation","77799","html-keyboard-response","259","524207","0.0-6.0-0.56","70","3","2022-11-17 12:24:55","fd252370c17a9971d68c1d4354a03c2e","","Mozilla/5.0 (Windows NT 10.0; Win64; x64; rv:107.0) Gecko/20100101 Firefox/107.0","","Firefox","107.0","Windows","10.0","null","null","","<p style=""font-size: 48px;"">+</p>","3","Filler","",""
"","","","","","sentence","77799","html-keyboard-response","260","526683","0.0-6.0-1.56","70","3","2022-11-17 12:24:55","fd252370c17a9971d68c1d4354a03c2e","","Mozilla/5.0 (Windows NT 10.0; Win64; x64; rv:107.0) Gecko/20100101 Firefox/107.0","","Firefox","107.0","Windows","10.0","2456"," ","","A police officer is talking on the phone","3","Filler","",""
"","","","","","fixation","77799","html-keyboard-response","261","527204","0.0-6.0-2.56","70","3","2022-11-17 12:24:55","fd252370c17a9971d68c1d4354a03c2e","","Mozilla/5.0 (Windows NT 10.0; Win64; x64; rv:107.0) Gecko/20100101 Firefox/107.0","","Firefox","107.0","Windows","10.0","null","null","","<p style=""font-size: 48px;"">+</p>","3","Filler","",""
"","","","","","picture","77799","image-keyboard-response","262","528350","0.0-6.0-3.56","70","3","2022-11-17 12:24:55","fd252370c17a9971d68c1d4354a03c2e","","Mozilla/5.0 (Windows NT 10.0; Win64; x64; rv:107.0) Gecko/20100101 Firefox/107.0","","Firefox","107.0","Windows","10.0","1129","n","","tissuebox.jpg","3","Filler","true",""
"","","","","","fixation","77799","html-keyboard-response","263","529405","0.0-6.0-0.57","70","3","2022-11-17 12:24:55","fd252370c17a9971d68c1d4354a03c2e","","Mozilla/5.0 (Windows NT 10.0; Win64; x64; rv:107.0) Gecko/20100101 Firefox/107.0","","Firefox","107.0","Windows","10.0","null","null","","<p style=""font-size: 48px;"">+</p>","3","Filler","",""
"","","","","","sentence","77799","html-keyboard-response","264","532467","0.0-6.0-1.57","70","3","2022-11-17 12:24:55","fd252370c17a9971d68c1d4354a03c2e","","Mozilla/5.0 (Windows NT 10.0; Win64; x64; rv:107.0) Gecko/20100101 Firefox/107.0","","Firefox","107.0","Windows","10.0","3050"," ","","A boy is wearing a hat","3","Filler","",""
"","","","","","fixation","77799","html-keyboard-response","265","532987","0.0-6.0-2.57","70","3","2022-11-17 12:24:55","fd252370c17a9971d68c1d4354a03c2e","","Mozilla/5.0 (Windows NT 10.0; Win64; x64; rv:107.0) Gecko/20100101 Firefox/107.0","","Firefox","107.0","Windows","10.0","null","null","","<p style=""font-size: 48px;"">+</p>","3","Filler","",""
"","","","","","picture","77799","image-keyboard-response","266","534096","0.0-6.0-3.57","70","3","2022-11-17 12:24:55","fd252370c17a9971d68c1d4354a03c2e","","Mozilla/5.0 (Windows NT 10.0; Win64; x64; rv:107.0) Gecko/20100101 Firefox/107.0","","Firefox","107.0","Windows","10.0","1087","s","","hat.jpg","3","Filler","true",""
"","","","","","fixation","77799","html-keyboard-response","267","535149","0.0-6.0-0.58","70","3","2022-11-17 12:24:55","fd252370c17a9971d68c1d4354a03c2e","","Mozilla/5.0 (Windows NT 10.0; Win64; x64; rv:107.0) Gecko/20100101 Firefox/107.0","","Firefox","107.0","Windows","10.0","null","null","","<p style=""font-size: 48px;"">+</p>","3","Heavy_Contradictory","",""
"","","","","","sentence","77799","html-keyboard-response","268","538308","0.0-6.0-1.58","70","3","2022-11-17 12:24:55","fd252370c17a9971d68c1d4354a03c2e","","Mozilla/5.0 (Windows NT 10.0; Win64; x64; rv:107.0) Gecko/20100101 Firefox/107.0","","Firefox","107.0","Windows","10.0","3131"," ","","A bowling ball dropped and touched a piece of sushi","3","Heavy_Contradictory","",""
"","","","","","fixation","77799","html-keyboard-response","269","538838","0.0-6.0-2.58","70","3","2022-11-17 12:24:55","fd252370c17a9971d68c1d4354a03c2e","","Mozilla/5.0 (Windows NT 10.0; Win64; x64; rv:107.0) Gecko/20100101 Firefox/107.0","","Firefox","107.0","Windows","10.0","null","null","","<p style=""font-size: 48px;"">+</p>","3","Heavy_Contradictory","",""
"","","","","","picture","77799","image-keyboard-response","270","540238","0.0-6.0-3.58","70","3","2022-11-17 12:24:55","fd252370c17a9971d68c1d4354a03c2e","","Mozilla/5.0 (Windows NT 10.0; Win64; x64; rv:107.0) Gecko/20100101 Firefox/107.0","","Firefox","107.0","Windows","10.0","1369","s","","sushiS.jpg","3","Heavy_Contradictory","true",""
"","","","","","fixation","77799","html-keyboard-response","271","541252","0.0-6.0-0.59","70","3","2022-11-17 12:24:55","fd252370c17a9971d68c1d4354a03c2e","","Mozilla/5.0 (Windows NT 10.0; Win64; x64; rv:107.0) Gecko/20100101 Firefox/107.0","","Firefox","107.0","Windows","10.0","null","null","","<p style=""font-size: 48px;"">+</p>","3","Filler","",""
"","","","","","sentence","77799","html-keyboard-response","272","543092","0.0-6.0-1.59","70","3","2022-11-17 12:24:55","fd252370c17a9971d68c1d4354a03c2e","","Mozilla/5.0 (Windows NT 10.0; Win64; x64; rv:107.0) Gecko/20100101 Firefox/107.0","","Firefox","107.0","Windows","10.0","1828"," ","","A cushion was placed on the magazine","3","Filler","",""
"","","","","","fixation","77799","html-keyboard-response","273","543621","0.0-6.0-2.59","70","3","2022-11-17 12:24:55","fd252370c17a9971d68c1d4354a03c2e","","Mozilla/5.0 (Windows NT 10.0; Win64; x64; rv:107.0) Gecko/20100101 Firefox/107.0","","Firefox","107.0","Windows","10.0","null","null","","<p style=""font-size: 48px;"">+</p>","3","Filler","",""
"","","","","","picture","77799","image-keyboard-response","274","545620","0.0-6.0-3.59","70","3","2022-11-17 12:24:55","fd252370c17a9971d68c1d4354a03c2e","","Mozilla/5.0 (Windows NT 10.0; Win64; x64; rv:107.0) Gecko/20100101 Firefox/107.0","","Firefox","107.0","Windows","10.0","1967","n","","box.jpg","3","Filler","true",""
"","","","","","fixation","77799","html-keyboard-response","275","546649","0.0-6.0-0.60","70","3","2022-11-17 12:24:55","fd252370c17a9971d68c1d4354a03c2e","","Mozilla/5.0 (Windows NT 10.0; Win64; x64; rv:107.0) Gecko/20100101 Firefox/107.0","","Firefox","107.0","Windows","10.0","null","null","","<p style=""font-size: 48px;"">+</p>","3","Filler","",""
"","","","","","sentence","77799","html-keyboard-response","276","548286","0.0-6.0-1.60","70","3","2022-11-17 12:24:55","fd252370c17a9971d68c1d4354a03c2e","","Mozilla/5.0 (Windows NT 10.0; Win64; x64; rv:107.0) Gecko/20100101 Firefox/107.0","","Firefox","107.0","Windows","10.0","1619"," ","","A postman is driving a car","3","Filler","",""
