"success","timeout","failed_images","failed_audio","failed_video","typeoftrial","subject","trial_type","trial_index","time_elapsed","internal_node_id","run_id","condition","recorded_at","source_code_version","ip","user_agent","device","browser","browser_version","platform","platform_version","rt","response","Experiment","stimulus","list_number","trialcondition","correct","question_order"
"true","false","[]","[]","[]","preload","21102","preload","0","4344","0.0-0.0","46","3","2022-11-17 12:19:20","fd252370c17a9971d68c1d4354a03c2e","","Mozilla/5.0 (Windows NT 10.0; Win64; x64) AppleWebKit/537.36 (KHTML, like Gecko) Chrome/107.0.0.0 Safari/537.36 Edg/107.0.1418.42","WebKit","Edge","107.0.1418.42","Windows","10.0","","","","","","","",""
"","","","","","ID","21102","survey-text","1","18777","0.0-1.0","46","3","2022-11-17 12:19:20","fd252370c17a9971d68c1d4354a03c2e","","Mozilla/5.0 (Windows NT 10.0; Win64; x64) AppleWebKit/537.36 (KHTML, like Gecko) Chrome/107.0.0.0 Safari/537.36 Edg/107.0.1418.42","WebKit","Edge","107.0.1418.42","Windows","10.0","14350","{""ID"":""60b65ac40acb3a485dfa7912""}","","","","","",""
"","","","","","instructions","21102","html-button-response","2","36625","0.0-2.0","46","3","2022-11-17 12:19:20","fd252370c17a9971d68c1d4354a03c2e","","Mozilla/5.0 (Windows NT 10.0; Win64; x64) AppleWebKit/537.36 (KHTML, like Gecko) Chrome/107.0.0.0 Safari/537.36 Edg/107.0.1418.42","WebKit","Edge","107.0.1418.42","Windows","10.0","17838","0","","
                    <p style=""font-size:20px;""> Welcome to the experiment! </p>
                    <p style=""font-size:20px;""> In this experiment, you will be asked to make judgments about the content of different sentences.</p>
                    <p style=""font-size:20px;""> On each trial, you will read a sentence, and will be shown a picture immediately following the sentence. </p>
                    <p style=""font-size:20px;""> Your task is to decide whether the object displayed in the picture was mentioned in the sentence or not </p>
                    <p style=""font-size:20px;""> and respond as quickly as possible by pressing <strong>S</strong> for yes or <strong>N</strong> for no. </p>
                    <p style=""font-size:20px;""> You will now do a practice session with feedback and instructions. </p>
                    <p style=""font-size:20px;""> Click the button below to continue.</p>
                    ","","","",""
"","","","","","instructions","21102","html-button-response","3","56863","0.0-3.0","46","3","2022-11-17 12:19:20","fd252370c17a9971d68c1d4354a03c2e","","Mozilla/5.0 (Windows NT 10.0; Win64; x64) AppleWebKit/537.36 (KHTML, like Gecko) Chrome/107.0.0.0 Safari/537.36 Edg/107.0.1418.42","WebKit","Edge","107.0.1418.42","Windows","10.0","20227","0","","
                    <p style=""font-size:20px;""> You are about to begin the practice test. </p>
                    <p style=""font-size:20px;""> On each trial, a sentence will appear on the screen. You should press SPACEBAR when you have read and understood the sentence.</p>
                    <p style=""font-size:20px;""> After you press SPACEBAR, a picture will appear on the screen. </p>
                    <p style=""font-size:20px;""> You need to indicate whether or not the pictured object was mentioned in the sentence. </p>
                    <p style=""font-size:20px;""> If the object WAS mentioned in the preceding sentence, you should press <strong>S</strong> </p>
                    <p style=""font-size:20px;""> If the object was NOT mentioned in the preceding sentence, you should press <strong>N</strong>. </p>
                    <p style=""font-size:20px;""> Click the button below to continue to the practice session.</p>
                    ","","","",""
"","","","","","fixation","21102","html-keyboard-response","4","57881","0.0-4.0-0.0","46","3","2022-11-17 12:19:20","fd252370c17a9971d68c1d4354a03c2e","","Mozilla/5.0 (Windows NT 10.0; Win64; x64) AppleWebKit/537.36 (KHTML, like Gecko) Chrome/107.0.0.0 Safari/537.36 Edg/107.0.1418.42","WebKit","Edge","107.0.1418.42","Windows","10.0","null","null","","<p style=""font-size: 48px;"">+</p>","practice","practice_n","",""
"","","","","","sentence","21102","html-keyboard-response","5","61383","0.0-4.0-1.0","46","3","2022-11-17 12:19:20","fd252370c17a9971d68c1d4354a03c2e","","Mozilla/5.0 (Windows NT 10.0; Win64; x64) AppleWebKit/537.36 (KHTML, like Gecko) Chrome/107.0.0.0 Safari/537.36 Edg/107.0.1418.42","WebKit","Edge","107.0.1418.42","Windows","10.0","3498"," ","","A balloon dropped and smashed a cup","practice","practice_n","",""
"","","","","","fixation","21102","html-keyboard-response","6","61896","0.0-4.0-2.0","46","3","2022-11-17 12:19:20","fd252370c17a9971d68c1d4354a03c2e","","Mozilla/5.0 (Windows NT 10.0; Win64; x64) AppleWebKit/537.36 (KHTML, like Gecko) Chrome/107.0.0.0 Safari/537.36 Edg/107.0.1418.42","WebKit","Edge","107.0.1418.42","Windows","10.0","null","null","","<p style=""font-size: 48px;"">+</p>","practice","practice_n","",""
"","","","","","picture","21102","image-keyboard-response","7","65577","0.0-4.0-3.0","46","3","2022-11-17 12:19:20","fd252370c17a9971d68c1d4354a03c2e","","Mozilla/5.0 (Windows NT 10.0; Win64; x64) AppleWebKit/537.36 (KHTML, like Gecko) Chrome/107.0.0.0 Safari/537.36 Edg/107.0.1418.42","WebKit","Edge","107.0.1418.42","Windows","10.0","2045","n","","bananaB.jpg","practice","practice_n","true",""
"","","","","","","","html-keyboard-response","8","67589","0.0-4.0-4.0","46","3","2022-11-17 12:19:20","fd252370c17a9971d68c1d4354a03c2e","","Mozilla/5.0 (Windows NT 10.0; Win64; x64) AppleWebKit/537.36 (KHTML, like Gecko) Chrome/107.0.0.0 Safari/537.36 Edg/107.0.1418.42","WebKit","Edge","107.0.1418.42","Windows","10.0","null","null","","CORRECT!","","","",""
"","","","","","fixation","21102","html-keyboard-response","9","68607","0.0-4.0-0.1","46","3","2022-11-17 12:19:20","fd252370c17a9971d68c1d4354a03c2e","","Mozilla/5.0 (Windows NT 10.0; Win64; x64) AppleWebKit/537.36 (KHTML, like Gecko) Chrome/107.0.0.0 Safari/537.36 Edg/107.0.1418.42","WebKit","Edge","107.0.1418.42","Windows","10.0","null","null","","<p style=""font-size: 48px;"">+</p>","practice","practice_s","",""
"","","","","","sentence","21102","html-keyboard-response","10","71091","0.0-4.0-1.1","46","3","2022-11-17 12:19:20","fd252370c17a9971d68c1d4354a03c2e","","Mozilla/5.0 (Windows NT 10.0; Win64; x64) AppleWebKit/537.36 (KHTML, like Gecko) Chrome/107.0.0.0 Safari/537.36 Edg/107.0.1418.42","WebKit","Edge","107.0.1418.42","Windows","10.0","2473"," ","","A knife was placed on a hammer","practice","practice_s","",""
"","","","","","fixation","21102","html-keyboard-response","11","71598","0.0-4.0-2.1","46","3","2022-11-17 12:19:20","fd252370c17a9971d68c1d4354a03c2e","","Mozilla/5.0 (Windows NT 10.0; Win64; x64) AppleWebKit/537.36 (KHTML, like Gecko) Chrome/107.0.0.0 Safari/537.36 Edg/107.0.1418.42","WebKit","Edge","107.0.1418.42","Windows","10.0","null","null","","<p style=""font-size: 48px;"">+</p>","practice","practice_s","",""
"","","","","","picture","21102","image-keyboard-response","12","72811","0.0-4.0-3.1","46","3","2022-11-17 12:19:20","fd252370c17a9971d68c1d4354a03c2e","","Mozilla/5.0 (Windows NT 10.0; Win64; x64) AppleWebKit/537.36 (KHTML, like Gecko) Chrome/107.0.0.0 Safari/537.36 Edg/107.0.1418.42","WebKit","Edge","107.0.1418.42","Windows","10.0","1208","s","","hammerB.jpg","practice","practice_s","true",""
"","","","","","","","html-keyboard-response","13","74826","0.0-4.0-4.1","46","3","2022-11-17 12:19:20","fd252370c17a9971d68c1d4354a03c2e","","Mozilla/5.0 (Windows NT 10.0; Win64; x64) AppleWebKit/537.36 (KHTML, like Gecko) Chrome/107.0.0.0 Safari/537.36 Edg/107.0.1418.42","WebKit","Edge","107.0.1418.42","Windows","10.0","null","null","","CORRECT!","","","",""
"","","","","","fixation","21102","html-keyboard-response","14","75842","0.0-4.0-0.2","46","3","2022-11-17 12:19:20","fd252370c17a9971d68c1d4354a03c2e","","Mozilla/5.0 (Windows NT 10.0; Win64; x64) AppleWebKit/537.36 (KHTML, like Gecko) Chrome/107.0.0.0 Safari/537.36 Edg/107.0.1418.42","WebKit","Edge","107.0.1418.42","Windows","10.0","null","null","","<p style=""font-size: 48px;"">+</p>","practice","practice_n","",""
"","","","","","sentence","21102","html-keyboard-response","15","79890","0.0-4.0-1.2","46","3","2022-11-17 12:19:20","fd252370c17a9971d68c1d4354a03c2e","","Mozilla/5.0 (Windows NT 10.0; Win64; x64) AppleWebKit/537.36 (KHTML, like Gecko) Chrome/107.0.0.0 Safari/537.36 Edg/107.0.1418.42","WebKit","Edge","107.0.1418.42","Windows","10.0","3903"," ","","A bowling ball dropped and touched a bottle","practice","practice_n","",""
"","","","","","fixation","21102","html-keyboard-response","16","80400","0.0-4.0-2.2","46","3","2022-11-17 12:19:20","fd252370c17a9971d68c1d4354a03c2e","","Mozilla/5.0 (Windows NT 10.0; Win64; x64) AppleWebKit/537.36 (KHTML, like Gecko) Chrome/107.0.0.0 Safari/537.36 Edg/107.0.1418.42","WebKit","Edge","107.0.1418.42","Windows","10.0","null","null","","<p style=""font-size: 48px;"">+</p>","practice","practice_n","",""
"","","","","","picture","21102","image-keyboard-response","17","81431","0.0-4.0-3.2","46","3","2022-11-17 12:19:20","fd252370c17a9971d68c1d4354a03c2e","","Mozilla/5.0 (Windows NT 10.0; Win64; x64) AppleWebKit/537.36 (KHTML, like Gecko) Chrome/107.0.0.0 Safari/537.36 Edg/107.0.1418.42","WebKit","Edge","107.0.1418.42","Windows","10.0","1025","n","","bookB.jpg","practice","practice_n","true",""
"","","","","","","","html-keyboard-response","18","83451","0.0-4.0-4.2","46","3","2022-11-17 12:19:20","fd252370c17a9971d68c1d4354a03c2e","","Mozilla/5.0 (Windows NT 10.0; Win64; x64) AppleWebKit/537.36 (KHTML, like Gecko) Chrome/107.0.0.0 Safari/537.36 Edg/107.0.1418.42","WebKit","Edge","107.0.1418.42","Windows","10.0","null","null","","CORRECT!","","","",""
"","","","","","fixation","21102","html-keyboard-response","19","84469","0.0-4.0-0.3","46","3","2022-11-17 12:19:20","fd252370c17a9971d68c1d4354a03c2e","","Mozilla/5.0 (Windows NT 10.0; Win64; x64) AppleWebKit/537.36 (KHTML, like Gecko) Chrome/107.0.0.0 Safari/537.36 Edg/107.0.1418.42","WebKit","Edge","107.0.1418.42","Windows","10.0","null","null","","<p style=""font-size: 48px;"">+</p>","practice","practice_s","",""
"","","","","","sentence","21102","html-keyboard-response","20","87498","0.0-4.0-1.3","46","3","2022-11-17 12:19:20","fd252370c17a9971d68c1d4354a03c2e","","Mozilla/5.0 (Windows NT 10.0; Win64; x64) AppleWebKit/537.36 (KHTML, like Gecko) Chrome/107.0.0.0 Safari/537.36 Edg/107.0.1418.42","WebKit","Edge","107.0.1418.42","Windows","10.0","3018"," ","","A bowling ball dropped and smashed a teacup","practice","practice_s","",""
"","","","","","fixation","21102","html-keyboard-response","21","88012","0.0-4.0-2.3","46","3","2022-11-17 12:19:20","fd252370c17a9971d68c1d4354a03c2e","","Mozilla/5.0 (Windows NT 10.0; Win64; x64) AppleWebKit/537.36 (KHTML, like Gecko) Chrome/107.0.0.0 Safari/537.36 Edg/107.0.1418.42","WebKit","Edge","107.0.1418.42","Windows","10.0","null","null","","<p style=""font-size: 48px;"">+</p>","practice","practice_s","",""
"","","","","","picture","21102","image-keyboard-response","22","90545","0.0-4.0-3.3","46","3","2022-11-17 12:19:20","fd252370c17a9971d68c1d4354a03c2e","","Mozilla/5.0 (Windows NT 10.0; Win64; x64) AppleWebKit/537.36 (KHTML, like Gecko) Chrome/107.0.0.0 Safari/537.36 Edg/107.0.1418.42","WebKit","Edge","107.0.1418.42","Windows","10.0","2520","n","","cupB.jpg","practice","practice_s","false",""
"","","","","","","","html-keyboard-response","23","92556","0.0-4.0-4.3","46","3","2022-11-17 12:19:20","fd252370c17a9971d68c1d4354a03c2e","","Mozilla/5.0 (Windows NT 10.0; Win64; x64) AppleWebKit/537.36 (KHTML, like Gecko) Chrome/107.0.0.0 Safari/537.36 Edg/107.0.1418.42","WebKit","Edge","107.0.1418.42","Windows","10.0","null","null","","WRONG!","","","",""
"","","","","","fixation","21102","html-keyboard-response","24","93571","0.0-4.0-0.4","46","3","2022-11-17 12:19:20","fd252370c17a9971d68c1d4354a03c2e","","Mozilla/5.0 (Windows NT 10.0; Win64; x64) AppleWebKit/537.36 (KHTML, like Gecko) Chrome/107.0.0.0 Safari/537.36 Edg/107.0.1418.42","WebKit","Edge","107.0.1418.42","Windows","10.0","null","null","","<p style=""font-size: 48px;"">+</p>","practice","practice_n","",""
"","","","","","sentence","21102","html-keyboard-response","25","95862","0.0-4.0-1.4","46","3","2022-11-17 12:19:20","fd252370c17a9971d68c1d4354a03c2e","","Mozilla/5.0 (Windows NT 10.0; Win64; x64) AppleWebKit/537.36 (KHTML, like Gecko) Chrome/107.0.0.0 Safari/537.36 Edg/107.0.1418.42","WebKit","Edge","107.0.1418.42","Windows","10.0","2286"," ","","A fork was placed on a stool","practice","practice_n","",""
"","","","","","fixation","21102","html-keyboard-response","26","96368","0.0-4.0-2.4","46","3","2022-11-17 12:19:20","fd252370c17a9971d68c1d4354a03c2e","","Mozilla/5.0 (Windows NT 10.0; Win64; x64) AppleWebKit/537.36 (KHTML, like Gecko) Chrome/107.0.0.0 Safari/537.36 Edg/107.0.1418.42","WebKit","Edge","107.0.1418.42","Windows","10.0","null","null","","<p style=""font-size: 48px;"">+</p>","practice","practice_n","",""
"","","","","","picture","21102","image-keyboard-response","27","98273","0.0-4.0-3.4","46","3","2022-11-17 12:19:20","fd252370c17a9971d68c1d4354a03c2e","","Mozilla/5.0 (Windows NT 10.0; Win64; x64) AppleWebKit/537.36 (KHTML, like Gecko) Chrome/107.0.0.0 Safari/537.36 Edg/107.0.1418.42","WebKit","Edge","107.0.1418.42","Windows","10.0","1899","n","","tableB.jpg","practice","practice_n","true",""
"","","","","","","","html-keyboard-response","28","100285","0.0-4.0-4.4","46","3","2022-11-17 12:19:20","fd252370c17a9971d68c1d4354a03c2e","","Mozilla/5.0 (Windows NT 10.0; Win64; x64) AppleWebKit/537.36 (KHTML, like Gecko) Chrome/107.0.0.0 Safari/537.36 Edg/107.0.1418.42","WebKit","Edge","107.0.1418.42","Windows","10.0","null","null","","CORRECT!","","","",""
"","","","","","fixation","21102","html-keyboard-response","29","101294","0.0-4.0-0.5","46","3","2022-11-17 12:19:20","fd252370c17a9971d68c1d4354a03c2e","","Mozilla/5.0 (Windows NT 10.0; Win64; x64) AppleWebKit/537.36 (KHTML, like Gecko) Chrome/107.0.0.0 Safari/537.36 Edg/107.0.1418.42","WebKit","Edge","107.0.1418.42","Windows","10.0","null","null","","<p style=""font-size: 48px;"">+</p>","practice","practice_s","",""
"","","","","","sentence","21102","html-keyboard-response","30","103668","0.0-4.0-1.5","46","3","2022-11-17 12:19:20","fd252370c17a9971d68c1d4354a03c2e","","Mozilla/5.0 (Windows NT 10.0; Win64; x64) AppleWebKit/537.36 (KHTML, like Gecko) Chrome/107.0.0.0 Safari/537.36 Edg/107.0.1418.42","WebKit","Edge","107.0.1418.42","Windows","10.0","2370"," ","","A balloon dropped and touched a cigarette","practice","practice_s","",""
"","","","","","fixation","21102","html-keyboard-response","31","104178","0.0-4.0-2.5","46","3","2022-11-17 12:19:20","fd252370c17a9971d68c1d4354a03c2e","","Mozilla/5.0 (Windows NT 10.0; Win64; x64) AppleWebKit/537.36 (KHTML, like Gecko) Chrome/107.0.0.0 Safari/537.36 Edg/107.0.1418.42","WebKit","Edge","107.0.1418.42","Windows","10.0","null","null","","<p style=""font-size: 48px;"">+</p>","practice","practice_s","",""
"","","","","","picture","21102","image-keyboard-response","32","105016","0.0-4.0-3.5","46","3","2022-11-17 12:19:20","fd252370c17a9971d68c1d4354a03c2e","","Mozilla/5.0 (Windows NT 10.0; Win64; x64) AppleWebKit/537.36 (KHTML, like Gecko) Chrome/107.0.0.0 Safari/537.36 Edg/107.0.1418.42","WebKit","Edge","107.0.1418.42","Windows","10.0","831","s","","cigaretteB.jpg","practice","practice_s","true",""
"","","","","","","","html-keyboard-response","33","107030","0.0-4.0-4.5","46","3","2022-11-17 12:19:20","fd252370c17a9971d68c1d4354a03c2e","","Mozilla/5.0 (Windows NT 10.0; Win64; x64) AppleWebKit/537.36 (KHTML, like Gecko) Chrome/107.0.0.0 Safari/537.36 Edg/107.0.1418.42","WebKit","Edge","107.0.1418.42","Windows","10.0","null","null","","CORRECT!","","","",""
"","","","","","movetoexp","21102","html-button-response","34","114298","0.0-5.0","46","3","2022-11-17 12:19:20","fd252370c17a9971d68c1d4354a03c2e","","Mozilla/5.0 (Windows NT 10.0; Win64; x64) AppleWebKit/537.36 (KHTML, like Gecko) Chrome/107.0.0.0 Safari/537.36 Edg/107.0.1418.42","WebKit","Edge","107.0.1418.42","Windows","10.0","7258","0","","<p style=""font-size:20px;"">You have now completed the practice session! </p>
                    <p style=""font-size:20px;"">You will now move on to the main experiment, where you will not be provided any feedback. </p>
                    <p style=""font-size:20px;"">Remember, you should press <strong>S</strong> if the pictured object was mentioned in the preceding sentence<br> and <strong>N</strong> if the pictured object was not mentioned in the preceding sentence.</p>
                    <p style=""font-size:20px;"">Please click the button below to continue to the main experiment. </p>","","","",""
"","","","","","fixation","21102","html-keyboard-response","35","115314","0.0-6.0-0.0","46","3","2022-11-17 12:19:20","fd252370c17a9971d68c1d4354a03c2e","","Mozilla/5.0 (Windows NT 10.0; Win64; x64) AppleWebKit/537.36 (KHTML, like Gecko) Chrome/107.0.0.0 Safari/537.36 Edg/107.0.1418.42","WebKit","Edge","107.0.1418.42","Windows","10.0","null","null","","<p style=""font-size: 48px;"">+</p>","3","Light_Matched","",""
"","","","","","sentence","21102","html-keyboard-response","36","118897","0.0-6.0-1.0","46","3","2022-11-17 12:19:20","fd252370c17a9971d68c1d4354a03c2e","","Mozilla/5.0 (Windows NT 10.0; Win64; x64) AppleWebKit/537.36 (KHTML, like Gecko) Chrome/107.0.0.0 Safari/537.36 Edg/107.0.1418.42","WebKit","Edge","107.0.1418.42","Windows","10.0","3576"," ","","A balloon dropped and touched a wineglass","3","Light_Matched","",""
"","","","","","fixation","21102","html-keyboard-response","37","119415","0.0-6.0-2.0","46","3","2022-11-17 12:19:20","fd252370c17a9971d68c1d4354a03c2e","","Mozilla/5.0 (Windows NT 10.0; Win64; x64) AppleWebKit/537.36 (KHTML, like Gecko) Chrome/107.0.0.0 Safari/537.36 Edg/107.0.1418.42","WebKit","Edge","107.0.1418.42","Windows","10.0","null","null","","<p style=""font-size: 48px;"">+</p>","3","Light_Matched","",""
"","","","","","picture","21102","image-keyboard-response","38","121634","0.0-6.0-3.0","46","3","2022-11-17 12:19:20","fd252370c17a9971d68c1d4354a03c2e","","Mozilla/5.0 (Windows NT 10.0; Win64; x64) AppleWebKit/537.36 (KHTML, like Gecko) Chrome/107.0.0.0 Safari/537.36 Edg/107.0.1418.42","WebKit","Edge","107.0.1418.42","Windows","10.0","2208","s","","wineglassS.jpg","3","Light_Matched","true",""
"","","","","","fixation","21102","html-keyboard-response","39","122657","0.0-6.0-0.1","46","3","2022-11-17 12:19:20","fd252370c17a9971d68c1d4354a03c2e","","Mozilla/5.0 (Windows NT 10.0; Win64; x64) AppleWebKit/537.36 (KHTML, like Gecko) Chrome/107.0.0.0 Safari/537.36 Edg/107.0.1418.42","WebKit","Edge","107.0.1418.42","Windows","10.0","null","null","","<p style=""font-size: 48px;"">+</p>","3","Filler","",""
"","","","","","sentence","21102","html-keyboard-response","40","124967","0.0-6.0-1.1","46","3","2022-11-17 12:19:20","fd252370c17a9971d68c1d4354a03c2e","","Mozilla/5.0 (Windows NT 10.0; Win64; x64) AppleWebKit/537.36 (KHTML, like Gecko) Chrome/107.0.0.0 Safari/537.36 Edg/107.0.1418.42","WebKit","Edge","107.0.1418.42","Windows","10.0","2303"," ","","A postman is driving a car","3","Filler","",""
"","","","","","fixation","21102","html-keyboard-response","41","125474","0.0-6.0-2.1","46","3","2022-11-17 12:19:20","fd252370c17a9971d68c1d4354a03c2e","","Mozilla/5.0 (Windows NT 10.0; Win64; x64) AppleWebKit/537.36 (KHTML, like Gecko) Chrome/107.0.0.0 Safari/537.36 Edg/107.0.1418.42","WebKit","Edge","107.0.1418.42","Windows","10.0","null","null","","<p style=""font-size: 48px;"">+</p>","3","Filler","",""
"","","","","","picture","21102","image-keyboard-response","42","128285","0.0-6.0-3.1","46","3","2022-11-17 12:19:20","fd252370c17a9971d68c1d4354a03c2e","","Mozilla/5.0 (Windows NT 10.0; Win64; x64) AppleWebKit/537.36 (KHTML, like Gecko) Chrome/107.0.0.0 Safari/537.36 Edg/107.0.1418.42","WebKit","Edge","107.0.1418.42","Windows","10.0","2800","s","","car.jpg","3","Filler","true",""
"","","","","","fixation","21102","html-keyboard-response","43","129314","0.0-6.0-0.2","46","3","2022-11-17 12:19:20","fd252370c17a9971d68c1d4354a03c2e","","Mozilla/5.0 (Windows NT 10.0; Win64; x64) AppleWebKit/537.36 (KHTML, like Gecko) Chrome/107.0.0.0 Safari/537.36 Edg/107.0.1418.42","WebKit","Edge","107.0.1418.42","Windows","10.0","null","null","","<p style=""font-size: 48px;"">+</p>","3","Filler","",""
"","","","","","sentence","21102","html-keyboard-response","44","132833","0.0-6.0-1.2","46","3","2022-11-17 12:19:20","fd252370c17a9971d68c1d4354a03c2e","","Mozilla/5.0 (Windows NT 10.0; Win64; x64) AppleWebKit/537.36 (KHTML, like Gecko) Chrome/107.0.0.0 Safari/537.36 Edg/107.0.1418.42","WebKit","Edge","107.0.1418.42","Windows","10.0","3509"," ","","A photographer is taking a photo of a lion","3","Filler","",""
"","","","","","fixation","21102","html-keyboard-response","45","133346","0.0-6.0-2.2","46","3","2022-11-17 12:19:20","fd252370c17a9971d68c1d4354a03c2e","","Mozilla/5.0 (Windows NT 10.0; Win64; x64) AppleWebKit/537.36 (KHTML, like Gecko) Chrome/107.0.0.0 Safari/537.36 Edg/107.0.1418.42","WebKit","Edge","107.0.1418.42","Windows","10.0","null","null","","<p style=""font-size: 48px;"">+</p>","3","Filler","",""
"","","","","","picture","21102","image-keyboard-response","46","134310","0.0-6.0-3.2","46","3","2022-11-17 12:19:20","fd252370c17a9971d68c1d4354a03c2e","","Mozilla/5.0 (Windows NT 10.0; Win64; x64) AppleWebKit/537.36 (KHTML, like Gecko) Chrome/107.0.0.0 Safari/537.36 Edg/107.0.1418.42","WebKit","Edge","107.0.1418.42","Windows","10.0","951","s","","lion.jpg","3","Filler","true",""
"","","","","","fixation","21102","html-keyboard-response","47","135331","0.0-6.0-0.3","46","3","2022-11-17 12:19:20","fd252370c17a9971d68c1d4354a03c2e","","Mozilla/5.0 (Windows NT 10.0; Win64; x64) AppleWebKit/537.36 (KHTML, like Gecko) Chrome/107.0.0.0 Safari/537.36 Edg/107.0.1418.42","WebKit","Edge","107.0.1418.42","Windows","10.0","null","null","","<p style=""font-size: 48px;"">+</p>","3","Filler","",""
"","","","","","sentence","21102","html-keyboard-response","48","137167","0.0-6.0-1.3","46","3","2022-11-17 12:19:20","fd252370c17a9971d68c1d4354a03c2e","","Mozilla/5.0 (Windows NT 10.0; Win64; x64) AppleWebKit/537.36 (KHTML, like Gecko) Chrome/107.0.0.0 Safari/537.36 Edg/107.0.1418.42","WebKit","Edge","107.0.1418.42","Windows","10.0","1825"," ","","A mouse is eating cheese","3","Filler","",""
"","","","","","fixation","21102","html-keyboard-response","49","137681","0.0-6.0-2.3","46","3","2022-11-17 12:19:20","fd252370c17a9971d68c1d4354a03c2e","","Mozilla/5.0 (Windows NT 10.0; Win64; x64) AppleWebKit/537.36 (KHTML, like Gecko) Chrome/107.0.0.0 Safari/537.36 Edg/107.0.1418.42","WebKit","Edge","107.0.1418.42","Windows","10.0","null","null","","<p style=""font-size: 48px;"">+</p>","3","Filler","",""
"","","","","","picture","21102","image-keyboard-response","50","138554","0.0-6.0-3.3","46","3","2022-11-17 12:19:20","fd252370c17a9971d68c1d4354a03c2e","","Mozilla/5.0 (Windows NT 10.0; Win64; x64) AppleWebKit/537.36 (KHTML, like Gecko) Chrome/107.0.0.0 Safari/537.36 Edg/107.0.1418.42","WebKit","Edge","107.0.1418.42","Windows","10.0","865","n","","ring.jpg","3","Filler","true",""
"","","","","","fixation","21102","html-keyboard-response","51","139565","0.0-6.0-0.4","46","3","2022-11-17 12:19:20","fd252370c17a9971d68c1d4354a03c2e","","Mozilla/5.0 (Windows NT 10.0; Win64; x64) AppleWebKit/537.36 (KHTML, like Gecko) Chrome/107.0.0.0 Safari/537.36 Edg/107.0.1418.42","WebKit","Edge","107.0.1418.42","Windows","10.0","null","null","","<p style=""font-size: 48px;"">+</p>","3","Filler","",""
"","","","","","sentence","21102","html-keyboard-response","52","141681","0.0-6.0-1.4","46","3","2022-11-17 12:19:20","fd252370c17a9971d68c1d4354a03c2e","","Mozilla/5.0 (Windows NT 10.0; Win64; x64) AppleWebKit/537.36 (KHTML, like Gecko) Chrome/107.0.0.0 Safari/537.36 Edg/107.0.1418.42","WebKit","Edge","107.0.1418.42","Windows","10.0","2095"," ","","A cushion was placed on the magazine","3","Filler","",""
"","","","","","fixation","21102","html-keyboard-response","53","142188","0.0-6.0-2.4","46","3","2022-11-17 12:19:20","fd252370c17a9971d68c1d4354a03c2e","","Mozilla/5.0 (Windows NT 10.0; Win64; x64) AppleWebKit/537.36 (KHTML, like Gecko) Chrome/107.0.0.0 Safari/537.36 Edg/107.0.1418.42","WebKit","Edge","107.0.1418.42","Windows","10.0","null","null","","<p style=""font-size: 48px;"">+</p>","3","Filler","",""
"","","","","","picture","21102","image-keyboard-response","54","143353","0.0-6.0-3.4","46","3","2022-11-17 12:19:20","fd252370c17a9971d68c1d4354a03c2e","","Mozilla/5.0 (Windows NT 10.0; Win64; x64) AppleWebKit/537.36 (KHTML, like Gecko) Chrome/107.0.0.0 Safari/537.36 Edg/107.0.1418.42","WebKit","Edge","107.0.1418.42","Windows","10.0","1154","n","","box.jpg","3","Filler","true",""
"","","","","","fixation","21102","html-keyboard-response","55","144369","0.0-6.0-0.5","46","3","2022-11-17 12:19:20","fd252370c17a9971d68c1d4354a03c2e","","Mozilla/5.0 (Windows NT 10.0; Win64; x64) AppleWebKit/537.36 (KHTML, like Gecko) Chrome/107.0.0.0 Safari/537.36 Edg/107.0.1418.42","WebKit","Edge","107.0.1418.42","Windows","10.0","null","null","","<p style=""font-size: 48px;"">+</p>","3","Filler","",""
"","","","","","sentence","21102","html-keyboard-response","56","147875","0.0-6.0-1.5","46","3","2022-11-17 12:19:20","fd252370c17a9971d68c1d4354a03c2e","","Mozilla/5.0 (Windows NT 10.0; Win64; x64) AppleWebKit/537.36 (KHTML, like Gecko) Chrome/107.0.0.0 Safari/537.36 Edg/107.0.1418.42","WebKit","Edge","107.0.1418.42","Windows","10.0","3491"," ","","A man is playing with a cat","3","Filler","",""
"","","","","","fixation","21102","html-keyboard-response","57","148397","0.0-6.0-2.5","46","3","2022-11-17 12:19:20","fd252370c17a9971d68c1d4354a03c2e","","Mozilla/5.0 (Windows NT 10.0; Win64; x64) AppleWebKit/537.36 (KHTML, like Gecko) Chrome/107.0.0.0 Safari/537.36 Edg/107.0.1418.42","WebKit","Edge","107.0.1418.42","Windows","10.0","null","null","","<p style=""font-size: 48px;"">+</p>","3","Filler","",""
"","","","","","picture","21102","image-keyboard-response","58","149335","0.0-6.0-3.5","46","3","2022-11-17 12:19:20","fd252370c17a9971d68c1d4354a03c2e","","Mozilla/5.0 (Windows NT 10.0; Win64; x64) AppleWebKit/537.36 (KHTML, like Gecko) Chrome/107.0.0.0 Safari/537.36 Edg/107.0.1418.42","WebKit","Edge","107.0.1418.42","Windows","10.0","929","n","","ceramicplate.jpg","3","Filler","true",""
"","","","","","fixation","21102","html-keyboard-response","59","150349","0.0-6.0-0.6","46","3","2022-11-17 12:19:20","fd252370c17a9971d68c1d4354a03c2e","","Mozilla/5.0 (Windows NT 10.0; Win64; x64) AppleWebKit/537.36 (KHTML, like Gecko) Chrome/107.0.0.0 Safari/537.36 Edg/107.0.1418.42","WebKit","Edge","107.0.1418.42","Windows","10.0","null","null","","<p style=""font-size: 48px;"">+</p>","3","Light_Contradictory","",""
"","","","","","sentence","21102","html-keyboard-response","60","153509","0.0-6.0-1.6","46","3","2022-11-17 12:19:20","fd252370c17a9971d68c1d4354a03c2e","","Mozilla/5.0 (Windows NT 10.0; Win64; x64) AppleWebKit/537.36 (KHTML, like Gecko) Chrome/107.0.0.0 Safari/537.36 Edg/107.0.1418.42","WebKit","Edge","107.0.1418.42","Windows","10.0","3151"," ","","A balloon dropped and smashed a chocolate ice-cream","3","Light_Contradictory","",""
"","","","","","fixation","21102","html-keyboard-response","61","154028","0.0-6.0-2.6","46","3","2022-11-17 12:19:20","fd252370c17a9971d68c1d4354a03c2e","","Mozilla/5.0 (Windows NT 10.0; Win64; x64) AppleWebKit/537.36 (KHTML, like Gecko) Chrome/107.0.0.0 Safari/537.36 Edg/107.0.1418.42","WebKit","Edge","107.0.1418.42","Windows","10.0","null","null","","<p style=""font-size: 48px;"">+</p>","3","Light_Contradictory","",""
"","","","","","picture","21102","image-keyboard-response","62","155135","0.0-6.0-3.6","46","3","2022-11-17 12:19:20","fd252370c17a9971d68c1d4354a03c2e","","Mozilla/5.0 (Windows NT 10.0; Win64; x64) AppleWebKit/537.36 (KHTML, like Gecko) Chrome/107.0.0.0 Safari/537.36 Edg/107.0.1418.42","WebKit","Edge","107.0.1418.42","Windows","10.0","1097","s","","icecreamS.jpg","3","Light_Contradictory","true",""
"","","","","","fixation","21102","html-keyboard-response","63","156153","0.0-6.0-0.7","46","3","2022-11-17 12:19:20","fd252370c17a9971d68c1d4354a03c2e","","Mozilla/5.0 (Windows NT 10.0; Win64; x64) AppleWebKit/537.36 (KHTML, like Gecko) Chrome/107.0.0.0 Safari/537.36 Edg/107.0.1418.42","WebKit","Edge","107.0.1418.42","Windows","10.0","null","null","","<p style=""font-size: 48px;"">+</p>","3","Filler","",""
"","","","","","sentence","21102","html-keyboard-response","64","157514","0.0-6.0-1.7","46","3","2022-11-17 12:19:20","fd252370c17a9971d68c1d4354a03c2e","","Mozilla/5.0 (Windows NT 10.0; Win64; x64) AppleWebKit/537.36 (KHTML, like Gecko) Chrome/107.0.0.0 Safari/537.36 Edg/107.0.1418.42","WebKit","Edge","107.0.1418.42","Windows","10.0","1346"," ","","A man is shaving his beard","3","Filler","",""
"","","","","","fixation","21102","html-keyboard-response","65","158024","0.0-6.0-2.7","46","3","2022-11-17 12:19:20","fd252370c17a9971d68c1d4354a03c2e","","Mozilla/5.0 (Windows NT 10.0; Win64; x64) AppleWebKit/537.36 (KHTML, like Gecko) Chrome/107.0.0.0 Safari/537.36 Edg/107.0.1418.42","WebKit","Edge","107.0.1418.42","Windows","10.0","null","null","","<p style=""font-size: 48px;"">+</p>","3","Filler","",""
"","","","","","picture","21102","image-keyboard-response","66","159478","0.0-6.0-3.7","46","3","2022-11-17 12:19:20","fd252370c17a9971d68c1d4354a03c2e","","Mozilla/5.0 (Windows NT 10.0; Win64; x64) AppleWebKit/537.36 (KHTML, like Gecko) Chrome/107.0.0.0 Safari/537.36 Edg/107.0.1418.42","WebKit","Edge","107.0.1418.42","Windows","10.0","1442","n","","clock.jpg","3","Filler","true",""
"","","","","","fixation","21102","html-keyboard-response","67","160503","0.0-6.0-0.8","46","3","2022-11-17 12:19:20","fd252370c17a9971d68c1d4354a03c2e","","Mozilla/5.0 (Windows NT 10.0; Win64; x64) AppleWebKit/537.36 (KHTML, like Gecko) Chrome/107.0.0.0 Safari/537.36 Edg/107.0.1418.42","WebKit","Edge","107.0.1418.42","Windows","10.0","null","null","","<p style=""font-size: 48px;"">+</p>","3","Heavy_Contradictory","",""
"","","","","","sentence","21102","html-keyboard-response","68","164700","0.0-6.0-1.8","46","3","2022-11-17 12:19:20","fd252370c17a9971d68c1d4354a03c2e","","Mozilla/5.0 (Windows NT 10.0; Win64; x64) AppleWebKit/537.36 (KHTML, like Gecko) Chrome/107.0.0.0 Safari/537.36 Edg/107.0.1418.42","WebKit","Edge","107.0.1418.42","Windows","10.0","4193"," ","","A bowling ball dropped and touched a ceramic plate","3","Heavy_Contradictory","",""
"","","","","","fixation","21102","html-keyboard-response","69","165214","0.0-6.0-2.8","46","3","2022-11-17 12:19:20","fd252370c17a9971d68c1d4354a03c2e","","Mozilla/5.0 (Windows NT 10.0; Win64; x64) AppleWebKit/537.36 (KHTML, like Gecko) Chrome/107.0.0.0 Safari/537.36 Edg/107.0.1418.42","WebKit","Edge","107.0.1418.42","Windows","10.0","null","null","","<p style=""font-size: 48px;"">+</p>","3","Heavy_Contradictory","",""
"","","","","","picture","21102","image-keyboard-response","70","166399","0.0-6.0-3.8","46","3","2022-11-17 12:19:20","fd252370c17a9971d68c1d4354a03c2e","","Mozilla/5.0 (Windows NT 10.0; Win64; x64) AppleWebKit/537.36 (KHTML, like Gecko) Chrome/107.0.0.0 Safari/537.36 Edg/107.0.1418.42","WebKit","Edge","107.0.1418.42","Windows","10.0","1175","s","","plateS.jpg","3","Heavy_Contradictory","true",""
"","","","","","fixation","21102","html-keyboard-response","71","167412","0.0-6.0-0.9","46","3","2022-11-17 12:19:20","fd252370c17a9971d68c1d4354a03c2e","","Mozilla/5.0 (Windows NT 10.0; Win64; x64) AppleWebKit/537.36 (KHTML, like Gecko) Chrome/107.0.0.0 Safari/537.36 Edg/107.0.1418.42","WebKit","Edge","107.0.1418.42","Windows","10.0","null","null","","<p style=""font-size: 48px;"">+</p>","3","Filler","",""
"","","","","","sentence","21102","html-keyboard-response","72","168483","0.0-6.0-1.9","46","3","2022-11-17 12:19:20","fd252370c17a9971d68c1d4354a03c2e","","Mozilla/5.0 (Windows NT 10.0; Win64; x64) AppleWebKit/537.36 (KHTML, like Gecko) Chrome/107.0.0.0 Safari/537.36 Edg/107.0.1418.42","WebKit","Edge","107.0.1418.42","Windows","10.0","1064"," ","","A horse is chewing hay","3","Filler","",""
"","","","","","fixation","21102","html-keyboard-response","73","169008","0.0-6.0-2.9","46","3","2022-11-17 12:19:20","fd252370c17a9971d68c1d4354a03c2e","","Mozilla/5.0 (Windows NT 10.0; Win64; x64) AppleWebKit/537.36 (KHTML, like Gecko) Chrome/107.0.0.0 Safari/537.36 Edg/107.0.1418.42","WebKit","Edge","107.0.1418.42","Windows","10.0","null","null","","<p style=""font-size: 48px;"">+</p>","3","Filler","",""
"","","","","","picture","21102","image-keyboard-response","74","169863","0.0-6.0-3.9","46","3","2022-11-17 12:19:20","fd252370c17a9971d68c1d4354a03c2e","","Mozilla/5.0 (Windows NT 10.0; Win64; x64) AppleWebKit/537.36 (KHTML, like Gecko) Chrome/107.0.0.0 Safari/537.36 Edg/107.0.1418.42","WebKit","Edge","107.0.1418.42","Windows","10.0","844","n","","purse.jpg","3","Filler","true",""
"","","","","","fixation","21102","html-keyboard-response","75","170878","0.0-6.0-0.10","46","3","2022-11-17 12:19:20","fd252370c17a9971d68c1d4354a03c2e","","Mozilla/5.0 (Windows NT 10.0; Win64; x64) AppleWebKit/537.36 (KHTML, like Gecko) Chrome/107.0.0.0 Safari/537.36 Edg/107.0.1418.42","WebKit","Edge","107.0.1418.42","Windows","10.0","null","null","","<p style=""font-size: 48px;"">+</p>","3","Heavy_Contradictory","",""
"","","","","","sentence","21102","html-keyboard-response","76","173257","0.0-6.0-1.10","46","3","2022-11-17 12:19:20","fd252370c17a9971d68c1d4354a03c2e","","Mozilla/5.0 (Windows NT 10.0; Win64; x64) AppleWebKit/537.36 (KHTML, like Gecko) Chrome/107.0.0.0 Safari/537.36 Edg/107.0.1418.42","WebKit","Edge","107.0.1418.42","Windows","10.0","2367"," ","","A bowling ball dropped and touched a tomato","3","Heavy_Contradictory","",""
"","","","","","fixation","21102","html-keyboard-response","77","173790","0.0-6.0-2.10","46","3","2022-11-17 12:19:20","fd252370c17a9971d68c1d4354a03c2e","","Mozilla/5.0 (Windows NT 10.0; Win64; x64) AppleWebKit/537.36 (KHTML, like Gecko) Chrome/107.0.0.0 Safari/537.36 Edg/107.0.1418.42","WebKit","Edge","107.0.1418.42","Windows","10.0","null","null","","<p style=""font-size: 48px;"">+</p>","3","Heavy_Contradictory","",""
"","","","","","picture","21102","image-keyboard-response","78","174918","0.0-6.0-3.10","46","3","2022-11-17 12:19:20","fd252370c17a9971d68c1d4354a03c2e","","Mozilla/5.0 (Windows NT 10.0; Win64; x64) AppleWebKit/537.36 (KHTML, like Gecko) Chrome/107.0.0.0 Safari/537.36 Edg/107.0.1418.42","WebKit","Edge","107.0.1418.42","Windows","10.0","1117","s","","tomatoS.jpg","3","Heavy_Contradictory","true",""
"","","","","","fixation","21102","html-keyboard-response","79","175951","0.0-6.0-0.11","46","3","2022-11-17 12:19:20","fd252370c17a9971d68c1d4354a03c2e","","Mozilla/5.0 (Windows NT 10.0; Win64; x64) AppleWebKit/537.36 (KHTML, like Gecko) Chrome/107.0.0.0 Safari/537.36 Edg/107.0.1418.42","WebKit","Edge","107.0.1418.42","Windows","10.0","null","null","","<p style=""font-size: 48px;"">+</p>","3","Heavy_Contradictory","",""
"","","","","","sentence","21102","html-keyboard-response","80","178113","0.0-6.0-1.11","46","3","2022-11-17 12:19:20","fd252370c17a9971d68c1d4354a03c2e","","Mozilla/5.0 (Windows NT 10.0; Win64; x64) AppleWebKit/537.36 (KHTML, like Gecko) Chrome/107.0.0.0 Safari/537.36 Edg/107.0.1418.42","WebKit","Edge","107.0.1418.42","Windows","10.0","2133"," ","","A bowling ball dropped and touched a vase","3","Heavy_Contradictory","",""
"","","","","","fixation","21102","html-keyboard-response","81","178632","0.0-6.0-2.11","46","3","2022-11-17 12:19:20","fd252370c17a9971d68c1d4354a03c2e","","Mozilla/5.0 (Windows NT 10.0; Win64; x64) AppleWebKit/537.36 (KHTML, like Gecko) Chrome/107.0.0.0 Safari/537.36 Edg/107.0.1418.42","WebKit","Edge","107.0.1418.42","Windows","10.0","null","null","","<p style=""font-size: 48px;"">+</p>","3","Heavy_Contradictory","",""
"","","","","","picture","21102","image-keyboard-response","82","180321","0.0-6.0-3.11","46","3","2022-11-17 12:19:20","fd252370c17a9971d68c1d4354a03c2e","","Mozilla/5.0 (Windows NT 10.0; Win64; x64) AppleWebKit/537.36 (KHTML, like Gecko) Chrome/107.0.0.0 Safari/537.36 Edg/107.0.1418.42","WebKit","Edge","107.0.1418.42","Windows","10.0","1668","s","","vaseS.jpg","3","Heavy_Contradictory","true",""
"","","","","","fixation","21102","html-keyboard-response","83","181336","0.0-6.0-0.12","46","3","2022-11-17 12:19:20","fd252370c17a9971d68c1d4354a03c2e","","Mozilla/5.0 (Windows NT 10.0; Win64; x64) AppleWebKit/537.36 (KHTML, like Gecko) Chrome/107.0.0.0 Safari/537.36 Edg/107.0.1418.42","WebKit","Edge","107.0.1418.42","Windows","10.0","null","null","","<p style=""font-size: 48px;"">+</p>","3","Filler","",""
"","","","","","sentence","21102","html-keyboard-response","84","183854","0.0-6.0-1.12","46","3","2022-11-17 12:19:20","fd252370c17a9971d68c1d4354a03c2e","","Mozilla/5.0 (Windows NT 10.0; Win64; x64) AppleWebKit/537.36 (KHTML, like Gecko) Chrome/107.0.0.0 Safari/537.36 Edg/107.0.1418.42","WebKit","Edge","107.0.1418.42","Windows","10.0","2499"," ","","A keyboard was placed on the bed","3","Filler","",""
"","","","","","fixation","21102","html-keyboard-response","85","184374","0.0-6.0-2.12","46","3","2022-11-17 12:19:20","fd252370c17a9971d68c1d4354a03c2e","","Mozilla/5.0 (Windows NT 10.0; Win64; x64) AppleWebKit/537.36 (KHTML, like Gecko) Chrome/107.0.0.0 Safari/537.36 Edg/107.0.1418.42","WebKit","Edge","107.0.1418.42","Windows","10.0","null","null","","<p style=""font-size: 48px;"">+</p>","3","Filler","",""
"","","","","","picture","21102","image-keyboard-response","86","185668","0.0-6.0-3.12","46","3","2022-11-17 12:19:20","fd252370c17a9971d68c1d4354a03c2e","","Mozilla/5.0 (Windows NT 10.0; Win64; x64) AppleWebKit/537.36 (KHTML, like Gecko) Chrome/107.0.0.0 Safari/537.36 Edg/107.0.1418.42","WebKit","Edge","107.0.1418.42","Windows","10.0","1264","n","","bottlecap.jpg","3","Filler","true",""
"","","","","","fixation","21102","html-keyboard-response","87","186696","0.0-6.0-0.13","46","3","2022-11-17 12:19:20","fd252370c17a9971d68c1d4354a03c2e","","Mozilla/5.0 (Windows NT 10.0; Win64; x64) AppleWebKit/537.36 (KHTML, like Gecko) Chrome/107.0.0.0 Safari/537.36 Edg/107.0.1418.42","WebKit","Edge","107.0.1418.42","Windows","10.0","null","null","","<p style=""font-size: 48px;"">+</p>","3","Light_Matched","",""
"","","","","","sentence","21102","html-keyboard-response","88","191718","0.0-6.0-1.13","46","3","2022-11-17 12:19:20","fd252370c17a9971d68c1d4354a03c2e","","Mozilla/5.0 (Windows NT 10.0; Win64; x64) AppleWebKit/537.36 (KHTML, like Gecko) Chrome/107.0.0.0 Safari/537.36 Edg/107.0.1418.42","WebKit","Edge","107.0.1418.42","Windows","10.0","5014"," ","","A balloon dropped and touched a porcelain figure","3","Light_Matched","",""
"","","","","","fixation","21102","html-keyboard-response","89","192256","0.0-6.0-2.13","46","3","2022-11-17 12:19:20","fd252370c17a9971d68c1d4354a03c2e","","Mozilla/5.0 (Windows NT 10.0; Win64; x64) AppleWebKit/537.36 (KHTML, like Gecko) Chrome/107.0.0.0 Safari/537.36 Edg/107.0.1418.42","WebKit","Edge","107.0.1418.42","Windows","10.0","null","null","","<p style=""font-size: 48px;"">+</p>","3","Light_Matched","",""
"","","","","","picture","21102","image-keyboard-response","90","195074","0.0-6.0-3.13","46","3","2022-11-17 12:19:20","fd252370c17a9971d68c1d4354a03c2e","","Mozilla/5.0 (Windows NT 10.0; Win64; x64) AppleWebKit/537.36 (KHTML, like Gecko) Chrome/107.0.0.0 Safari/537.36 Edg/107.0.1418.42","WebKit","Edge","107.0.1418.42","Windows","10.0","2780","s","","figureS.jpg","3","Light_Matched","true",""
"","","","","","fixation","21102","html-keyboard-response","91","196117","0.0-6.0-0.14","46","3","2022-11-17 12:19:20","fd252370c17a9971d68c1d4354a03c2e","","Mozilla/5.0 (Windows NT 10.0; Win64; x64) AppleWebKit/537.36 (KHTML, like Gecko) Chrome/107.0.0.0 Safari/537.36 Edg/107.0.1418.42","WebKit","Edge","107.0.1418.42","Windows","10.0","null","null","","<p style=""font-size: 48px;"">+</p>","3","Filler","",""
"","","","","","sentence","21102","html-keyboard-response","92","199346","0.0-6.0-1.14","46","3","2022-11-17 12:19:20","fd252370c17a9971d68c1d4354a03c2e","","Mozilla/5.0 (Windows NT 10.0; Win64; x64) AppleWebKit/537.36 (KHTML, like Gecko) Chrome/107.0.0.0 Safari/537.36 Edg/107.0.1418.42","WebKit","Edge","107.0.1418.42","Windows","10.0","3198"," ","","An elephant is eating a watermelon","3","Filler","",""
"","","","","","fixation","21102","html-keyboard-response","93","199879","0.0-6.0-2.14","46","3","2022-11-17 12:19:20","fd252370c17a9971d68c1d4354a03c2e","","Mozilla/5.0 (Windows NT 10.0; Win64; x64) AppleWebKit/537.36 (KHTML, like Gecko) Chrome/107.0.0.0 Safari/537.36 Edg/107.0.1418.42","WebKit","Edge","107.0.1418.42","Windows","10.0","null","null","","<p style=""font-size: 48px;"">+</p>","3","Filler","",""
"","","","","","picture","21102","image-keyboard-response","94","201151","0.0-6.0-3.14","46","3","2022-11-17 12:19:20","fd252370c17a9971d68c1d4354a03c2e","","Mozilla/5.0 (Windows NT 10.0; Win64; x64) AppleWebKit/537.36 (KHTML, like Gecko) Chrome/107.0.0.0 Safari/537.36 Edg/107.0.1418.42","WebKit","Edge","107.0.1418.42","Windows","10.0","1261","s","","watermelon.jpg","3","Filler","true",""
"","","","","","fixation","21102","html-keyboard-response","95","202340","0.0-6.0-0.15","46","3","2022-11-17 12:19:20","fd252370c17a9971d68c1d4354a03c2e","","Mozilla/5.0 (Windows NT 10.0; Win64; x64) AppleWebKit/537.36 (KHTML, like Gecko) Chrome/107.0.0.0 Safari/537.36 Edg/107.0.1418.42","WebKit","Edge","107.0.1418.42","Windows","10.0","null","null","","<p style=""font-size: 48px;"">+</p>","3","Filler","",""
"","","","","","sentence","21102","html-keyboard-response","96","204310","0.0-6.0-1.15","46","3","2022-11-17 12:19:20","fd252370c17a9971d68c1d4354a03c2e","","Mozilla/5.0 (Windows NT 10.0; Win64; x64) AppleWebKit/537.36 (KHTML, like Gecko) Chrome/107.0.0.0 Safari/537.36 Edg/107.0.1418.42","WebKit","Edge","107.0.1418.42","Windows","10.0","1935"," ","","A parrot is eating an apple","3","Filler","",""
"","","","","","fixation","21102","html-keyboard-response","97","204836","0.0-6.0-2.15","46","3","2022-11-17 12:19:20","fd252370c17a9971d68c1d4354a03c2e","","Mozilla/5.0 (Windows NT 10.0; Win64; x64) AppleWebKit/537.36 (KHTML, like Gecko) Chrome/107.0.0.0 Safari/537.36 Edg/107.0.1418.42","WebKit","Edge","107.0.1418.42","Windows","10.0","null","null","","<p style=""font-size: 48px;"">+</p>","3","Filler","",""
"","","","","","picture","21102","image-keyboard-response","98","205525","0.0-6.0-3.15","46","3","2022-11-17 12:19:20","fd252370c17a9971d68c1d4354a03c2e","","Mozilla/5.0 (Windows NT 10.0; Win64; x64) AppleWebKit/537.36 (KHTML, like Gecko) Chrome/107.0.0.0 Safari/537.36 Edg/107.0.1418.42","WebKit","Edge","107.0.1418.42","Windows","10.0","675","n","","shirt.jpg","3","Filler","true",""
"","","","","","fixation","21102","html-keyboard-response","99","206542","0.0-6.0-0.16","46","3","2022-11-17 12:19:20","fd252370c17a9971d68c1d4354a03c2e","","Mozilla/5.0 (Windows NT 10.0; Win64; x64) AppleWebKit/537.36 (KHTML, like Gecko) Chrome/107.0.0.0 Safari/537.36 Edg/107.0.1418.42","WebKit","Edge","107.0.1418.42","Windows","10.0","null","null","","<p style=""font-size: 48px;"">+</p>","3","Filler","",""
"","","","","","sentence","21102","html-keyboard-response","100","209285","0.0-6.0-1.16","46","3","2022-11-17 12:19:20","fd252370c17a9971d68c1d4354a03c2e","","Mozilla/5.0 (Windows NT 10.0; Win64; x64) AppleWebKit/537.36 (KHTML, like Gecko) Chrome/107.0.0.0 Safari/537.36 Edg/107.0.1418.42","WebKit","Edge","107.0.1418.42","Windows","10.0","2730"," ","","A towel was placed on the TV","3","Filler","",""
"","","","","","fixation","21102","html-keyboard-response","101","209802","0.0-6.0-2.16","46","3","2022-11-17 12:19:20","fd252370c17a9971d68c1d4354a03c2e","","Mozilla/5.0 (Windows NT 10.0; Win64; x64) AppleWebKit/537.36 (KHTML, like Gecko) Chrome/107.0.0.0 Safari/537.36 Edg/107.0.1418.42","WebKit","Edge","107.0.1418.42","Windows","10.0","null","null","","<p style=""font-size: 48px;"">+</p>","3","Filler","",""
"","","","","","picture","21102","image-keyboard-response","102","212853","0.0-6.0-3.16","46","3","2022-11-17 12:19:20","fd252370c17a9971d68c1d4354a03c2e","","Mozilla/5.0 (Windows NT 10.0; Win64; x64) AppleWebKit/537.36 (KHTML, like Gecko) Chrome/107.0.0.0 Safari/537.36 Edg/107.0.1418.42","WebKit","Edge","107.0.1418.42","Windows","10.0","3035","n","","pencil.jpg","3","Filler","true",""
"","","","","","fixation","21102","html-keyboard-response","103","213874","0.0-6.0-0.17","46","3","2022-11-17 12:19:20","fd252370c17a9971d68c1d4354a03c2e","","Mozilla/5.0 (Windows NT 10.0; Win64; x64) AppleWebKit/537.36 (KHTML, like Gecko) Chrome/107.0.0.0 Safari/537.36 Edg/107.0.1418.42","WebKit","Edge","107.0.1418.42","Windows","10.0","null","null","","<p style=""font-size: 48px;"">+</p>","3","Heavy_Matched","",""
"","","","","","sentence","21102","html-keyboard-response","104","217693","0.0-6.0-1.17","46","3","2022-11-17 12:19:20","fd252370c17a9971d68c1d4354a03c2e","","Mozilla/5.0 (Windows NT 10.0; Win64; x64) AppleWebKit/537.36 (KHTML, like Gecko) Chrome/107.0.0.0 Safari/537.36 Edg/107.0.1418.42","WebKit","Edge","107.0.1418.42","Windows","10.0","3806"," ","","A bowling ball dropped and smashed a donut","3","Heavy_Matched","",""
"","","","","","fixation","21102","html-keyboard-response","105","218214","0.0-6.0-2.17","46","3","2022-11-17 12:19:20","fd252370c17a9971d68c1d4354a03c2e","","Mozilla/5.0 (Windows NT 10.0; Win64; x64) AppleWebKit/537.36 (KHTML, like Gecko) Chrome/107.0.0.0 Safari/537.36 Edg/107.0.1418.42","WebKit","Edge","107.0.1418.42","Windows","10.0","null","null","","<p style=""font-size: 48px;"">+</p>","3","Heavy_Matched","",""
"","","","","","picture","21102","image-keyboard-response","106","219417","0.0-6.0-3.17","46","3","2022-11-17 12:19:20","fd252370c17a9971d68c1d4354a03c2e","","Mozilla/5.0 (Windows NT 10.0; Win64; x64) AppleWebKit/537.36 (KHTML, like Gecko) Chrome/107.0.0.0 Safari/537.36 Edg/107.0.1418.42","WebKit","Edge","107.0.1418.42","Windows","10.0","1184","s","","donutS.jpg","3","Heavy_Matched","true",""
"","","","","","fixation","21102","html-keyboard-response","107","220437","0.0-6.0-0.18","46","3","2022-11-17 12:19:20","fd252370c17a9971d68c1d4354a03c2e","","Mozilla/5.0 (Windows NT 10.0; Win64; x64) AppleWebKit/537.36 (KHTML, like Gecko) Chrome/107.0.0.0 Safari/537.36 Edg/107.0.1418.42","WebKit","Edge","107.0.1418.42","Windows","10.0","null","null","","<p style=""font-size: 48px;"">+</p>","3","Heavy_Matched","",""
"","","","","","sentence","21102","html-keyboard-response","108","223601","0.0-6.0-1.18","46","3","2022-11-17 12:19:20","fd252370c17a9971d68c1d4354a03c2e","","Mozilla/5.0 (Windows NT 10.0; Win64; x64) AppleWebKit/537.36 (KHTML, like Gecko) Chrome/107.0.0.0 Safari/537.36 Edg/107.0.1418.42","WebKit","Edge","107.0.1418.42","Windows","10.0","3122"," ","","A bowling ball dropped and smashed a chocolate muffin","3","Heavy_Matched","",""
"","","","","","fixation","21102","html-keyboard-response","109","224118","0.0-6.0-2.18","46","3","2022-11-17 12:19:20","fd252370c17a9971d68c1d4354a03c2e","","Mozilla/5.0 (Windows NT 10.0; Win64; x64) AppleWebKit/537.36 (KHTML, like Gecko) Chrome/107.0.0.0 Safari/537.36 Edg/107.0.1418.42","WebKit","Edge","107.0.1418.42","Windows","10.0","null","null","","<p style=""font-size: 48px;"">+</p>","3","Heavy_Matched","",""
"","","","","","picture","21102","image-keyboard-response","110","225016","0.0-6.0-3.18","46","3","2022-11-17 12:19:20","fd252370c17a9971d68c1d4354a03c2e","","Mozilla/5.0 (Windows NT 10.0; Win64; x64) AppleWebKit/537.36 (KHTML, like Gecko) Chrome/107.0.0.0 Safari/537.36 Edg/107.0.1418.42","WebKit","Edge","107.0.1418.42","Windows","10.0","885","s","","muffinS.jpg","3","Heavy_Matched","true",""
"","","","","","fixation","21102","html-keyboard-response","111","226037","0.0-6.0-0.19","46","3","2022-11-17 12:19:20","fd252370c17a9971d68c1d4354a03c2e","","Mozilla/5.0 (Windows NT 10.0; Win64; x64) AppleWebKit/537.36 (KHTML, like Gecko) Chrome/107.0.0.0 Safari/537.36 Edg/107.0.1418.42","WebKit","Edge","107.0.1418.42","Windows","10.0","null","null","","<p style=""font-size: 48px;"">+</p>","3","Heavy_Contradictory","",""
"","","","","","sentence","21102","html-keyboard-response","112","228741","0.0-6.0-1.19","46","3","2022-11-17 12:19:20","fd252370c17a9971d68c1d4354a03c2e","","Mozilla/5.0 (Windows NT 10.0; Win64; x64) AppleWebKit/537.36 (KHTML, like Gecko) Chrome/107.0.0.0 Safari/537.36 Edg/107.0.1418.42","WebKit","Edge","107.0.1418.42","Windows","10.0","2668"," ","","A bowling ball dropped and touched a tile","3","Heavy_Contradictory","",""
"","","","","","fixation","21102","html-keyboard-response","113","229265","0.0-6.0-2.19","46","3","2022-11-17 12:19:20","fd252370c17a9971d68c1d4354a03c2e","","Mozilla/5.0 (Windows NT 10.0; Win64; x64) AppleWebKit/537.36 (KHTML, like Gecko) Chrome/107.0.0.0 Safari/537.36 Edg/107.0.1418.42","WebKit","Edge","107.0.1418.42","Windows","10.0","null","null","","<p style=""font-size: 48px;"">+</p>","3","Heavy_Contradictory","",""
"","","","","","picture","21102","image-keyboard-response","114","230253","0.0-6.0-3.19","46","3","2022-11-17 12:19:20","fd252370c17a9971d68c1d4354a03c2e","","Mozilla/5.0 (Windows NT 10.0; Win64; x64) AppleWebKit/537.36 (KHTML, like Gecko) Chrome/107.0.0.0 Safari/537.36 Edg/107.0.1418.42","WebKit","Edge","107.0.1418.42","Windows","10.0","974","s","","tileS.jpg","3","Heavy_Contradictory","true",""
"","","","","","fixation","21102","html-keyboard-response","115","231268","0.0-6.0-0.20","46","3","2022-11-17 12:19:20","fd252370c17a9971d68c1d4354a03c2e","","Mozilla/5.0 (Windows NT 10.0; Win64; x64) AppleWebKit/537.36 (KHTML, like Gecko) Chrome/107.0.0.0 Safari/537.36 Edg/107.0.1418.42","WebKit","Edge","107.0.1418.42","Windows","10.0","null","null","","<p style=""font-size: 48px;"">+</p>","3","Filler","",""
"","","","","","sentence","21102","html-keyboard-response","116","232955","0.0-6.0-1.20","46","3","2022-11-17 12:19:20","fd252370c17a9971d68c1d4354a03c2e","","Mozilla/5.0 (Windows NT 10.0; Win64; x64) AppleWebKit/537.36 (KHTML, like Gecko) Chrome/107.0.0.0 Safari/537.36 Edg/107.0.1418.42","WebKit","Edge","107.0.1418.42","Windows","10.0","1659"," ","","An owl is sitting on the branch","3","Filler","",""
"","","","","","fixation","21102","html-keyboard-response","117","233485","0.0-6.0-2.20","46","3","2022-11-17 12:19:20","fd252370c17a9971d68c1d4354a03c2e","","Mozilla/5.0 (Windows NT 10.0; Win64; x64) AppleWebKit/537.36 (KHTML, like Gecko) Chrome/107.0.0.0 Safari/537.36 Edg/107.0.1418.42","WebKit","Edge","107.0.1418.42","Windows","10.0","null","null","","<p style=""font-size: 48px;"">+</p>","3","Filler","",""
"","","","","","picture","21102","image-keyboard-response","118","234224","0.0-6.0-3.20","46","3","2022-11-17 12:19:20","fd252370c17a9971d68c1d4354a03c2e","","Mozilla/5.0 (Windows NT 10.0; Win64; x64) AppleWebKit/537.36 (KHTML, like Gecko) Chrome/107.0.0.0 Safari/537.36 Edg/107.0.1418.42","WebKit","Edge","107.0.1418.42","Windows","10.0","726","n","","rubberduck.jpg","3","Filler","true",""
"","","","","","fixation","21102","html-keyboard-response","119","235259","0.0-6.0-0.21","46","3","2022-11-17 12:19:20","fd252370c17a9971d68c1d4354a03c2e","","Mozilla/5.0 (Windows NT 10.0; Win64; x64) AppleWebKit/537.36 (KHTML, like Gecko) Chrome/107.0.0.0 Safari/537.36 Edg/107.0.1418.42","WebKit","Edge","107.0.1418.42","Windows","10.0","null","null","","<p style=""font-size: 48px;"">+</p>","3","Filler","",""
"","","","","","sentence","21102","html-keyboard-response","120","237543","0.0-6.0-1.21","46","3","2022-11-17 12:19:20","fd252370c17a9971d68c1d4354a03c2e","","Mozilla/5.0 (Windows NT 10.0; Win64; x64) AppleWebKit/537.36 (KHTML, like Gecko) Chrome/107.0.0.0 Safari/537.36 Edg/107.0.1418.42","WebKit","Edge","107.0.1418.42","Windows","10.0","2252"," ","","A hairdresser is taking scissors","3","Filler","",""
"","","","","","fixation","21102","html-keyboard-response","121","238060","0.0-6.0-2.21","46","3","2022-11-17 12:19:20","fd252370c17a9971d68c1d4354a03c2e","","Mozilla/5.0 (Windows NT 10.0; Win64; x64) AppleWebKit/537.36 (KHTML, like Gecko) Chrome/107.0.0.0 Safari/537.36 Edg/107.0.1418.42","WebKit","Edge","107.0.1418.42","Windows","10.0","null","null","","<p style=""font-size: 48px;"">+</p>","3","Filler","",""
"","","","","","picture","21102","image-keyboard-response","122","238797","0.0-6.0-3.21","46","3","2022-11-17 12:19:20","fd252370c17a9971d68c1d4354a03c2e","","Mozilla/5.0 (Windows NT 10.0; Win64; x64) AppleWebKit/537.36 (KHTML, like Gecko) Chrome/107.0.0.0 Safari/537.36 Edg/107.0.1418.42","WebKit","Edge","107.0.1418.42","Windows","10.0","720","n","","sock.jpg","3","Filler","true",""
"","","","","","fixation","21102","html-keyboard-response","123","239820","0.0-6.0-0.22","46","3","2022-11-17 12:19:20","fd252370c17a9971d68c1d4354a03c2e","","Mozilla/5.0 (Windows NT 10.0; Win64; x64) AppleWebKit/537.36 (KHTML, like Gecko) Chrome/107.0.0.0 Safari/537.36 Edg/107.0.1418.42","WebKit","Edge","107.0.1418.42","Windows","10.0","null","null","","<p style=""font-size: 48px;"">+</p>","3","Filler","",""
"","","","","","sentence","21102","html-keyboard-response","124","241354","0.0-6.0-1.22","46","3","2022-11-17 12:19:20","fd252370c17a9971d68c1d4354a03c2e","","Mozilla/5.0 (Windows NT 10.0; Win64; x64) AppleWebKit/537.36 (KHTML, like Gecko) Chrome/107.0.0.0 Safari/537.36 Edg/107.0.1418.42","WebKit","Edge","107.0.1418.42","Windows","10.0","1521"," ","","A student is writing on a board","3","Filler","",""
"","","","","","fixation","21102","html-keyboard-response","125","241865","0.0-6.0-2.22","46","3","2022-11-17 12:19:20","fd252370c17a9971d68c1d4354a03c2e","","Mozilla/5.0 (Windows NT 10.0; Win64; x64) AppleWebKit/537.36 (KHTML, like Gecko) Chrome/107.0.0.0 Safari/537.36 Edg/107.0.1418.42","WebKit","Edge","107.0.1418.42","Windows","10.0","null","null","","<p style=""font-size: 48px;"">+</p>","3","Filler","",""
"","","","","","picture","21102","image-keyboard-response","126","242693","0.0-6.0-3.22","46","3","2022-11-17 12:19:20","fd252370c17a9971d68c1d4354a03c2e","","Mozilla/5.0 (Windows NT 10.0; Win64; x64) AppleWebKit/537.36 (KHTML, like Gecko) Chrome/107.0.0.0 Safari/537.36 Edg/107.0.1418.42","WebKit","Edge","107.0.1418.42","Windows","10.0","805","n","","owl.jpg","3","Filler","true",""
"","","","","","fixation","21102","html-keyboard-response","127","243712","0.0-6.0-0.23","46","3","2022-11-17 12:19:20","fd252370c17a9971d68c1d4354a03c2e","","Mozilla/5.0 (Windows NT 10.0; Win64; x64) AppleWebKit/537.36 (KHTML, like Gecko) Chrome/107.0.0.0 Safari/537.36 Edg/107.0.1418.42","WebKit","Edge","107.0.1418.42","Windows","10.0","null","null","","<p style=""font-size: 48px;"">+</p>","3","Heavy_Matched","",""
"","","","","","sentence","21102","html-keyboard-response","128","246757","0.0-6.0-1.23","46","3","2022-11-17 12:19:20","fd252370c17a9971d68c1d4354a03c2e","","Mozilla/5.0 (Windows NT 10.0; Win64; x64) AppleWebKit/537.36 (KHTML, like Gecko) Chrome/107.0.0.0 Safari/537.36 Edg/107.0.1418.42","WebKit","Edge","107.0.1418.42","Windows","10.0","3032"," ","","A bowling ball dropped and smashed a mirror","3","Heavy_Matched","",""
"","","","","","fixation","21102","html-keyboard-response","129","247286","0.0-6.0-2.23","46","3","2022-11-17 12:19:20","fd252370c17a9971d68c1d4354a03c2e","","Mozilla/5.0 (Windows NT 10.0; Win64; x64) AppleWebKit/537.36 (KHTML, like Gecko) Chrome/107.0.0.0 Safari/537.36 Edg/107.0.1418.42","WebKit","Edge","107.0.1418.42","Windows","10.0","null","null","","<p style=""font-size: 48px;"">+</p>","3","Heavy_Matched","",""
"","","","","","picture","21102","image-keyboard-response","130","248575","0.0-6.0-3.23","46","3","2022-11-17 12:19:20","fd252370c17a9971d68c1d4354a03c2e","","Mozilla/5.0 (Windows NT 10.0; Win64; x64) AppleWebKit/537.36 (KHTML, like Gecko) Chrome/107.0.0.0 Safari/537.36 Edg/107.0.1418.42","WebKit","Edge","107.0.1418.42","Windows","10.0","1276","s","","mirrorS.jpg","3","Heavy_Matched","true",""
"","","","","","fixation","21102","html-keyboard-response","131","249603","0.0-6.0-0.24","46","3","2022-11-17 12:19:20","fd252370c17a9971d68c1d4354a03c2e","","Mozilla/5.0 (Windows NT 10.0; Win64; x64) AppleWebKit/537.36 (KHTML, like Gecko) Chrome/107.0.0.0 Safari/537.36 Edg/107.0.1418.42","WebKit","Edge","107.0.1418.42","Windows","10.0","null","null","","<p style=""font-size: 48px;"">+</p>","3","Light_Contradictory","",""
"","","","","","sentence","21102","html-keyboard-response","132","251505","0.0-6.0-1.24","46","3","2022-11-17 12:19:20","fd252370c17a9971d68c1d4354a03c2e","","Mozilla/5.0 (Windows NT 10.0; Win64; x64) AppleWebKit/537.36 (KHTML, like Gecko) Chrome/107.0.0.0 Safari/537.36 Edg/107.0.1418.42","WebKit","Edge","107.0.1418.42","Windows","10.0","1891"," ","","A balloon dropped and smashed an iPAD","3","Light_Contradictory","",""
"","","","","","fixation","21102","html-keyboard-response","133","252021","0.0-6.0-2.24","46","3","2022-11-17 12:19:20","fd252370c17a9971d68c1d4354a03c2e","","Mozilla/5.0 (Windows NT 10.0; Win64; x64) AppleWebKit/537.36 (KHTML, like Gecko) Chrome/107.0.0.0 Safari/537.36 Edg/107.0.1418.42","WebKit","Edge","107.0.1418.42","Windows","10.0","null","null","","<p style=""font-size: 48px;"">+</p>","3","Light_Contradictory","",""
"","","","","","picture","21102","image-keyboard-response","134","252885","0.0-6.0-3.24","46","3","2022-11-17 12:19:20","fd252370c17a9971d68c1d4354a03c2e","","Mozilla/5.0 (Windows NT 10.0; Win64; x64) AppleWebKit/537.36 (KHTML, like Gecko) Chrome/107.0.0.0 Safari/537.36 Edg/107.0.1418.42","WebKit","Edge","107.0.1418.42","Windows","10.0","824","s","","iPadS.jpg","3","Light_Contradictory","true",""
"","","","","","fixation","21102","html-keyboard-response","135","253906","0.0-6.0-0.25","46","3","2022-11-17 12:19:20","fd252370c17a9971d68c1d4354a03c2e","","Mozilla/5.0 (Windows NT 10.0; Win64; x64) AppleWebKit/537.36 (KHTML, like Gecko) Chrome/107.0.0.0 Safari/537.36 Edg/107.0.1418.42","WebKit","Edge","107.0.1418.42","Windows","10.0","null","null","","<p style=""font-size: 48px;"">+</p>","3","Filler","",""
"","","","","","sentence","21102","html-keyboard-response","136","256617","0.0-6.0-1.25","46","3","2022-11-17 12:19:20","fd252370c17a9971d68c1d4354a03c2e","","Mozilla/5.0 (Windows NT 10.0; Win64; x64) AppleWebKit/537.36 (KHTML, like Gecko) Chrome/107.0.0.0 Safari/537.36 Edg/107.0.1418.42","WebKit","Edge","107.0.1418.42","Windows","10.0","2698"," ","","A pencil was placed on the shoe","3","Filler","",""
"","","","","","fixation","21102","html-keyboard-response","137","257143","0.0-6.0-2.25","46","3","2022-11-17 12:19:20","fd252370c17a9971d68c1d4354a03c2e","","Mozilla/5.0 (Windows NT 10.0; Win64; x64) AppleWebKit/537.36 (KHTML, like Gecko) Chrome/107.0.0.0 Safari/537.36 Edg/107.0.1418.42","WebKit","Edge","107.0.1418.42","Windows","10.0","null","null","","<p style=""font-size: 48px;"">+</p>","3","Filler","",""
"","","","","","picture","21102","image-keyboard-response","138","258005","0.0-6.0-3.25","46","3","2022-11-17 12:19:20","fd252370c17a9971d68c1d4354a03c2e","","Mozilla/5.0 (Windows NT 10.0; Win64; x64) AppleWebKit/537.36 (KHTML, like Gecko) Chrome/107.0.0.0 Safari/537.36 Edg/107.0.1418.42","WebKit","Edge","107.0.1418.42","Windows","10.0","847","n","","perfume.jpg","3","Filler","true",""
"","","","","","fixation","21102","html-keyboard-response","139","259040","0.0-6.0-0.26","46","3","2022-11-17 12:19:20","fd252370c17a9971d68c1d4354a03c2e","","Mozilla/5.0 (Windows NT 10.0; Win64; x64) AppleWebKit/537.36 (KHTML, like Gecko) Chrome/107.0.0.0 Safari/537.36 Edg/107.0.1418.42","WebKit","Edge","107.0.1418.42","Windows","10.0","null","null","","<p style=""font-size: 48px;"">+</p>","3","Light_Contradictory","",""
"","","","","","sentence","21102","html-keyboard-response","140","260904","0.0-6.0-1.26","46","3","2022-11-17 12:19:20","fd252370c17a9971d68c1d4354a03c2e","","Mozilla/5.0 (Windows NT 10.0; Win64; x64) AppleWebKit/537.36 (KHTML, like Gecko) Chrome/107.0.0.0 Safari/537.36 Edg/107.0.1418.42","WebKit","Edge","107.0.1418.42","Windows","10.0","1828"," ","","A balloon dropped and smashed an egg flan","3","Light_Contradictory","",""
"","","","","","fixation","21102","html-keyboard-response","141","261456","0.0-6.0-2.26","46","3","2022-11-17 12:19:20","fd252370c17a9971d68c1d4354a03c2e","","Mozilla/5.0 (Windows NT 10.0; Win64; x64) AppleWebKit/537.36 (KHTML, like Gecko) Chrome/107.0.0.0 Safari/537.36 Edg/107.0.1418.42","WebKit","Edge","107.0.1418.42","Windows","10.0","null","null","","<p style=""font-size: 48px;"">+</p>","3","Light_Contradictory","",""
"","","","","","picture","21102","image-keyboard-response","142","263566","0.0-6.0-3.26","46","3","2022-11-17 12:19:20","fd252370c17a9971d68c1d4354a03c2e","","Mozilla/5.0 (Windows NT 10.0; Win64; x64) AppleWebKit/537.36 (KHTML, like Gecko) Chrome/107.0.0.0 Safari/537.36 Edg/107.0.1418.42","WebKit","Edge","107.0.1418.42","Windows","10.0","2089","n","","eggflanS.jpg","3","Light_Contradictory","false",""
"","","","","","fixation","21102","html-keyboard-response","143","264595","0.0-6.0-0.27","46","3","2022-11-17 12:19:20","fd252370c17a9971d68c1d4354a03c2e","","Mozilla/5.0 (Windows NT 10.0; Win64; x64) AppleWebKit/537.36 (KHTML, like Gecko) Chrome/107.0.0.0 Safari/537.36 Edg/107.0.1418.42","WebKit","Edge","107.0.1418.42","Windows","10.0","null","null","","<p style=""font-size: 48px;"">+</p>","3","Filler","",""
"","","","","","sentence","21102","html-keyboard-response","144","266079","0.0-6.0-1.27","46","3","2022-11-17 12:19:20","fd252370c17a9971d68c1d4354a03c2e","","Mozilla/5.0 (Windows NT 10.0; Win64; x64) AppleWebKit/537.36 (KHTML, like Gecko) Chrome/107.0.0.0 Safari/537.36 Edg/107.0.1418.42","WebKit","Edge","107.0.1418.42","Windows","10.0","1448"," ","","A ring was placed on the newspaper","3","Filler","",""
"","","","","","fixation","21102","html-keyboard-response","145","266610","0.0-6.0-2.27","46","3","2022-11-17 12:19:20","fd252370c17a9971d68c1d4354a03c2e","","Mozilla/5.0 (Windows NT 10.0; Win64; x64) AppleWebKit/537.36 (KHTML, like Gecko) Chrome/107.0.0.0 Safari/537.36 Edg/107.0.1418.42","WebKit","Edge","107.0.1418.42","Windows","10.0","null","null","","<p style=""font-size: 48px;"">+</p>","3","Filler","",""
"","","","","","picture","21102","image-keyboard-response","146","267538","0.0-6.0-3.27","46","3","2022-11-17 12:19:20","fd252370c17a9971d68c1d4354a03c2e","","Mozilla/5.0 (Windows NT 10.0; Win64; x64) AppleWebKit/537.36 (KHTML, like Gecko) Chrome/107.0.0.0 Safari/537.36 Edg/107.0.1418.42","WebKit","Edge","107.0.1418.42","Windows","10.0","895","n","","cat.jpg","3","Filler","true",""
"","","","","","fixation","21102","html-keyboard-response","147","268558","0.0-6.0-0.28","46","3","2022-11-17 12:19:20","fd252370c17a9971d68c1d4354a03c2e","","Mozilla/5.0 (Windows NT 10.0; Win64; x64) AppleWebKit/537.36 (KHTML, like Gecko) Chrome/107.0.0.0 Safari/537.36 Edg/107.0.1418.42","WebKit","Edge","107.0.1418.42","Windows","10.0","null","null","","<p style=""font-size: 48px;"">+</p>","3","Light_Contradictory","",""
"","","","","","sentence","21102","html-keyboard-response","148","271164","0.0-6.0-1.28","46","3","2022-11-17 12:19:20","fd252370c17a9971d68c1d4354a03c2e","","Mozilla/5.0 (Windows NT 10.0; Win64; x64) AppleWebKit/537.36 (KHTML, like Gecko) Chrome/107.0.0.0 Safari/537.36 Edg/107.0.1418.42","WebKit","Edge","107.0.1418.42","Windows","10.0","2579"," ","","A balloon dropped and smashed glasses","3","Light_Contradictory","",""
"","","","","","fixation","21102","html-keyboard-response","149","271687","0.0-6.0-2.28","46","3","2022-11-17 12:19:20","fd252370c17a9971d68c1d4354a03c2e","","Mozilla/5.0 (Windows NT 10.0; Win64; x64) AppleWebKit/537.36 (KHTML, like Gecko) Chrome/107.0.0.0 Safari/537.36 Edg/107.0.1418.42","WebKit","Edge","107.0.1418.42","Windows","10.0","null","null","","<p style=""font-size: 48px;"">+</p>","3","Light_Contradictory","",""
"","","","","","picture","21102","image-keyboard-response","150","273452","0.0-6.0-3.28","46","3","2022-11-17 12:19:20","fd252370c17a9971d68c1d4354a03c2e","","Mozilla/5.0 (Windows NT 10.0; Win64; x64) AppleWebKit/537.36 (KHTML, like Gecko) Chrome/107.0.0.0 Safari/537.36 Edg/107.0.1418.42","WebKit","Edge","107.0.1418.42","Windows","10.0","1752","s","","glassesS.jpg","3","Light_Contradictory","true",""
"","","","","","fixation","21102","html-keyboard-response","151","274472","0.0-6.0-0.29","46","3","2022-11-17 12:19:20","fd252370c17a9971d68c1d4354a03c2e","","Mozilla/5.0 (Windows NT 10.0; Win64; x64) AppleWebKit/537.36 (KHTML, like Gecko) Chrome/107.0.0.0 Safari/537.36 Edg/107.0.1418.42","WebKit","Edge","107.0.1418.42","Windows","10.0","null","null","","<p style=""font-size: 48px;"">+</p>","3","Filler","",""
"","","","","","sentence","21102","html-keyboard-response","152","284106","0.0-6.0-1.29","46","3","2022-11-17 12:19:20","fd252370c17a9971d68c1d4354a03c2e","","Mozilla/5.0 (Windows NT 10.0; Win64; x64) AppleWebKit/537.36 (KHTML, like Gecko) Chrome/107.0.0.0 Safari/537.36 Edg/107.0.1418.42","WebKit","Edge","107.0.1418.42","Windows","10.0","9623"," ","","A toothbrush was placed on the sponge","3","Filler","",""
"","","","","","fixation","21102","html-keyboard-response","153","284643","0.0-6.0-2.29","46","3","2022-11-17 12:19:20","fd252370c17a9971d68c1d4354a03c2e","","Mozilla/5.0 (Windows NT 10.0; Win64; x64) AppleWebKit/537.36 (KHTML, like Gecko) Chrome/107.0.0.0 Safari/537.36 Edg/107.0.1418.42","WebKit","Edge","107.0.1418.42","Windows","10.0","null","null","","<p style=""font-size: 48px;"">+</p>","3","Filler","",""
"","","","","","picture","21102","image-keyboard-response","154","286920","0.0-6.0-3.29","46","3","2022-11-17 12:19:20","fd252370c17a9971d68c1d4354a03c2e","","Mozilla/5.0 (Windows NT 10.0; Win64; x64) AppleWebKit/537.36 (KHTML, like Gecko) Chrome/107.0.0.0 Safari/537.36 Edg/107.0.1418.42","WebKit","Edge","107.0.1418.42","Windows","10.0","2246","s","","sponge.jpg","3","Filler","true",""
"","","","","","fixation","21102","html-keyboard-response","155","287963","0.0-6.0-0.30","46","3","2022-11-17 12:19:20","fd252370c17a9971d68c1d4354a03c2e","","Mozilla/5.0 (Windows NT 10.0; Win64; x64) AppleWebKit/537.36 (KHTML, like Gecko) Chrome/107.0.0.0 Safari/537.36 Edg/107.0.1418.42","WebKit","Edge","107.0.1418.42","Windows","10.0","null","null","","<p style=""font-size: 48px;"">+</p>","3","Light_Matched","",""
"","","","","","sentence","21102","html-keyboard-response","156","289399","0.0-6.0-1.30","46","3","2022-11-17 12:19:20","fd252370c17a9971d68c1d4354a03c2e","","Mozilla/5.0 (Windows NT 10.0; Win64; x64) AppleWebKit/537.36 (KHTML, like Gecko) Chrome/107.0.0.0 Safari/537.36 Edg/107.0.1418.42","WebKit","Edge","107.0.1418.42","Windows","10.0","1396"," ","","A balloon dropped and touched an egg","3","Light_Matched","",""
"","","","","","fixation","21102","html-keyboard-response","157","289930","0.0-6.0-2.30","46","3","2022-11-17 12:19:20","fd252370c17a9971d68c1d4354a03c2e","","Mozilla/5.0 (Windows NT 10.0; Win64; x64) AppleWebKit/537.36 (KHTML, like Gecko) Chrome/107.0.0.0 Safari/537.36 Edg/107.0.1418.42","WebKit","Edge","107.0.1418.42","Windows","10.0","null","null","","<p style=""font-size: 48px;"">+</p>","3","Light_Matched","",""
"","","","","","picture","21102","image-keyboard-response","158","290872","0.0-6.0-3.30","46","3","2022-11-17 12:19:20","fd252370c17a9971d68c1d4354a03c2e","","Mozilla/5.0 (Windows NT 10.0; Win64; x64) AppleWebKit/537.36 (KHTML, like Gecko) Chrome/107.0.0.0 Safari/537.36 Edg/107.0.1418.42","WebKit","Edge","107.0.1418.42","Windows","10.0","891","s","","eggS.jpg","3","Light_Matched","true",""
"","","","","","fixation","21102","html-keyboard-response","159","291896","0.0-6.0-0.31","46","3","2022-11-17 12:19:20","fd252370c17a9971d68c1d4354a03c2e","","Mozilla/5.0 (Windows NT 10.0; Win64; x64) AppleWebKit/537.36 (KHTML, like Gecko) Chrome/107.0.0.0 Safari/537.36 Edg/107.0.1418.42","WebKit","Edge","107.0.1418.42","Windows","10.0","null","null","","<p style=""font-size: 48px;"">+</p>","3","Light_Matched","",""
"","","","","","sentence","21102","html-keyboard-response","160","333887","0.0-6.0-1.31","46","3","2022-11-17 12:19:20","fd252370c17a9971d68c1d4354a03c2e","","Mozilla/5.0 (Windows NT 10.0; Win64; x64) AppleWebKit/537.36 (KHTML, like Gecko) Chrome/107.0.0.0 Safari/537.36 Edg/107.0.1418.42","WebKit","Edge","107.0.1418.42","Windows","10.0","41955"," ","","A balloon dropped and touched a TV","3","Light_Matched","",""
"","","","","","fixation","21102","html-keyboard-response","161","334426","0.0-6.0-2.31","46","3","2022-11-17 12:19:20","fd252370c17a9971d68c1d4354a03c2e","","Mozilla/5.0 (Windows NT 10.0; Win64; x64) AppleWebKit/537.36 (KHTML, like Gecko) Chrome/107.0.0.0 Safari/537.36 Edg/107.0.1418.42","WebKit","Edge","107.0.1418.42","Windows","10.0","null","null","","<p style=""font-size: 48px;"">+</p>","3","Light_Matched","",""
"","","","","","picture","21102","image-keyboard-response","162","335664","0.0-6.0-3.31","46","3","2022-11-17 12:19:20","fd252370c17a9971d68c1d4354a03c2e","","Mozilla/5.0 (Windows NT 10.0; Win64; x64) AppleWebKit/537.36 (KHTML, like Gecko) Chrome/107.0.0.0 Safari/537.36 Edg/107.0.1418.42","WebKit","Edge","107.0.1418.42","Windows","10.0","1187","s","","tvS.jpg","3","Light_Matched","true",""
"","","","","","fixation","21102","html-keyboard-response","163","336688","0.0-6.0-0.32","46","3","2022-11-17 12:19:20","fd252370c17a9971d68c1d4354a03c2e","","Mozilla/5.0 (Windows NT 10.0; Win64; x64) AppleWebKit/537.36 (KHTML, like Gecko) Chrome/107.0.0.0 Safari/537.36 Edg/107.0.1418.42","WebKit","Edge","107.0.1418.42","Windows","10.0","null","null","","<p style=""font-size: 48px;"">+</p>","3","Heavy_Matched","",""
"","","","","","sentence","21102","html-keyboard-response","164","339943","0.0-6.0-1.32","46","3","2022-11-17 12:19:20","fd252370c17a9971d68c1d4354a03c2e","","Mozilla/5.0 (Windows NT 10.0; Win64; x64) AppleWebKit/537.36 (KHTML, like Gecko) Chrome/107.0.0.0 Safari/537.36 Edg/107.0.1418.42","WebKit","Edge","107.0.1418.42","Windows","10.0","3238"," ","","A bowling ball dropped and smashed a light bulb","3","Heavy_Matched","",""
"","","","","","fixation","21102","html-keyboard-response","165","340475","0.0-6.0-2.32","46","3","2022-11-17 12:19:20","fd252370c17a9971d68c1d4354a03c2e","","Mozilla/5.0 (Windows NT 10.0; Win64; x64) AppleWebKit/537.36 (KHTML, like Gecko) Chrome/107.0.0.0 Safari/537.36 Edg/107.0.1418.42","WebKit","Edge","107.0.1418.42","Windows","10.0","null","null","","<p style=""font-size: 48px;"">+</p>","3","Heavy_Matched","",""
"","","","","","picture","21102","image-keyboard-response","166","341734","0.0-6.0-3.32","46","3","2022-11-17 12:19:20","fd252370c17a9971d68c1d4354a03c2e","","Mozilla/5.0 (Windows NT 10.0; Win64; x64) AppleWebKit/537.36 (KHTML, like Gecko) Chrome/107.0.0.0 Safari/537.36 Edg/107.0.1418.42","WebKit","Edge","107.0.1418.42","Windows","10.0","1242","s","","lampS.jpg","3","Heavy_Matched","true",""
"","","","","","fixation","21102","html-keyboard-response","167","342790","0.0-6.0-0.33","46","3","2022-11-17 12:19:20","fd252370c17a9971d68c1d4354a03c2e","","Mozilla/5.0 (Windows NT 10.0; Win64; x64) AppleWebKit/537.36 (KHTML, like Gecko) Chrome/107.0.0.0 Safari/537.36 Edg/107.0.1418.42","WebKit","Edge","107.0.1418.42","Windows","10.0","null","null","","<p style=""font-size: 48px;"">+</p>","3","Filler","",""
"","","","","","sentence","21102","html-keyboard-response","168","344193","0.0-6.0-1.33","46","3","2022-11-17 12:19:20","fd252370c17a9971d68c1d4354a03c2e","","Mozilla/5.0 (Windows NT 10.0; Win64; x64) AppleWebKit/537.36 (KHTML, like Gecko) Chrome/107.0.0.0 Safari/537.36 Edg/107.0.1418.42","WebKit","Edge","107.0.1418.42","Windows","10.0","1372"," ","","A nurse is taking a syringe","3","Filler","",""
"","","","","","fixation","21102","html-keyboard-response","169","344717","0.0-6.0-2.33","46","3","2022-11-17 12:19:20","fd252370c17a9971d68c1d4354a03c2e","","Mozilla/5.0 (Windows NT 10.0; Win64; x64) AppleWebKit/537.36 (KHTML, like Gecko) Chrome/107.0.0.0 Safari/537.36 Edg/107.0.1418.42","WebKit","Edge","107.0.1418.42","Windows","10.0","null","null","","<p style=""font-size: 48px;"">+</p>","3","Filler","",""
"","","","","","picture","21102","image-keyboard-response","170","345510","0.0-6.0-3.33","46","3","2022-11-17 12:19:20","fd252370c17a9971d68c1d4354a03c2e","","Mozilla/5.0 (Windows NT 10.0; Win64; x64) AppleWebKit/537.36 (KHTML, like Gecko) Chrome/107.0.0.0 Safari/537.36 Edg/107.0.1418.42","WebKit","Edge","107.0.1418.42","Windows","10.0","776","n","","headphones.jpg","3","Filler","true",""
"","","","","","fixation","21102","html-keyboard-response","171","346535","0.0-6.0-0.34","46","3","2022-11-17 12:19:20","fd252370c17a9971d68c1d4354a03c2e","","Mozilla/5.0 (Windows NT 10.0; Win64; x64) AppleWebKit/537.36 (KHTML, like Gecko) Chrome/107.0.0.0 Safari/537.36 Edg/107.0.1418.42","WebKit","Edge","107.0.1418.42","Windows","10.0","null","null","","<p style=""font-size: 48px;"">+</p>","3","Filler","",""
"","","","","","sentence","21102","html-keyboard-response","172","348983","0.0-6.0-1.34","46","3","2022-11-17 12:19:20","fd252370c17a9971d68c1d4354a03c2e","","Mozilla/5.0 (Windows NT 10.0; Win64; x64) AppleWebKit/537.36 (KHTML, like Gecko) Chrome/107.0.0.0 Safari/537.36 Edg/107.0.1418.42","WebKit","Edge","107.0.1418.42","Windows","10.0","2432"," ","","A butterfly is sitting on a flower","3","Filler","",""
"","","","","","fixation","21102","html-keyboard-response","173","349510","0.0-6.0-2.34","46","3","2022-11-17 12:19:20","fd252370c17a9971d68c1d4354a03c2e","","Mozilla/5.0 (Windows NT 10.0; Win64; x64) AppleWebKit/537.36 (KHTML, like Gecko) Chrome/107.0.0.0 Safari/537.36 Edg/107.0.1418.42","WebKit","Edge","107.0.1418.42","Windows","10.0","null","null","","<p style=""font-size: 48px;"">+</p>","3","Filler","",""
"","","","","","picture","21102","image-keyboard-response","174","350260","0.0-6.0-3.34","46","3","2022-11-17 12:19:20","fd252370c17a9971d68c1d4354a03c2e","","Mozilla/5.0 (Windows NT 10.0; Win64; x64) AppleWebKit/537.36 (KHTML, like Gecko) Chrome/107.0.0.0 Safari/537.36 Edg/107.0.1418.42","WebKit","Edge","107.0.1418.42","Windows","10.0","733","n","","soap.jpg","3","Filler","true",""
"","","","","","fixation","21102","html-keyboard-response","175","351285","0.0-6.0-0.35","46","3","2022-11-17 12:19:20","fd252370c17a9971d68c1d4354a03c2e","","Mozilla/5.0 (Windows NT 10.0; Win64; x64) AppleWebKit/537.36 (KHTML, like Gecko) Chrome/107.0.0.0 Safari/537.36 Edg/107.0.1418.42","WebKit","Edge","107.0.1418.42","Windows","10.0","null","null","","<p style=""font-size: 48px;"">+</p>","3","Filler","",""
"","","","","","sentence","21102","html-keyboard-response","176","353472","0.0-6.0-1.35","46","3","2022-11-17 12:19:20","fd252370c17a9971d68c1d4354a03c2e","","Mozilla/5.0 (Windows NT 10.0; Win64; x64) AppleWebKit/537.36 (KHTML, like Gecko) Chrome/107.0.0.0 Safari/537.36 Edg/107.0.1418.42","WebKit","Edge","107.0.1418.42","Windows","10.0","2169"," ","","A woman is taking money out of a wallet","3","Filler","",""
"","","","","","fixation","21102","html-keyboard-response","177","354005","0.0-6.0-2.35","46","3","2022-11-17 12:19:20","fd252370c17a9971d68c1d4354a03c2e","","Mozilla/5.0 (Windows NT 10.0; Win64; x64) AppleWebKit/537.36 (KHTML, like Gecko) Chrome/107.0.0.0 Safari/537.36 Edg/107.0.1418.42","WebKit","Edge","107.0.1418.42","Windows","10.0","null","null","","<p style=""font-size: 48px;"">+</p>","3","Filler","",""
"","","","","","picture","21102","image-keyboard-response","178","354744","0.0-6.0-3.35","46","3","2022-11-17 12:19:20","fd252370c17a9971d68c1d4354a03c2e","","Mozilla/5.0 (Windows NT 10.0; Win64; x64) AppleWebKit/537.36 (KHTML, like Gecko) Chrome/107.0.0.0 Safari/537.36 Edg/107.0.1418.42","WebKit","Edge","107.0.1418.42","Windows","10.0","712","n","","coconut.jpg","3","Filler","true",""
"","","","","","fixation","21102","html-keyboard-response","179","355779","0.0-6.0-0.36","46","3","2022-11-17 12:19:20","fd252370c17a9971d68c1d4354a03c2e","","Mozilla/5.0 (Windows NT 10.0; Win64; x64) AppleWebKit/537.36 (KHTML, like Gecko) Chrome/107.0.0.0 Safari/537.36 Edg/107.0.1418.42","WebKit","Edge","107.0.1418.42","Windows","10.0","null","null","","<p style=""font-size: 48px;"">+</p>","3","Filler","",""
"","","","","","sentence","21102","html-keyboard-response","180","357851","0.0-6.0-1.36","46","3","2022-11-17 12:19:20","fd252370c17a9971d68c1d4354a03c2e","","Mozilla/5.0 (Windows NT 10.0; Win64; x64) AppleWebKit/537.36 (KHTML, like Gecko) Chrome/107.0.0.0 Safari/537.36 Edg/107.0.1418.42","WebKit","Edge","107.0.1418.42","Windows","10.0","2057"," ","","A cabbage was placed on the table","3","Filler","",""
"","","","","","fixation","21102","html-keyboard-response","181","358386","0.0-6.0-2.36","46","3","2022-11-17 12:19:20","fd252370c17a9971d68c1d4354a03c2e","","Mozilla/5.0 (Windows NT 10.0; Win64; x64) AppleWebKit/537.36 (KHTML, like Gecko) Chrome/107.0.0.0 Safari/537.36 Edg/107.0.1418.42","WebKit","Edge","107.0.1418.42","Windows","10.0","null","null","","<p style=""font-size: 48px;"">+</p>","3","Filler","",""
"","","","","","picture","21102","image-keyboard-response","182","359065","0.0-6.0-3.36","46","3","2022-11-17 12:19:20","fd252370c17a9971d68c1d4354a03c2e","","Mozilla/5.0 (Windows NT 10.0; Win64; x64) AppleWebKit/537.36 (KHTML, like Gecko) Chrome/107.0.0.0 Safari/537.36 Edg/107.0.1418.42","WebKit","Edge","107.0.1418.42","Windows","10.0","651","n","","ladder.jpg","3","Filler","true",""
"","","","","","fixation","21102","html-keyboard-response","183","360085","0.0-6.0-0.37","46","3","2022-11-17 12:19:20","fd252370c17a9971d68c1d4354a03c2e","","Mozilla/5.0 (Windows NT 10.0; Win64; x64) AppleWebKit/537.36 (KHTML, like Gecko) Chrome/107.0.0.0 Safari/537.36 Edg/107.0.1418.42","WebKit","Edge","107.0.1418.42","Windows","10.0","null","null","","<p style=""font-size: 48px;"">+</p>","3","Filler","",""
"","","","","","sentence","21102","html-keyboard-response","184","362164","0.0-6.0-1.37","46","3","2022-11-17 12:19:20","fd252370c17a9971d68c1d4354a03c2e","","Mozilla/5.0 (Windows NT 10.0; Win64; x64) AppleWebKit/537.36 (KHTML, like Gecko) Chrome/107.0.0.0 Safari/537.36 Edg/107.0.1418.42","WebKit","Edge","107.0.1418.42","Windows","10.0","2060"," ","","A puppy is playing with a ball","3","Filler","",""
"","","","","","fixation","21102","html-keyboard-response","185","362700","0.0-6.0-2.37","46","3","2022-11-17 12:19:20","fd252370c17a9971d68c1d4354a03c2e","","Mozilla/5.0 (Windows NT 10.0; Win64; x64) AppleWebKit/537.36 (KHTML, like Gecko) Chrome/107.0.0.0 Safari/537.36 Edg/107.0.1418.42","WebKit","Edge","107.0.1418.42","Windows","10.0","null","null","","<p style=""font-size: 48px;"">+</p>","3","Filler","",""
"","","","","","picture","21102","image-keyboard-response","186","365025","0.0-6.0-3.37","46","3","2022-11-17 12:19:20","fd252370c17a9971d68c1d4354a03c2e","","Mozilla/5.0 (Windows NT 10.0; Win64; x64) AppleWebKit/537.36 (KHTML, like Gecko) Chrome/107.0.0.0 Safari/537.36 Edg/107.0.1418.42","WebKit","Edge","107.0.1418.42","Windows","10.0","2293","s","","tennisball.jpg","3","Filler","true",""
"","","","","","fixation","21102","html-keyboard-response","187","366057","0.0-6.0-0.38","46","3","2022-11-17 12:19:20","fd252370c17a9971d68c1d4354a03c2e","","Mozilla/5.0 (Windows NT 10.0; Win64; x64) AppleWebKit/537.36 (KHTML, like Gecko) Chrome/107.0.0.0 Safari/537.36 Edg/107.0.1418.42","WebKit","Edge","107.0.1418.42","Windows","10.0","null","null","","<p style=""font-size: 48px;"">+</p>","3","Filler","",""
"","","","","","sentence","21102","html-keyboard-response","188","368806","0.0-6.0-1.38","46","3","2022-11-17 12:19:20","fd252370c17a9971d68c1d4354a03c2e","","Mozilla/5.0 (Windows NT 10.0; Win64; x64) AppleWebKit/537.36 (KHTML, like Gecko) Chrome/107.0.0.0 Safari/537.36 Edg/107.0.1418.42","WebKit","Edge","107.0.1418.42","Windows","10.0","2704"," ","","A police officer is talking on the phone","3","Filler","",""
"","","","","","fixation","21102","html-keyboard-response","189","369327","0.0-6.0-2.38","46","3","2022-11-17 12:19:20","fd252370c17a9971d68c1d4354a03c2e","","Mozilla/5.0 (Windows NT 10.0; Win64; x64) AppleWebKit/537.36 (KHTML, like Gecko) Chrome/107.0.0.0 Safari/537.36 Edg/107.0.1418.42","WebKit","Edge","107.0.1418.42","Windows","10.0","null","null","","<p style=""font-size: 48px;"">+</p>","3","Filler","",""
"","","","","","picture","21102","image-keyboard-response","190","370081","0.0-6.0-3.38","46","3","2022-11-17 12:19:20","fd252370c17a9971d68c1d4354a03c2e","","Mozilla/5.0 (Windows NT 10.0; Win64; x64) AppleWebKit/537.36 (KHTML, like Gecko) Chrome/107.0.0.0 Safari/537.36 Edg/107.0.1418.42","WebKit","Edge","107.0.1418.42","Windows","10.0","701","n","","tissuebox.jpg","3","Filler","true",""
"","","","","","fixation","21102","html-keyboard-response","191","371102","0.0-6.0-0.39","46","3","2022-11-17 12:19:20","fd252370c17a9971d68c1d4354a03c2e","","Mozilla/5.0 (Windows NT 10.0; Win64; x64) AppleWebKit/537.36 (KHTML, like Gecko) Chrome/107.0.0.0 Safari/537.36 Edg/107.0.1418.42","WebKit","Edge","107.0.1418.42","Windows","10.0","null","null","","<p style=""font-size: 48px;"">+</p>","3","Filler","",""
"","","","","","sentence","21102","html-keyboard-response","192","372436","0.0-6.0-1.39","46","3","2022-11-17 12:19:20","fd252370c17a9971d68c1d4354a03c2e","","Mozilla/5.0 (Windows NT 10.0; Win64; x64) AppleWebKit/537.36 (KHTML, like Gecko) Chrome/107.0.0.0 Safari/537.36 Edg/107.0.1418.42","WebKit","Edge","107.0.1418.42","Windows","10.0","1305"," ","","An old man is hammering a nail","3","Filler","",""
"","","","","","fixation","21102","html-keyboard-response","193","372967","0.0-6.0-2.39","46","3","2022-11-17 12:19:20","fd252370c17a9971d68c1d4354a03c2e","","Mozilla/5.0 (Windows NT 10.0; Win64; x64) AppleWebKit/537.36 (KHTML, like Gecko) Chrome/107.0.0.0 Safari/537.36 Edg/107.0.1418.42","WebKit","Edge","107.0.1418.42","Windows","10.0","null","null","","<p style=""font-size: 48px;"">+</p>","3","Filler","",""
"","","","","","picture","21102","image-keyboard-response","194","373762","0.0-6.0-3.39","46","3","2022-11-17 12:19:20","fd252370c17a9971d68c1d4354a03c2e","","Mozilla/5.0 (Windows NT 10.0; Win64; x64) AppleWebKit/537.36 (KHTML, like Gecko) Chrome/107.0.0.0 Safari/537.36 Edg/107.0.1418.42","WebKit","Edge","107.0.1418.42","Windows","10.0","757","s","","nail.jpg","3","Filler","true",""
"","","","","","fixation","21102","html-keyboard-response","195","374790","0.0-6.0-0.40","46","3","2022-11-17 12:19:20","fd252370c17a9971d68c1d4354a03c2e","","Mozilla/5.0 (Windows NT 10.0; Win64; x64) AppleWebKit/537.36 (KHTML, like Gecko) Chrome/107.0.0.0 Safari/537.36 Edg/107.0.1418.42","WebKit","Edge","107.0.1418.42","Windows","10.0","null","null","","<p style=""font-size: 48px;"">+</p>","3","Filler","",""
"","","","","","sentence","21102","html-keyboard-response","196","378066","0.0-6.0-1.40","46","3","2022-11-17 12:19:20","fd252370c17a9971d68c1d4354a03c2e","","Mozilla/5.0 (Windows NT 10.0; Win64; x64) AppleWebKit/537.36 (KHTML, like Gecko) Chrome/107.0.0.0 Safari/537.36 Edg/107.0.1418.42","WebKit","Edge","107.0.1418.42","Windows","10.0","3260"," ","","A giraffe is playing with a zebra","3","Filler","",""
"","","","","","fixation","21102","html-keyboard-response","197","378594","0.0-6.0-2.40","46","3","2022-11-17 12:19:20","fd252370c17a9971d68c1d4354a03c2e","","Mozilla/5.0 (Windows NT 10.0; Win64; x64) AppleWebKit/537.36 (KHTML, like Gecko) Chrome/107.0.0.0 Safari/537.36 Edg/107.0.1418.42","WebKit","Edge","107.0.1418.42","Windows","10.0","null","null","","<p style=""font-size: 48px;"">+</p>","3","Filler","",""
"","","","","","picture","21102","image-keyboard-response","198","379283","0.0-6.0-3.40","46","3","2022-11-17 12:19:20","fd252370c17a9971d68c1d4354a03c2e","","Mozilla/5.0 (Windows NT 10.0; Win64; x64) AppleWebKit/537.36 (KHTML, like Gecko) Chrome/107.0.0.0 Safari/537.36 Edg/107.0.1418.42","WebKit","Edge","107.0.1418.42","Windows","10.0","668","n","","wallet.jpg","3","Filler","true",""
"","","","","","fixation","21102","html-keyboard-response","199","380327","0.0-6.0-0.41","46","3","2022-11-17 12:19:20","fd252370c17a9971d68c1d4354a03c2e","","Mozilla/5.0 (Windows NT 10.0; Win64; x64) AppleWebKit/537.36 (KHTML, like Gecko) Chrome/107.0.0.0 Safari/537.36 Edg/107.0.1418.42","WebKit","Edge","107.0.1418.42","Windows","10.0","null","null","","<p style=""font-size: 48px;"">+</p>","3","Light_Contradictory","",""
"","","","","","sentence","21102","html-keyboard-response","200","382064","0.0-6.0-1.41","46","3","2022-11-17 12:19:20","fd252370c17a9971d68c1d4354a03c2e","","Mozilla/5.0 (Windows NT 10.0; Win64; x64) AppleWebKit/537.36 (KHTML, like Gecko) Chrome/107.0.0.0 Safari/537.36 Edg/107.0.1418.42","WebKit","Edge","107.0.1418.42","Windows","10.0","1719"," ","","A balloon dropped and smashed a banana","3","Light_Contradictory","",""
"","","","","","fixation","21102","html-keyboard-response","201","382630","0.0-6.0-2.41","46","3","2022-11-17 12:19:20","fd252370c17a9971d68c1d4354a03c2e","","Mozilla/5.0 (Windows NT 10.0; Win64; x64) AppleWebKit/537.36 (KHTML, like Gecko) Chrome/107.0.0.0 Safari/537.36 Edg/107.0.1418.42","WebKit","Edge","107.0.1418.42","Windows","10.0","null","null","","<p style=""font-size: 48px;"">+</p>","3","Light_Contradictory","",""
"","","","","","picture","21102","image-keyboard-response","202","384494","0.0-6.0-3.41","46","3","2022-11-17 12:19:20","fd252370c17a9971d68c1d4354a03c2e","","Mozilla/5.0 (Windows NT 10.0; Win64; x64) AppleWebKit/537.36 (KHTML, like Gecko) Chrome/107.0.0.0 Safari/537.36 Edg/107.0.1418.42","WebKit","Edge","107.0.1418.42","Windows","10.0","1832","s","","bananaS.jpg","3","Light_Contradictory","true",""
"","","","","","fixation","21102","html-keyboard-response","203","385538","0.0-6.0-0.42","46","3","2022-11-17 12:19:20","fd252370c17a9971d68c1d4354a03c2e","","Mozilla/5.0 (Windows NT 10.0; Win64; x64) AppleWebKit/537.36 (KHTML, like Gecko) Chrome/107.0.0.0 Safari/537.36 Edg/107.0.1418.42","WebKit","Edge","107.0.1418.42","Windows","10.0","null","null","","<p style=""font-size: 48px;"">+</p>","3","Light_Matched","",""
"","","","","","sentence","21102","html-keyboard-response","204","391681","0.0-6.0-1.42","46","3","2022-11-17 12:19:20","fd252370c17a9971d68c1d4354a03c2e","","Mozilla/5.0 (Windows NT 10.0; Win64; x64) AppleWebKit/537.36 (KHTML, like Gecko) Chrome/107.0.0.0 Safari/537.36 Edg/107.0.1418.42","WebKit","Edge","107.0.1418.42","Windows","10.0","6125"," ","","A balloon dropped and touched a cracker","3","Light_Matched","",""
"","","","","","fixation","21102","html-keyboard-response","205","392205","0.0-6.0-2.42","46","3","2022-11-17 12:19:20","fd252370c17a9971d68c1d4354a03c2e","","Mozilla/5.0 (Windows NT 10.0; Win64; x64) AppleWebKit/537.36 (KHTML, like Gecko) Chrome/107.0.0.0 Safari/537.36 Edg/107.0.1418.42","WebKit","Edge","107.0.1418.42","Windows","10.0","null","null","","<p style=""font-size: 48px;"">+</p>","3","Light_Matched","",""
"","","","","","picture","21102","image-keyboard-response","206","393539","0.0-6.0-3.42","46","3","2022-11-17 12:19:20","fd252370c17a9971d68c1d4354a03c2e","","Mozilla/5.0 (Windows NT 10.0; Win64; x64) AppleWebKit/537.36 (KHTML, like Gecko) Chrome/107.0.0.0 Safari/537.36 Edg/107.0.1418.42","WebKit","Edge","107.0.1418.42","Windows","10.0","1267","s","","crackerS.jpg","3","Light_Matched","true",""
"","","","","","fixation","21102","html-keyboard-response","207","394568","0.0-6.0-0.43","46","3","2022-11-17 12:19:20","fd252370c17a9971d68c1d4354a03c2e","","Mozilla/5.0 (Windows NT 10.0; Win64; x64) AppleWebKit/537.36 (KHTML, like Gecko) Chrome/107.0.0.0 Safari/537.36 Edg/107.0.1418.42","WebKit","Edge","107.0.1418.42","Windows","10.0","null","null","","<p style=""font-size: 48px;"">+</p>","3","Filler","",""
"","","","","","sentence","21102","html-keyboard-response","208","396557","0.0-6.0-1.43","46","3","2022-11-17 12:19:20","fd252370c17a9971d68c1d4354a03c2e","","Mozilla/5.0 (Windows NT 10.0; Win64; x64) AppleWebKit/537.36 (KHTML, like Gecko) Chrome/107.0.0.0 Safari/537.36 Edg/107.0.1418.42","WebKit","Edge","107.0.1418.42","Windows","10.0","1962"," ","","A thermometer was placed on the box","3","Filler","",""
"","","","","","fixation","21102","html-keyboard-response","209","397083","0.0-6.0-2.43","46","3","2022-11-17 12:19:20","fd252370c17a9971d68c1d4354a03c2e","","Mozilla/5.0 (Windows NT 10.0; Win64; x64) AppleWebKit/537.36 (KHTML, like Gecko) Chrome/107.0.0.0 Safari/537.36 Edg/107.0.1418.42","WebKit","Edge","107.0.1418.42","Windows","10.0","null","null","","<p style=""font-size: 48px;"">+</p>","3","Filler","",""
"","","","","","picture","21102","image-keyboard-response","210","397764","0.0-6.0-3.43","46","3","2022-11-17 12:19:20","fd252370c17a9971d68c1d4354a03c2e","","Mozilla/5.0 (Windows NT 10.0; Win64; x64) AppleWebKit/537.36 (KHTML, like Gecko) Chrome/107.0.0.0 Safari/537.36 Edg/107.0.1418.42","WebKit","Edge","107.0.1418.42","Windows","10.0","658","n","","button.jpg","3","Filler","true",""
"","","","","","fixation","21102","html-keyboard-response","211","398812","0.0-6.0-0.44","46","3","2022-11-17 12:19:20","fd252370c17a9971d68c1d4354a03c2e","","Mozilla/5.0 (Windows NT 10.0; Win64; x64) AppleWebKit/537.36 (KHTML, like Gecko) Chrome/107.0.0.0 Safari/537.36 Edg/107.0.1418.42","WebKit","Edge","107.0.1418.42","Windows","10.0","null","null","","<p style=""font-size: 48px;"">+</p>","3","Filler","",""
"","","","","","sentence","21102","html-keyboard-response","212","400285","0.0-6.0-1.44","46","3","2022-11-17 12:19:20","fd252370c17a9971d68c1d4354a03c2e","","Mozilla/5.0 (Windows NT 10.0; Win64; x64) AppleWebKit/537.36 (KHTML, like Gecko) Chrome/107.0.0.0 Safari/537.36 Edg/107.0.1418.42","WebKit","Edge","107.0.1418.42","Windows","10.0","1440"," ","","A thief is stealing a wallet","3","Filler","",""
"","","","","","fixation","21102","html-keyboard-response","213","400811","0.0-6.0-2.44","46","3","2022-11-17 12:19:20","fd252370c17a9971d68c1d4354a03c2e","","Mozilla/5.0 (Windows NT 10.0; Win64; x64) AppleWebKit/537.36 (KHTML, like Gecko) Chrome/107.0.0.0 Safari/537.36 Edg/107.0.1418.42","WebKit","Edge","107.0.1418.42","Windows","10.0","null","null","","<p style=""font-size: 48px;"">+</p>","3","Filler","",""
"","","","","","picture","21102","image-keyboard-response","214","401499","0.0-6.0-3.44","46","3","2022-11-17 12:19:20","fd252370c17a9971d68c1d4354a03c2e","","Mozilla/5.0 (Windows NT 10.0; Win64; x64) AppleWebKit/537.36 (KHTML, like Gecko) Chrome/107.0.0.0 Safari/537.36 Edg/107.0.1418.42","WebKit","Edge","107.0.1418.42","Windows","10.0","657","n","","teddybear.jpg","3","Filler","true",""
"","","","","","fixation","21102","html-keyboard-response","215","402524","0.0-6.0-0.45","46","3","2022-11-17 12:19:20","fd252370c17a9971d68c1d4354a03c2e","","Mozilla/5.0 (Windows NT 10.0; Win64; x64) AppleWebKit/537.36 (KHTML, like Gecko) Chrome/107.0.0.0 Safari/537.36 Edg/107.0.1418.42","WebKit","Edge","107.0.1418.42","Windows","10.0","null","null","","<p style=""font-size: 48px;"">+</p>","3","Heavy_Matched","",""
"","","","","","sentence","21102","html-keyboard-response","216","403053","0.0-6.0-1.45","46","3","2022-11-17 12:19:20","fd252370c17a9971d68c1d4354a03c2e","","Mozilla/5.0 (Windows NT 10.0; Win64; x64) AppleWebKit/537.36 (KHTML, like Gecko) Chrome/107.0.0.0 Safari/537.36 Edg/107.0.1418.42","WebKit","Edge","107.0.1418.42","Windows","10.0","500"," ","","A bowling ball dropped and smashed a rice cake","3","Heavy_Matched","",""
"","","","","","fixation","21102","html-keyboard-response","217","403597","0.0-6.0-2.45","46","3","2022-11-17 12:19:20","fd252370c17a9971d68c1d4354a03c2e","","Mozilla/5.0 (Windows NT 10.0; Win64; x64) AppleWebKit/537.36 (KHTML, like Gecko) Chrome/107.0.0.0 Safari/537.36 Edg/107.0.1418.42","WebKit","Edge","107.0.1418.42","Windows","10.0","null","null","","<p style=""font-size: 48px;"">+</p>","3","Heavy_Matched","",""
"","","","","","picture","21102","image-keyboard-response","218","404883","0.0-6.0-3.45","46","3","2022-11-17 12:19:20","fd252370c17a9971d68c1d4354a03c2e","","Mozilla/5.0 (Windows NT 10.0; Win64; x64) AppleWebKit/537.36 (KHTML, like Gecko) Chrome/107.0.0.0 Safari/537.36 Edg/107.0.1418.42","WebKit","Edge","107.0.1418.42","Windows","10.0","1246","n","","tortitaS.jpg","3","Heavy_Matched","false",""
"","","","","","fixation","21102","html-keyboard-response","219","405920","0.0-6.0-0.46","46","3","2022-11-17 12:19:20","fd252370c17a9971d68c1d4354a03c2e","","Mozilla/5.0 (Windows NT 10.0; Win64; x64) AppleWebKit/537.36 (KHTML, like Gecko) Chrome/107.0.0.0 Safari/537.36 Edg/107.0.1418.42","WebKit","Edge","107.0.1418.42","Windows","10.0","null","null","","<p style=""font-size: 48px;"">+</p>","3","Filler","",""
"","","","","","sentence","21102","html-keyboard-response","220","408508","0.0-6.0-1.46","46","3","2022-11-17 12:19:20","fd252370c17a9971d68c1d4354a03c2e","","Mozilla/5.0 (Windows NT 10.0; Win64; x64) AppleWebKit/537.36 (KHTML, like Gecko) Chrome/107.0.0.0 Safari/537.36 Edg/107.0.1418.42","WebKit","Edge","107.0.1418.42","Windows","10.0","2559"," ","","A needle was placed on the mouse pad","3","Filler","",""
"","","","","","fixation","21102","html-keyboard-response","221","409033","0.0-6.0-2.46","46","3","2022-11-17 12:19:20","fd252370c17a9971d68c1d4354a03c2e","","Mozilla/5.0 (Windows NT 10.0; Win64; x64) AppleWebKit/537.36 (KHTML, like Gecko) Chrome/107.0.0.0 Safari/537.36 Edg/107.0.1418.42","WebKit","Edge","107.0.1418.42","Windows","10.0","null","null","","<p style=""font-size: 48px;"">+</p>","3","Filler","",""
"","","","","","picture","21102","image-keyboard-response","222","409895","0.0-6.0-3.46","46","3","2022-11-17 12:19:20","fd252370c17a9971d68c1d4354a03c2e","","Mozilla/5.0 (Windows NT 10.0; Win64; x64) AppleWebKit/537.36 (KHTML, like Gecko) Chrome/107.0.0.0 Safari/537.36 Edg/107.0.1418.42","WebKit","Edge","107.0.1418.42","Windows","10.0","825","n","","chocolate.jpg","3","Filler","true",""
"","","","","","fixation","21102","html-keyboard-response","223","410922","0.0-6.0-0.47","46","3","2022-11-17 12:19:20","fd252370c17a9971d68c1d4354a03c2e","","Mozilla/5.0 (Windows NT 10.0; Win64; x64) AppleWebKit/537.36 (KHTML, like Gecko) Chrome/107.0.0.0 Safari/537.36 Edg/107.0.1418.42","WebKit","Edge","107.0.1418.42","Windows","10.0","null","null","","<p style=""font-size: 48px;"">+</p>","3","Filler","",""
"","","","","","sentence","21102","html-keyboard-response","224","412730","0.0-6.0-1.47","46","3","2022-11-17 12:19:20","fd252370c17a9971d68c1d4354a03c2e","","Mozilla/5.0 (Windows NT 10.0; Win64; x64) AppleWebKit/537.36 (KHTML, like Gecko) Chrome/107.0.0.0 Safari/537.36 Edg/107.0.1418.42","WebKit","Edge","107.0.1418.42","Windows","10.0","1758"," ","","A teenage girl is playing the piano","3","Filler","",""
"","","","","","fixation","21102","html-keyboard-response","225","413255","0.0-6.0-2.47","46","3","2022-11-17 12:19:20","fd252370c17a9971d68c1d4354a03c2e","","Mozilla/5.0 (Windows NT 10.0; Win64; x64) AppleWebKit/537.36 (KHTML, like Gecko) Chrome/107.0.0.0 Safari/537.36 Edg/107.0.1418.42","WebKit","Edge","107.0.1418.42","Windows","10.0","null","null","","<p style=""font-size: 48px;"">+</p>","3","Filler","",""
"","","","","","picture","21102","image-keyboard-response","226","414216","0.0-6.0-3.47","46","3","2022-11-17 12:19:20","fd252370c17a9971d68c1d4354a03c2e","","Mozilla/5.0 (Windows NT 10.0; Win64; x64) AppleWebKit/537.36 (KHTML, like Gecko) Chrome/107.0.0.0 Safari/537.36 Edg/107.0.1418.42","WebKit","Edge","107.0.1418.42","Windows","10.0","940","n","","pillow.jpg","3","Filler","true",""
"","","","","","fixation","21102","html-keyboard-response","227","415240","0.0-6.0-0.48","46","3","2022-11-17 12:19:20","fd252370c17a9971d68c1d4354a03c2e","","Mozilla/5.0 (Windows NT 10.0; Win64; x64) AppleWebKit/537.36 (KHTML, like Gecko) Chrome/107.0.0.0 Safari/537.36 Edg/107.0.1418.42","WebKit","Edge","107.0.1418.42","Windows","10.0","null","null","","<p style=""font-size: 48px;"">+</p>","3","Light_Contradictory","",""
"","","","","","sentence","21102","html-keyboard-response","228","417434","0.0-6.0-1.48","46","3","2022-11-17 12:19:20","fd252370c17a9971d68c1d4354a03c2e","","Mozilla/5.0 (Windows NT 10.0; Win64; x64) AppleWebKit/537.36 (KHTML, like Gecko) Chrome/107.0.0.0 Safari/537.36 Edg/107.0.1418.42","WebKit","Edge","107.0.1418.42","Windows","10.0","2147"," ","","A balloon dropped and smashed a blackberry","3","Light_Contradictory","",""
"","","","","","fixation","21102","html-keyboard-response","229","417999","0.0-6.0-2.48","46","3","2022-11-17 12:19:20","fd252370c17a9971d68c1d4354a03c2e","","Mozilla/5.0 (Windows NT 10.0; Win64; x64) AppleWebKit/537.36 (KHTML, like Gecko) Chrome/107.0.0.0 Safari/537.36 Edg/107.0.1418.42","WebKit","Edge","107.0.1418.42","Windows","10.0","null","null","","<p style=""font-size: 48px;"">+</p>","3","Light_Contradictory","",""
"","","","","","picture","21102","image-keyboard-response","230","418800","0.0-6.0-3.48","46","3","2022-11-17 12:19:20","fd252370c17a9971d68c1d4354a03c2e","","Mozilla/5.0 (Windows NT 10.0; Win64; x64) AppleWebKit/537.36 (KHTML, like Gecko) Chrome/107.0.0.0 Safari/537.36 Edg/107.0.1418.42","WebKit","Edge","107.0.1418.42","Windows","10.0","780","s","","blackberryS.jpg","3","Light_Contradictory","true",""
"","","","","","fixation","21102","html-keyboard-response","231","419824","0.0-6.0-0.49","46","3","2022-11-17 12:19:20","fd252370c17a9971d68c1d4354a03c2e","","Mozilla/5.0 (Windows NT 10.0; Win64; x64) AppleWebKit/537.36 (KHTML, like Gecko) Chrome/107.0.0.0 Safari/537.36 Edg/107.0.1418.42","WebKit","Edge","107.0.1418.42","Windows","10.0","null","null","","<p style=""font-size: 48px;"">+</p>","3","Filler","",""
"","","","","","sentence","21102","html-keyboard-response","232","422434","0.0-6.0-1.49","46","3","2022-11-17 12:19:20","fd252370c17a9971d68c1d4354a03c2e","","Mozilla/5.0 (Windows NT 10.0; Win64; x64) AppleWebKit/537.36 (KHTML, like Gecko) Chrome/107.0.0.0 Safari/537.36 Edg/107.0.1418.42","WebKit","Edge","107.0.1418.42","Windows","10.0","2546"," ","","A cook is taking a knife","3","Filler","",""
"","","","","","fixation","21102","html-keyboard-response","233","422963","0.0-6.0-2.49","46","3","2022-11-17 12:19:20","fd252370c17a9971d68c1d4354a03c2e","","Mozilla/5.0 (Windows NT 10.0; Win64; x64) AppleWebKit/537.36 (KHTML, like Gecko) Chrome/107.0.0.0 Safari/537.36 Edg/107.0.1418.42","WebKit","Edge","107.0.1418.42","Windows","10.0","null","null","","<p style=""font-size: 48px;"">+</p>","3","Filler","",""
"","","","","","picture","21102","image-keyboard-response","234","423918","0.0-6.0-3.49","46","3","2022-11-17 12:19:20","fd252370c17a9971d68c1d4354a03c2e","","Mozilla/5.0 (Windows NT 10.0; Win64; x64) AppleWebKit/537.36 (KHTML, like Gecko) Chrome/107.0.0.0 Safari/537.36 Edg/107.0.1418.42","WebKit","Edge","107.0.1418.42","Windows","10.0","932","s","","knife.jpg","3","Filler","true",""
"","","","","","fixation","21102","html-keyboard-response","235","424975","0.0-6.0-0.50","46","3","2022-11-17 12:19:20","fd252370c17a9971d68c1d4354a03c2e","","Mozilla/5.0 (Windows NT 10.0; Win64; x64) AppleWebKit/537.36 (KHTML, like Gecko) Chrome/107.0.0.0 Safari/537.36 Edg/107.0.1418.42","WebKit","Edge","107.0.1418.42","Windows","10.0","null","null","","<p style=""font-size: 48px;"">+</p>","3","Filler","",""
"","","","","","sentence","21102","html-keyboard-response","236","426486","0.0-6.0-1.50","46","3","2022-11-17 12:19:20","fd252370c17a9971d68c1d4354a03c2e","","Mozilla/5.0 (Windows NT 10.0; Win64; x64) AppleWebKit/537.36 (KHTML, like Gecko) Chrome/107.0.0.0 Safari/537.36 Edg/107.0.1418.42","WebKit","Edge","107.0.1418.42","Windows","10.0","1468"," ","","A boy is wearing a hat","3","Filler","",""
