"success","timeout","failed_images","failed_audio","failed_video","typeoftrial","subject","trial_type","trial_index","time_elapsed","internal_node_id","run_id","condition","recorded_at","source_code_version","ip","user_agent","device","browser","browser_version","platform","platform_version","rt","response","Experiment","stimulus","list_number","trialcondition","correct","question_order"
"true","false","[]","[]","[]","preload","95412","preload","0","1338","0.0-0.0","71","4","2022-11-17 12:24:56","fd252370c17a9971d68c1d4354a03c2e","","Mozilla/5.0 (Windows NT 10.0; Win64; x64) AppleWebKit/537.36 (KHTML, like Gecko) Chrome/107.0.0.0 Safari/537.36","WebKit","Chrome","107.0.0.0","Windows","10.0","","","","","","","",""
"","","","","","ID","95412","survey-text","1","4381","0.0-1.0","71","4","2022-11-17 12:24:56","fd252370c17a9971d68c1d4354a03c2e","","Mozilla/5.0 (Windows NT 10.0; Win64; x64) AppleWebKit/537.36 (KHTML, like Gecko) Chrome/107.0.0.0 Safari/537.36","WebKit","Chrome","107.0.0.0","Windows","10.0","3026","{""ID"":""5f4f6ee49fc9f0011997185d""}","","","","","",""
"","","","","","instructions","95412","html-button-response","2","21716","0.0-2.0","71","4","2022-11-17 12:24:56","fd252370c17a9971d68c1d4354a03c2e","","Mozilla/5.0 (Windows NT 10.0; Win64; x64) AppleWebKit/537.36 (KHTML, like Gecko) Chrome/107.0.0.0 Safari/537.36","WebKit","Chrome","107.0.0.0","Windows","10.0","17331","0","","
                    <p style=""font-size:20px;""> Welcome to the experiment! </p>
                    <p style=""font-size:20px;""> In this experiment, you will be asked to make judgments about the content of different sentences.</p>
                    <p style=""font-size:20px;""> On each trial, you will read a sentence, and will be shown a picture immediately following the sentence. </p>
                    <p style=""font-size:20px;""> Your task is to decide whether the object displayed in the picture was mentioned in the sentence or not </p>
                    <p style=""font-size:20px;""> and respond as quickly as possible by pressing <strong>S</strong> for yes or <strong>N</strong> for no. </p>
                    <p style=""font-size:20px;""> You will now do a practice session with feedback and instructions. </p>
                    <p style=""font-size:20px;""> Click the button below to continue.</p>
                    ","","","",""
"","","","","","instructions","95412","html-button-response","3","33152","0.0-3.0","71","4","2022-11-17 12:24:56","fd252370c17a9971d68c1d4354a03c2e","","Mozilla/5.0 (Windows NT 10.0; Win64; x64) AppleWebKit/537.36 (KHTML, like Gecko) Chrome/107.0.0.0 Safari/537.36","WebKit","Chrome","107.0.0.0","Windows","10.0","11431","0","","
                    <p style=""font-size:20px;""> You are about to begin the practice test. </p>
                    <p style=""font-size:20px;""> On each trial, a sentence will appear on the screen. You should press SPACEBAR when you have read and understood the sentence.</p>
                    <p style=""font-size:20px;""> After you press SPACEBAR, a picture will appear on the screen. </p>
                    <p style=""font-size:20px;""> You need to indicate whether or not the pictured object was mentioned in the sentence. </p>
                    <p style=""font-size:20px;""> If the object WAS mentioned in the preceding sentence, you should press <strong>S</strong> </p>
                    <p style=""font-size:20px;""> If the object was NOT mentioned in the preceding sentence, you should press <strong>N</strong>. </p>
                    <p style=""font-size:20px;""> Click the button below to continue to the practice session.</p>
                    ","","","",""
"","","","","","fixation","95412","html-keyboard-response","4","34164","0.0-4.0-0.0","71","4","2022-11-17 12:24:56","fd252370c17a9971d68c1d4354a03c2e","","Mozilla/5.0 (Windows NT 10.0; Win64; x64) AppleWebKit/537.36 (KHTML, like Gecko) Chrome/107.0.0.0 Safari/537.36","WebKit","Chrome","107.0.0.0","Windows","10.0","null","null","","<p style=""font-size: 48px;"">+</p>","practice","practice_s","",""
"","","","","","sentence","95412","html-keyboard-response","5","37733","0.0-4.0-1.0","71","4","2022-11-17 12:24:56","fd252370c17a9971d68c1d4354a03c2e","","Mozilla/5.0 (Windows NT 10.0; Win64; x64) AppleWebKit/537.36 (KHTML, like Gecko) Chrome/107.0.0.0 Safari/537.36","WebKit","Chrome","107.0.0.0","Windows","10.0","3565"," ","","A knife was placed on a hammer","practice","practice_s","",""
"","","","","","fixation","95412","html-keyboard-response","6","38244","0.0-4.0-2.0","71","4","2022-11-17 12:24:56","fd252370c17a9971d68c1d4354a03c2e","","Mozilla/5.0 (Windows NT 10.0; Win64; x64) AppleWebKit/537.36 (KHTML, like Gecko) Chrome/107.0.0.0 Safari/537.36","WebKit","Chrome","107.0.0.0","Windows","10.0","null","null","","<p style=""font-size: 48px;"">+</p>","practice","practice_s","",""
"","","","","","picture","95412","image-keyboard-response","7","40717","0.0-4.0-3.0","71","4","2022-11-17 12:24:56","fd252370c17a9971d68c1d4354a03c2e","","Mozilla/5.0 (Windows NT 10.0; Win64; x64) AppleWebKit/537.36 (KHTML, like Gecko) Chrome/107.0.0.0 Safari/537.36","WebKit","Chrome","107.0.0.0","Windows","10.0","2453","s","","hammerB.jpg","practice","practice_s","true",""
"","","","","","","","html-keyboard-response","8","42724","0.0-4.0-4.0","71","4","2022-11-17 12:24:56","fd252370c17a9971d68c1d4354a03c2e","","Mozilla/5.0 (Windows NT 10.0; Win64; x64) AppleWebKit/537.36 (KHTML, like Gecko) Chrome/107.0.0.0 Safari/537.36","WebKit","Chrome","107.0.0.0","Windows","10.0","null","null","","CORRECT!","","","",""
"","","","","","fixation","95412","html-keyboard-response","9","43733","0.0-4.0-0.1","71","4","2022-11-17 12:24:56","fd252370c17a9971d68c1d4354a03c2e","","Mozilla/5.0 (Windows NT 10.0; Win64; x64) AppleWebKit/537.36 (KHTML, like Gecko) Chrome/107.0.0.0 Safari/537.36","WebKit","Chrome","107.0.0.0","Windows","10.0","null","null","","<p style=""font-size: 48px;"">+</p>","practice","practice_n","",""
"","","","","","sentence","95412","html-keyboard-response","10","46477","0.0-4.0-1.1","71","4","2022-11-17 12:24:56","fd252370c17a9971d68c1d4354a03c2e","","Mozilla/5.0 (Windows NT 10.0; Win64; x64) AppleWebKit/537.36 (KHTML, like Gecko) Chrome/107.0.0.0 Safari/537.36","WebKit","Chrome","107.0.0.0","Windows","10.0","2741"," ","","A balloon dropped and smashed a cup","practice","practice_n","",""
"","","","","","fixation","95412","html-keyboard-response","11","46988","0.0-4.0-2.1","71","4","2022-11-17 12:24:56","fd252370c17a9971d68c1d4354a03c2e","","Mozilla/5.0 (Windows NT 10.0; Win64; x64) AppleWebKit/537.36 (KHTML, like Gecko) Chrome/107.0.0.0 Safari/537.36","WebKit","Chrome","107.0.0.0","Windows","10.0","null","null","","<p style=""font-size: 48px;"">+</p>","practice","practice_n","",""
"","","","","","picture","95412","image-keyboard-response","12","48638","0.0-4.0-3.1","71","4","2022-11-17 12:24:56","fd252370c17a9971d68c1d4354a03c2e","","Mozilla/5.0 (Windows NT 10.0; Win64; x64) AppleWebKit/537.36 (KHTML, like Gecko) Chrome/107.0.0.0 Safari/537.36","WebKit","Chrome","107.0.0.0","Windows","10.0","1646","n","","bananaB.jpg","practice","practice_n","true",""
"","","","","","","","html-keyboard-response","13","50643","0.0-4.0-4.1","71","4","2022-11-17 12:24:56","fd252370c17a9971d68c1d4354a03c2e","","Mozilla/5.0 (Windows NT 10.0; Win64; x64) AppleWebKit/537.36 (KHTML, like Gecko) Chrome/107.0.0.0 Safari/537.36","WebKit","Chrome","107.0.0.0","Windows","10.0","null","null","","CORRECT!","","","",""
"","","","","","fixation","95412","html-keyboard-response","14","51652","0.0-4.0-0.2","71","4","2022-11-17 12:24:56","fd252370c17a9971d68c1d4354a03c2e","","Mozilla/5.0 (Windows NT 10.0; Win64; x64) AppleWebKit/537.36 (KHTML, like Gecko) Chrome/107.0.0.0 Safari/537.36","WebKit","Chrome","107.0.0.0","Windows","10.0","null","null","","<p style=""font-size: 48px;"">+</p>","practice","practice_s","",""
"","","","","","sentence","95412","html-keyboard-response","15","53807","0.0-4.0-1.2","71","4","2022-11-17 12:24:56","fd252370c17a9971d68c1d4354a03c2e","","Mozilla/5.0 (Windows NT 10.0; Win64; x64) AppleWebKit/537.36 (KHTML, like Gecko) Chrome/107.0.0.0 Safari/537.36","WebKit","Chrome","107.0.0.0","Windows","10.0","2152"," ","","A bowling ball dropped and smashed a teacup","practice","practice_s","",""
"","","","","","fixation","95412","html-keyboard-response","16","54315","0.0-4.0-2.2","71","4","2022-11-17 12:24:56","fd252370c17a9971d68c1d4354a03c2e","","Mozilla/5.0 (Windows NT 10.0; Win64; x64) AppleWebKit/537.36 (KHTML, like Gecko) Chrome/107.0.0.0 Safari/537.36","WebKit","Chrome","107.0.0.0","Windows","10.0","null","null","","<p style=""font-size: 48px;"">+</p>","practice","practice_s","",""
"","","","","","picture","95412","image-keyboard-response","17","55687","0.0-4.0-3.2","71","4","2022-11-17 12:24:56","fd252370c17a9971d68c1d4354a03c2e","","Mozilla/5.0 (Windows NT 10.0; Win64; x64) AppleWebKit/537.36 (KHTML, like Gecko) Chrome/107.0.0.0 Safari/537.36","WebKit","Chrome","107.0.0.0","Windows","10.0","1367","n","","cupB.jpg","practice","practice_s","false",""
"","","","","","","","html-keyboard-response","18","57691","0.0-4.0-4.2","71","4","2022-11-17 12:24:56","fd252370c17a9971d68c1d4354a03c2e","","Mozilla/5.0 (Windows NT 10.0; Win64; x64) AppleWebKit/537.36 (KHTML, like Gecko) Chrome/107.0.0.0 Safari/537.36","WebKit","Chrome","107.0.0.0","Windows","10.0","null","null","","WRONG!","","","",""
"","","","","","fixation","95412","html-keyboard-response","19","58699","0.0-4.0-0.3","71","4","2022-11-17 12:24:56","fd252370c17a9971d68c1d4354a03c2e","","Mozilla/5.0 (Windows NT 10.0; Win64; x64) AppleWebKit/537.36 (KHTML, like Gecko) Chrome/107.0.0.0 Safari/537.36","WebKit","Chrome","107.0.0.0","Windows","10.0","null","null","","<p style=""font-size: 48px;"">+</p>","practice","practice_n","",""
"","","","","","sentence","95412","html-keyboard-response","20","60568","0.0-4.0-1.3","71","4","2022-11-17 12:24:56","fd252370c17a9971d68c1d4354a03c2e","","Mozilla/5.0 (Windows NT 10.0; Win64; x64) AppleWebKit/537.36 (KHTML, like Gecko) Chrome/107.0.0.0 Safari/537.36","WebKit","Chrome","107.0.0.0","Windows","10.0","1865"," ","","A bowling ball dropped and touched a bottle","practice","practice_n","",""
"","","","","","fixation","95412","html-keyboard-response","21","61075","0.0-4.0-2.3","71","4","2022-11-17 12:24:56","fd252370c17a9971d68c1d4354a03c2e","","Mozilla/5.0 (Windows NT 10.0; Win64; x64) AppleWebKit/537.36 (KHTML, like Gecko) Chrome/107.0.0.0 Safari/537.36","WebKit","Chrome","107.0.0.0","Windows","10.0","null","null","","<p style=""font-size: 48px;"">+</p>","practice","practice_n","",""
"","","","","","picture","95412","image-keyboard-response","22","62167","0.0-4.0-3.3","71","4","2022-11-17 12:24:56","fd252370c17a9971d68c1d4354a03c2e","","Mozilla/5.0 (Windows NT 10.0; Win64; x64) AppleWebKit/537.36 (KHTML, like Gecko) Chrome/107.0.0.0 Safari/537.36","WebKit","Chrome","107.0.0.0","Windows","10.0","1087","n","","bookB.jpg","practice","practice_n","true",""
"","","","","","","","html-keyboard-response","23","64178","0.0-4.0-4.3","71","4","2022-11-17 12:24:56","fd252370c17a9971d68c1d4354a03c2e","","Mozilla/5.0 (Windows NT 10.0; Win64; x64) AppleWebKit/537.36 (KHTML, like Gecko) Chrome/107.0.0.0 Safari/537.36","WebKit","Chrome","107.0.0.0","Windows","10.0","null","null","","CORRECT!","","","",""
"","","","","","fixation","95412","html-keyboard-response","24","65187","0.0-4.0-0.4","71","4","2022-11-17 12:24:56","fd252370c17a9971d68c1d4354a03c2e","","Mozilla/5.0 (Windows NT 10.0; Win64; x64) AppleWebKit/537.36 (KHTML, like Gecko) Chrome/107.0.0.0 Safari/537.36","WebKit","Chrome","107.0.0.0","Windows","10.0","null","null","","<p style=""font-size: 48px;"">+</p>","practice","practice_s","",""
"","","","","","sentence","95412","html-keyboard-response","25","68095","0.0-4.0-1.4","71","4","2022-11-17 12:24:56","fd252370c17a9971d68c1d4354a03c2e","","Mozilla/5.0 (Windows NT 10.0; Win64; x64) AppleWebKit/537.36 (KHTML, like Gecko) Chrome/107.0.0.0 Safari/537.36","WebKit","Chrome","107.0.0.0","Windows","10.0","2906"," ","","A balloon dropped and touched a cigarette","practice","practice_s","",""
"","","","","","fixation","95412","html-keyboard-response","26","68604","0.0-4.0-2.4","71","4","2022-11-17 12:24:56","fd252370c17a9971d68c1d4354a03c2e","","Mozilla/5.0 (Windows NT 10.0; Win64; x64) AppleWebKit/537.36 (KHTML, like Gecko) Chrome/107.0.0.0 Safari/537.36","WebKit","Chrome","107.0.0.0","Windows","10.0","null","null","","<p style=""font-size: 48px;"">+</p>","practice","practice_s","",""
"","","","","","picture","95412","image-keyboard-response","27","69465","0.0-4.0-3.4","71","4","2022-11-17 12:24:56","fd252370c17a9971d68c1d4354a03c2e","","Mozilla/5.0 (Windows NT 10.0; Win64; x64) AppleWebKit/537.36 (KHTML, like Gecko) Chrome/107.0.0.0 Safari/537.36","WebKit","Chrome","107.0.0.0","Windows","10.0","858","s","","cigaretteB.jpg","practice","practice_s","true",""
"","","","","","","","html-keyboard-response","28","71475","0.0-4.0-4.4","71","4","2022-11-17 12:24:56","fd252370c17a9971d68c1d4354a03c2e","","Mozilla/5.0 (Windows NT 10.0; Win64; x64) AppleWebKit/537.36 (KHTML, like Gecko) Chrome/107.0.0.0 Safari/537.36","WebKit","Chrome","107.0.0.0","Windows","10.0","null","null","","CORRECT!","","","",""
"","","","","","fixation","95412","html-keyboard-response","29","72484","0.0-4.0-0.5","71","4","2022-11-17 12:24:56","fd252370c17a9971d68c1d4354a03c2e","","Mozilla/5.0 (Windows NT 10.0; Win64; x64) AppleWebKit/537.36 (KHTML, like Gecko) Chrome/107.0.0.0 Safari/537.36","WebKit","Chrome","107.0.0.0","Windows","10.0","null","null","","<p style=""font-size: 48px;"">+</p>","practice","practice_n","",""
"","","","","","sentence","95412","html-keyboard-response","30","74418","0.0-4.0-1.5","71","4","2022-11-17 12:24:56","fd252370c17a9971d68c1d4354a03c2e","","Mozilla/5.0 (Windows NT 10.0; Win64; x64) AppleWebKit/537.36 (KHTML, like Gecko) Chrome/107.0.0.0 Safari/537.36","WebKit","Chrome","107.0.0.0","Windows","10.0","1929"," ","","A fork was placed on a stool","practice","practice_n","",""
"","","","","","fixation","95412","html-keyboard-response","31","74931","0.0-4.0-2.5","71","4","2022-11-17 12:24:56","fd252370c17a9971d68c1d4354a03c2e","","Mozilla/5.0 (Windows NT 10.0; Win64; x64) AppleWebKit/537.36 (KHTML, like Gecko) Chrome/107.0.0.0 Safari/537.36","WebKit","Chrome","107.0.0.0","Windows","10.0","null","null","","<p style=""font-size: 48px;"">+</p>","practice","practice_n","",""
"","","","","","picture","95412","image-keyboard-response","32","77708","0.0-4.0-3.5","71","4","2022-11-17 12:24:56","fd252370c17a9971d68c1d4354a03c2e","","Mozilla/5.0 (Windows NT 10.0; Win64; x64) AppleWebKit/537.36 (KHTML, like Gecko) Chrome/107.0.0.0 Safari/537.36","WebKit","Chrome","107.0.0.0","Windows","10.0","2770","s","","tableB.jpg","practice","practice_n","false",""
"","","","","","","","html-keyboard-response","33","79715","0.0-4.0-4.5","71","4","2022-11-17 12:24:56","fd252370c17a9971d68c1d4354a03c2e","","Mozilla/5.0 (Windows NT 10.0; Win64; x64) AppleWebKit/537.36 (KHTML, like Gecko) Chrome/107.0.0.0 Safari/537.36","WebKit","Chrome","107.0.0.0","Windows","10.0","null","null","","WRONG!","","","",""
"","","","","","movetoexp","95412","html-button-response","34","86539","0.0-5.0","71","4","2022-11-17 12:24:56","fd252370c17a9971d68c1d4354a03c2e","","Mozilla/5.0 (Windows NT 10.0; Win64; x64) AppleWebKit/537.36 (KHTML, like Gecko) Chrome/107.0.0.0 Safari/537.36","WebKit","Chrome","107.0.0.0","Windows","10.0","6818","0","","<p style=""font-size:20px;"">You have now completed the practice session! </p>
                    <p style=""font-size:20px;"">You will now move on to the main experiment, where you will not be provided any feedback. </p>
                    <p style=""font-size:20px;"">Remember, you should press <strong>S</strong> if the pictured object was mentioned in the preceding sentence<br> and <strong>N</strong> if the pictured object was not mentioned in the preceding sentence.</p>
                    <p style=""font-size:20px;"">Please click the button below to continue to the main experiment. </p>","","","",""
"","","","","","fixation","95412","html-keyboard-response","35","87547","0.0-6.0-0.0","71","4","2022-11-17 12:24:56","fd252370c17a9971d68c1d4354a03c2e","","Mozilla/5.0 (Windows NT 10.0; Win64; x64) AppleWebKit/537.36 (KHTML, like Gecko) Chrome/107.0.0.0 Safari/537.36","WebKit","Chrome","107.0.0.0","Windows","10.0","null","null","","<p style=""font-size: 48px;"">+</p>","4","Filler","",""
"","","","","","sentence","95412","html-keyboard-response","36","89317","0.0-6.0-1.0","71","4","2022-11-17 12:24:56","fd252370c17a9971d68c1d4354a03c2e","","Mozilla/5.0 (Windows NT 10.0; Win64; x64) AppleWebKit/537.36 (KHTML, like Gecko) Chrome/107.0.0.0 Safari/537.36","WebKit","Chrome","107.0.0.0","Windows","10.0","1765"," ","","A musician is playing a guitar","4","Filler","",""
"","","","","","fixation","95412","html-keyboard-response","37","89828","0.0-6.0-2.0","71","4","2022-11-17 12:24:56","fd252370c17a9971d68c1d4354a03c2e","","Mozilla/5.0 (Windows NT 10.0; Win64; x64) AppleWebKit/537.36 (KHTML, like Gecko) Chrome/107.0.0.0 Safari/537.36","WebKit","Chrome","107.0.0.0","Windows","10.0","null","null","","<p style=""font-size: 48px;"">+</p>","4","Filler","",""
"","","","","","picture","95412","image-keyboard-response","38","91037","0.0-6.0-3.0","71","4","2022-11-17 12:24:56","fd252370c17a9971d68c1d4354a03c2e","","Mozilla/5.0 (Windows NT 10.0; Win64; x64) AppleWebKit/537.36 (KHTML, like Gecko) Chrome/107.0.0.0 Safari/537.36","WebKit","Chrome","107.0.0.0","Windows","10.0","1203","s","","guitar.jpg","4","Filler","true",""
"","","","","","fixation","95412","html-keyboard-response","39","92043","0.0-6.0-0.1","71","4","2022-11-17 12:24:56","fd252370c17a9971d68c1d4354a03c2e","","Mozilla/5.0 (Windows NT 10.0; Win64; x64) AppleWebKit/537.36 (KHTML, like Gecko) Chrome/107.0.0.0 Safari/537.36","WebKit","Chrome","107.0.0.0","Windows","10.0","null","null","","<p style=""font-size: 48px;"">+</p>","4","Filler","",""
"","","","","","sentence","95412","html-keyboard-response","40","93206","0.0-6.0-1.1","71","4","2022-11-17 12:24:56","fd252370c17a9971d68c1d4354a03c2e","","Mozilla/5.0 (Windows NT 10.0; Win64; x64) AppleWebKit/537.36 (KHTML, like Gecko) Chrome/107.0.0.0 Safari/537.36","WebKit","Chrome","107.0.0.0","Windows","10.0","1159"," ","","A woman is paying with a debit card","4","Filler","",""
"","","","","","fixation","95412","html-keyboard-response","41","93715","0.0-6.0-2.1","71","4","2022-11-17 12:24:56","fd252370c17a9971d68c1d4354a03c2e","","Mozilla/5.0 (Windows NT 10.0; Win64; x64) AppleWebKit/537.36 (KHTML, like Gecko) Chrome/107.0.0.0 Safari/537.36","WebKit","Chrome","107.0.0.0","Windows","10.0","null","null","","<p style=""font-size: 48px;"">+</p>","4","Filler","",""
"","","","","","picture","95412","image-keyboard-response","42","94366","0.0-6.0-3.1","71","4","2022-11-17 12:24:56","fd252370c17a9971d68c1d4354a03c2e","","Mozilla/5.0 (Windows NT 10.0; Win64; x64) AppleWebKit/537.36 (KHTML, like Gecko) Chrome/107.0.0.0 Safari/537.36","WebKit","Chrome","107.0.0.0","Windows","10.0","645","n","","papercup.jpg","4","Filler","true",""
"","","","","","fixation","95412","html-keyboard-response","43","95379","0.0-6.0-0.2","71","4","2022-11-17 12:24:56","fd252370c17a9971d68c1d4354a03c2e","","Mozilla/5.0 (Windows NT 10.0; Win64; x64) AppleWebKit/537.36 (KHTML, like Gecko) Chrome/107.0.0.0 Safari/537.36","WebKit","Chrome","107.0.0.0","Windows","10.0","null","null","","<p style=""font-size: 48px;"">+</p>","4","Filler","",""
"","","","","","sentence","95412","html-keyboard-response","44","96126","0.0-6.0-1.2","71","4","2022-11-17 12:24:56","fd252370c17a9971d68c1d4354a03c2e","","Mozilla/5.0 (Windows NT 10.0; Win64; x64) AppleWebKit/537.36 (KHTML, like Gecko) Chrome/107.0.0.0 Safari/537.36","WebKit","Chrome","107.0.0.0","Windows","10.0","745"," ","","A cook is taking a knife","4","Filler","",""
"","","","","","fixation","95412","html-keyboard-response","45","96635","0.0-6.0-2.2","71","4","2022-11-17 12:24:56","fd252370c17a9971d68c1d4354a03c2e","","Mozilla/5.0 (Windows NT 10.0; Win64; x64) AppleWebKit/537.36 (KHTML, like Gecko) Chrome/107.0.0.0 Safari/537.36","WebKit","Chrome","107.0.0.0","Windows","10.0","null","null","","<p style=""font-size: 48px;"">+</p>","4","Filler","",""
"","","","","","picture","95412","image-keyboard-response","46","97448","0.0-6.0-3.2","71","4","2022-11-17 12:24:56","fd252370c17a9971d68c1d4354a03c2e","","Mozilla/5.0 (Windows NT 10.0; Win64; x64) AppleWebKit/537.36 (KHTML, like Gecko) Chrome/107.0.0.0 Safari/537.36","WebKit","Chrome","107.0.0.0","Windows","10.0","810","s","","knife.jpg","4","Filler","true",""
"","","","","","fixation","95412","html-keyboard-response","47","98459","0.0-6.0-0.3","71","4","2022-11-17 12:24:56","fd252370c17a9971d68c1d4354a03c2e","","Mozilla/5.0 (Windows NT 10.0; Win64; x64) AppleWebKit/537.36 (KHTML, like Gecko) Chrome/107.0.0.0 Safari/537.36","WebKit","Chrome","107.0.0.0","Windows","10.0","null","null","","<p style=""font-size: 48px;"">+</p>","4","Filler","",""
"","","","","","sentence","95412","html-keyboard-response","48","99957","0.0-6.0-1.3","71","4","2022-11-17 12:24:56","fd252370c17a9971d68c1d4354a03c2e","","Mozilla/5.0 (Windows NT 10.0; Win64; x64) AppleWebKit/537.36 (KHTML, like Gecko) Chrome/107.0.0.0 Safari/537.36","WebKit","Chrome","107.0.0.0","Windows","10.0","1492"," ","","A puppy is playing with a ball","4","Filler","",""
"","","","","","fixation","95412","html-keyboard-response","49","100467","0.0-6.0-2.3","71","4","2022-11-17 12:24:56","fd252370c17a9971d68c1d4354a03c2e","","Mozilla/5.0 (Windows NT 10.0; Win64; x64) AppleWebKit/537.36 (KHTML, like Gecko) Chrome/107.0.0.0 Safari/537.36","WebKit","Chrome","107.0.0.0","Windows","10.0","null","null","","<p style=""font-size: 48px;"">+</p>","4","Filler","",""
"","","","","","picture","95412","image-keyboard-response","50","101147","0.0-6.0-3.3","71","4","2022-11-17 12:24:56","fd252370c17a9971d68c1d4354a03c2e","","Mozilla/5.0 (Windows NT 10.0; Win64; x64) AppleWebKit/537.36 (KHTML, like Gecko) Chrome/107.0.0.0 Safari/537.36","WebKit","Chrome","107.0.0.0","Windows","10.0","677","s","","tennisball.jpg","4","Filler","true",""
"","","","","","fixation","95412","html-keyboard-response","51","102156","0.0-6.0-0.4","71","4","2022-11-17 12:24:56","fd252370c17a9971d68c1d4354a03c2e","","Mozilla/5.0 (Windows NT 10.0; Win64; x64) AppleWebKit/537.36 (KHTML, like Gecko) Chrome/107.0.0.0 Safari/537.36","WebKit","Chrome","107.0.0.0","Windows","10.0","null","null","","<p style=""font-size: 48px;"">+</p>","4","Filler","",""
"","","","","","sentence","95412","html-keyboard-response","52","104235","0.0-6.0-1.4","71","4","2022-11-17 12:24:56","fd252370c17a9971d68c1d4354a03c2e","","Mozilla/5.0 (Windows NT 10.0; Win64; x64) AppleWebKit/537.36 (KHTML, like Gecko) Chrome/107.0.0.0 Safari/537.36","WebKit","Chrome","107.0.0.0","Windows","10.0","2074"," ","","An actress is taking a microphone","4","Filler","",""
"","","","","","fixation","95412","html-keyboard-response","53","104740","0.0-6.0-2.4","71","4","2022-11-17 12:24:56","fd252370c17a9971d68c1d4354a03c2e","","Mozilla/5.0 (Windows NT 10.0; Win64; x64) AppleWebKit/537.36 (KHTML, like Gecko) Chrome/107.0.0.0 Safari/537.36","WebKit","Chrome","107.0.0.0","Windows","10.0","null","null","","<p style=""font-size: 48px;"">+</p>","4","Filler","",""
"","","","","","picture","95412","image-keyboard-response","54","105577","0.0-6.0-3.4","71","4","2022-11-17 12:24:56","fd252370c17a9971d68c1d4354a03c2e","","Mozilla/5.0 (Windows NT 10.0; Win64; x64) AppleWebKit/537.36 (KHTML, like Gecko) Chrome/107.0.0.0 Safari/537.36","WebKit","Chrome","107.0.0.0","Windows","10.0","830","n","","pants.jpg","4","Filler","true",""
"","","","","","fixation","95412","html-keyboard-response","55","106587","0.0-6.0-0.5","71","4","2022-11-17 12:24:56","fd252370c17a9971d68c1d4354a03c2e","","Mozilla/5.0 (Windows NT 10.0; Win64; x64) AppleWebKit/537.36 (KHTML, like Gecko) Chrome/107.0.0.0 Safari/537.36","WebKit","Chrome","107.0.0.0","Windows","10.0","null","null","","<p style=""font-size: 48px;"">+</p>","4","Filler","",""
"","","","","","sentence","95412","html-keyboard-response","56","107359","0.0-6.0-1.5","71","4","2022-11-17 12:24:56","fd252370c17a9971d68c1d4354a03c2e","","Mozilla/5.0 (Windows NT 10.0; Win64; x64) AppleWebKit/537.36 (KHTML, like Gecko) Chrome/107.0.0.0 Safari/537.36","WebKit","Chrome","107.0.0.0","Windows","10.0","766"," ","","A man is playing with a cat","4","Filler","",""
"","","","","","fixation","95412","html-keyboard-response","57","107874","0.0-6.0-2.5","71","4","2022-11-17 12:24:56","fd252370c17a9971d68c1d4354a03c2e","","Mozilla/5.0 (Windows NT 10.0; Win64; x64) AppleWebKit/537.36 (KHTML, like Gecko) Chrome/107.0.0.0 Safari/537.36","WebKit","Chrome","107.0.0.0","Windows","10.0","null","null","","<p style=""font-size: 48px;"">+</p>","4","Filler","",""
"","","","","","picture","95412","image-keyboard-response","58","108597","0.0-6.0-3.5","71","4","2022-11-17 12:24:56","fd252370c17a9971d68c1d4354a03c2e","","Mozilla/5.0 (Windows NT 10.0; Win64; x64) AppleWebKit/537.36 (KHTML, like Gecko) Chrome/107.0.0.0 Safari/537.36","WebKit","Chrome","107.0.0.0","Windows","10.0","715","n","","ceramicplate.jpg","4","Filler","true",""
"","","","","","fixation","95412","html-keyboard-response","59","109613","0.0-6.0-0.6","71","4","2022-11-17 12:24:56","fd252370c17a9971d68c1d4354a03c2e","","Mozilla/5.0 (Windows NT 10.0; Win64; x64) AppleWebKit/537.36 (KHTML, like Gecko) Chrome/107.0.0.0 Safari/537.36","WebKit","Chrome","107.0.0.0","Windows","10.0","null","null","","<p style=""font-size: 48px;"">+</p>","4","Light-Contradictory","",""
"","","","","","sentence","95412","html-keyboard-response","60","110649","0.0-6.0-1.6","71","4","2022-11-17 12:24:56","fd252370c17a9971d68c1d4354a03c2e","","Mozilla/5.0 (Windows NT 10.0; Win64; x64) AppleWebKit/537.36 (KHTML, like Gecko) Chrome/107.0.0.0 Safari/537.36","WebKit","Chrome","107.0.0.0","Windows","10.0","1030"," ","","A balloon dropped and smashed a donut","4","Light-Contradictory","",""
"","","","","","fixation","95412","html-keyboard-response","61","111156","0.0-6.0-2.6","71","4","2022-11-17 12:24:56","fd252370c17a9971d68c1d4354a03c2e","","Mozilla/5.0 (Windows NT 10.0; Win64; x64) AppleWebKit/537.36 (KHTML, like Gecko) Chrome/107.0.0.0 Safari/537.36","WebKit","Chrome","107.0.0.0","Windows","10.0","null","null","","<p style=""font-size: 48px;"">+</p>","4","Light-Contradictory","",""
"","","","","","picture","95412","image-keyboard-response","62","112017","0.0-6.0-3.6","71","4","2022-11-17 12:24:56","fd252370c17a9971d68c1d4354a03c2e","","Mozilla/5.0 (Windows NT 10.0; Win64; x64) AppleWebKit/537.36 (KHTML, like Gecko) Chrome/107.0.0.0 Safari/537.36","WebKit","Chrome","107.0.0.0","Windows","10.0","855","s","","donutS.jpg","4","Light-Contradictory","true",""
"","","","","","fixation","95412","html-keyboard-response","63","113028","0.0-6.0-0.7","71","4","2022-11-17 12:24:56","fd252370c17a9971d68c1d4354a03c2e","","Mozilla/5.0 (Windows NT 10.0; Win64; x64) AppleWebKit/537.36 (KHTML, like Gecko) Chrome/107.0.0.0 Safari/537.36","WebKit","Chrome","107.0.0.0","Windows","10.0","null","null","","<p style=""font-size: 48px;"">+</p>","4","Filler","",""
"","","","","","sentence","95412","html-keyboard-response","64","113989","0.0-6.0-1.7","71","4","2022-11-17 12:24:56","fd252370c17a9971d68c1d4354a03c2e","","Mozilla/5.0 (Windows NT 10.0; Win64; x64) AppleWebKit/537.36 (KHTML, like Gecko) Chrome/107.0.0.0 Safari/537.36","WebKit","Chrome","107.0.0.0","Windows","10.0","956"," ","","An elephant is eating a watermelon","4","Filler","",""
"","","","","","fixation","95412","html-keyboard-response","65","114500","0.0-6.0-2.7","71","4","2022-11-17 12:24:56","fd252370c17a9971d68c1d4354a03c2e","","Mozilla/5.0 (Windows NT 10.0; Win64; x64) AppleWebKit/537.36 (KHTML, like Gecko) Chrome/107.0.0.0 Safari/537.36","WebKit","Chrome","107.0.0.0","Windows","10.0","null","null","","<p style=""font-size: 48px;"">+</p>","4","Filler","",""
"","","","","","picture","95412","image-keyboard-response","66","115319","0.0-6.0-3.7","71","4","2022-11-17 12:24:56","fd252370c17a9971d68c1d4354a03c2e","","Mozilla/5.0 (Windows NT 10.0; Win64; x64) AppleWebKit/537.36 (KHTML, like Gecko) Chrome/107.0.0.0 Safari/537.36","WebKit","Chrome","107.0.0.0","Windows","10.0","812","s","","watermelon.jpg","4","Filler","true",""
"","","","","","fixation","95412","html-keyboard-response","67","116331","0.0-6.0-0.8","71","4","2022-11-17 12:24:56","fd252370c17a9971d68c1d4354a03c2e","","Mozilla/5.0 (Windows NT 10.0; Win64; x64) AppleWebKit/537.36 (KHTML, like Gecko) Chrome/107.0.0.0 Safari/537.36","WebKit","Chrome","107.0.0.0","Windows","10.0","null","null","","<p style=""font-size: 48px;"">+</p>","4","Light-Contradictory","",""
"","","","","","sentence","95412","html-keyboard-response","68","117368","0.0-6.0-1.8","71","4","2022-11-17 12:24:56","fd252370c17a9971d68c1d4354a03c2e","","Mozilla/5.0 (Windows NT 10.0; Win64; x64) AppleWebKit/537.36 (KHTML, like Gecko) Chrome/107.0.0.0 Safari/537.36","WebKit","Chrome","107.0.0.0","Windows","10.0","1031"," ","","A balloon dropped and smashed a mirror","4","Light-Contradictory","",""
"","","","","","fixation","95412","html-keyboard-response","69","117876","0.0-6.0-2.8","71","4","2022-11-17 12:24:56","fd252370c17a9971d68c1d4354a03c2e","","Mozilla/5.0 (Windows NT 10.0; Win64; x64) AppleWebKit/537.36 (KHTML, like Gecko) Chrome/107.0.0.0 Safari/537.36","WebKit","Chrome","107.0.0.0","Windows","10.0","null","null","","<p style=""font-size: 48px;"">+</p>","4","Light-Contradictory","",""
"","","","","","picture","95412","image-keyboard-response","70","118609","0.0-6.0-3.8","71","4","2022-11-17 12:24:56","fd252370c17a9971d68c1d4354a03c2e","","Mozilla/5.0 (Windows NT 10.0; Win64; x64) AppleWebKit/537.36 (KHTML, like Gecko) Chrome/107.0.0.0 Safari/537.36","WebKit","Chrome","107.0.0.0","Windows","10.0","723","s","","mirrorS.jpg","4","Light-Contradictory","true",""
"","","","","","fixation","95412","html-keyboard-response","71","119619","0.0-6.0-0.9","71","4","2022-11-17 12:24:56","fd252370c17a9971d68c1d4354a03c2e","","Mozilla/5.0 (Windows NT 10.0; Win64; x64) AppleWebKit/537.36 (KHTML, like Gecko) Chrome/107.0.0.0 Safari/537.36","WebKit","Chrome","107.0.0.0","Windows","10.0","null","null","","<p style=""font-size: 48px;"">+</p>","4","Filler","",""
"","","","","","sentence","95412","html-keyboard-response","72","120718","0.0-6.0-1.9","71","4","2022-11-17 12:24:56","fd252370c17a9971d68c1d4354a03c2e","","Mozilla/5.0 (Windows NT 10.0; Win64; x64) AppleWebKit/537.36 (KHTML, like Gecko) Chrome/107.0.0.0 Safari/537.36","WebKit","Chrome","107.0.0.0","Windows","10.0","1093"," ","","A butterfly is sitting on a flower","4","Filler","",""
"","","","","","fixation","95412","html-keyboard-response","73","121228","0.0-6.0-2.9","71","4","2022-11-17 12:24:56","fd252370c17a9971d68c1d4354a03c2e","","Mozilla/5.0 (Windows NT 10.0; Win64; x64) AppleWebKit/537.36 (KHTML, like Gecko) Chrome/107.0.0.0 Safari/537.36","WebKit","Chrome","107.0.0.0","Windows","10.0","null","null","","<p style=""font-size: 48px;"">+</p>","4","Filler","",""
"","","","","","picture","95412","image-keyboard-response","74","121938","0.0-6.0-3.9","71","4","2022-11-17 12:24:56","fd252370c17a9971d68c1d4354a03c2e","","Mozilla/5.0 (Windows NT 10.0; Win64; x64) AppleWebKit/537.36 (KHTML, like Gecko) Chrome/107.0.0.0 Safari/537.36","WebKit","Chrome","107.0.0.0","Windows","10.0","703","n","","soap.jpg","4","Filler","true",""
"","","","","","fixation","95412","html-keyboard-response","75","122956","0.0-6.0-0.10","71","4","2022-11-17 12:24:56","fd252370c17a9971d68c1d4354a03c2e","","Mozilla/5.0 (Windows NT 10.0; Win64; x64) AppleWebKit/537.36 (KHTML, like Gecko) Chrome/107.0.0.0 Safari/537.36","WebKit","Chrome","107.0.0.0","Windows","10.0","null","null","","<p style=""font-size: 48px;"">+</p>","4","Light-Contradictory","",""
"","","","","","sentence","95412","html-keyboard-response","76","124079","0.0-6.0-1.10","71","4","2022-11-17 12:24:56","fd252370c17a9971d68c1d4354a03c2e","","Mozilla/5.0 (Windows NT 10.0; Win64; x64) AppleWebKit/537.36 (KHTML, like Gecko) Chrome/107.0.0.0 Safari/537.36","WebKit","Chrome","107.0.0.0","Windows","10.0","1116"," ","","A balloon dropped and smashed a light bulb","4","Light-Contradictory","",""
"","","","","","fixation","95412","html-keyboard-response","77","124588","0.0-6.0-2.10","71","4","2022-11-17 12:24:56","fd252370c17a9971d68c1d4354a03c2e","","Mozilla/5.0 (Windows NT 10.0; Win64; x64) AppleWebKit/537.36 (KHTML, like Gecko) Chrome/107.0.0.0 Safari/537.36","WebKit","Chrome","107.0.0.0","Windows","10.0","null","null","","<p style=""font-size: 48px;"">+</p>","4","Light-Contradictory","",""
"","","","","","picture","95412","image-keyboard-response","78","125258","0.0-6.0-3.10","71","4","2022-11-17 12:24:56","fd252370c17a9971d68c1d4354a03c2e","","Mozilla/5.0 (Windows NT 10.0; Win64; x64) AppleWebKit/537.36 (KHTML, like Gecko) Chrome/107.0.0.0 Safari/537.36","WebKit","Chrome","107.0.0.0","Windows","10.0","660","s","","lampS.jpg","4","Light-Contradictory","true",""
"","","","","","fixation","95412","html-keyboard-response","79","126269","0.0-6.0-0.11","71","4","2022-11-17 12:24:56","fd252370c17a9971d68c1d4354a03c2e","","Mozilla/5.0 (Windows NT 10.0; Win64; x64) AppleWebKit/537.36 (KHTML, like Gecko) Chrome/107.0.0.0 Safari/537.36","WebKit","Chrome","107.0.0.0","Windows","10.0","null","null","","<p style=""font-size: 48px;"">+</p>","4","Filler","",""
"","","","","","sentence","95412","html-keyboard-response","80","127159","0.0-6.0-1.11","71","4","2022-11-17 12:24:56","fd252370c17a9971d68c1d4354a03c2e","","Mozilla/5.0 (Windows NT 10.0; Win64; x64) AppleWebKit/537.36 (KHTML, like Gecko) Chrome/107.0.0.0 Safari/537.36","WebKit","Chrome","107.0.0.0","Windows","10.0","885"," ","","A parrot is eating an apple","4","Filler","",""
"","","","","","fixation","95412","html-keyboard-response","81","127666","0.0-6.0-2.11","71","4","2022-11-17 12:24:56","fd252370c17a9971d68c1d4354a03c2e","","Mozilla/5.0 (Windows NT 10.0; Win64; x64) AppleWebKit/537.36 (KHTML, like Gecko) Chrome/107.0.0.0 Safari/537.36","WebKit","Chrome","107.0.0.0","Windows","10.0","null","null","","<p style=""font-size: 48px;"">+</p>","4","Filler","",""
"","","","","","picture","95412","image-keyboard-response","82","128439","0.0-6.0-3.11","71","4","2022-11-17 12:24:56","fd252370c17a9971d68c1d4354a03c2e","","Mozilla/5.0 (Windows NT 10.0; Win64; x64) AppleWebKit/537.36 (KHTML, like Gecko) Chrome/107.0.0.0 Safari/537.36","WebKit","Chrome","107.0.0.0","Windows","10.0","768","n","","shirt.jpg","4","Filler","true",""
"","","","","","fixation","95412","html-keyboard-response","83","129451","0.0-6.0-0.12","71","4","2022-11-17 12:24:56","fd252370c17a9971d68c1d4354a03c2e","","Mozilla/5.0 (Windows NT 10.0; Win64; x64) AppleWebKit/537.36 (KHTML, like Gecko) Chrome/107.0.0.0 Safari/537.36","WebKit","Chrome","107.0.0.0","Windows","10.0","null","null","","<p style=""font-size: 48px;"">+</p>","4","Heavy-Matched","",""
"","","","","","sentence","95412","html-keyboard-response","84","131649","0.0-6.0-1.12","71","4","2022-11-17 12:24:56","fd252370c17a9971d68c1d4354a03c2e","","Mozilla/5.0 (Windows NT 10.0; Win64; x64) AppleWebKit/537.36 (KHTML, like Gecko) Chrome/107.0.0.0 Safari/537.36","WebKit","Chrome","107.0.0.0","Windows","10.0","2192"," ","","A bowling ball  dropped and smashed a ceramic plate","4","Heavy-Matched","",""
"","","","","","fixation","95412","html-keyboard-response","85","132155","0.0-6.0-2.12","71","4","2022-11-17 12:24:56","fd252370c17a9971d68c1d4354a03c2e","","Mozilla/5.0 (Windows NT 10.0; Win64; x64) AppleWebKit/537.36 (KHTML, like Gecko) Chrome/107.0.0.0 Safari/537.36","WebKit","Chrome","107.0.0.0","Windows","10.0","null","null","","<p style=""font-size: 48px;"">+</p>","4","Heavy-Matched","",""
"","","","","","picture","95412","image-keyboard-response","86","132869","0.0-6.0-3.12","71","4","2022-11-17 12:24:56","fd252370c17a9971d68c1d4354a03c2e","","Mozilla/5.0 (Windows NT 10.0; Win64; x64) AppleWebKit/537.36 (KHTML, like Gecko) Chrome/107.0.0.0 Safari/537.36","WebKit","Chrome","107.0.0.0","Windows","10.0","705","s","","plateS.jpg","4","Heavy-Matched","true",""
"","","","","","fixation","95412","html-keyboard-response","87","133875","0.0-6.0-0.13","71","4","2022-11-17 12:24:56","fd252370c17a9971d68c1d4354a03c2e","","Mozilla/5.0 (Windows NT 10.0; Win64; x64) AppleWebKit/537.36 (KHTML, like Gecko) Chrome/107.0.0.0 Safari/537.36","WebKit","Chrome","107.0.0.0","Windows","10.0","null","null","","<p style=""font-size: 48px;"">+</p>","4","Filler","",""
"","","","","","sentence","95412","html-keyboard-response","88","134918","0.0-6.0-1.13","71","4","2022-11-17 12:24:56","fd252370c17a9971d68c1d4354a03c2e","","Mozilla/5.0 (Windows NT 10.0; Win64; x64) AppleWebKit/537.36 (KHTML, like Gecko) Chrome/107.0.0.0 Safari/537.36","WebKit","Chrome","107.0.0.0","Windows","10.0","1036"," ","","A woman is taking money out of a wallet","4","Filler","",""
"","","","","","fixation","95412","html-keyboard-response","89","135428","0.0-6.0-2.13","71","4","2022-11-17 12:24:56","fd252370c17a9971d68c1d4354a03c2e","","Mozilla/5.0 (Windows NT 10.0; Win64; x64) AppleWebKit/537.36 (KHTML, like Gecko) Chrome/107.0.0.0 Safari/537.36","WebKit","Chrome","107.0.0.0","Windows","10.0","null","null","","<p style=""font-size: 48px;"">+</p>","4","Filler","",""
"","","","","","picture","95412","image-keyboard-response","90","135999","0.0-6.0-3.13","71","4","2022-11-17 12:24:56","fd252370c17a9971d68c1d4354a03c2e","","Mozilla/5.0 (Windows NT 10.0; Win64; x64) AppleWebKit/537.36 (KHTML, like Gecko) Chrome/107.0.0.0 Safari/537.36","WebKit","Chrome","107.0.0.0","Windows","10.0","560","n","","coconut.jpg","4","Filler","true",""
"","","","","","fixation","95412","html-keyboard-response","91","137012","0.0-6.0-0.14","71","4","2022-11-17 12:24:56","fd252370c17a9971d68c1d4354a03c2e","","Mozilla/5.0 (Windows NT 10.0; Win64; x64) AppleWebKit/537.36 (KHTML, like Gecko) Chrome/107.0.0.0 Safari/537.36","WebKit","Chrome","107.0.0.0","Windows","10.0","null","null","","<p style=""font-size: 48px;"">+</p>","4","Heavy-Matched","",""
"","","","","","sentence","95412","html-keyboard-response","92","138218","0.0-6.0-1.14","71","4","2022-11-17 12:24:56","fd252370c17a9971d68c1d4354a03c2e","","Mozilla/5.0 (Windows NT 10.0; Win64; x64) AppleWebKit/537.36 (KHTML, like Gecko) Chrome/107.0.0.0 Safari/537.36","WebKit","Chrome","107.0.0.0","Windows","10.0","1199"," ","","A bowling ball dropped and smashed a piece of sushi","4","Heavy-Matched","",""
"","","","","","fixation","95412","html-keyboard-response","93","138731","0.0-6.0-2.14","71","4","2022-11-17 12:24:56","fd252370c17a9971d68c1d4354a03c2e","","Mozilla/5.0 (Windows NT 10.0; Win64; x64) AppleWebKit/537.36 (KHTML, like Gecko) Chrome/107.0.0.0 Safari/537.36","WebKit","Chrome","107.0.0.0","Windows","10.0","null","null","","<p style=""font-size: 48px;"">+</p>","4","Heavy-Matched","",""
"","","","","","picture","95412","image-keyboard-response","94","139709","0.0-6.0-3.14","71","4","2022-11-17 12:24:56","fd252370c17a9971d68c1d4354a03c2e","","Mozilla/5.0 (Windows NT 10.0; Win64; x64) AppleWebKit/537.36 (KHTML, like Gecko) Chrome/107.0.0.0 Safari/537.36","WebKit","Chrome","107.0.0.0","Windows","10.0","971","s","","sushiS.jpg","4","Heavy-Matched","true",""
"","","","","","fixation","95412","html-keyboard-response","95","140715","0.0-6.0-0.15","71","4","2022-11-17 12:24:56","fd252370c17a9971d68c1d4354a03c2e","","Mozilla/5.0 (Windows NT 10.0; Win64; x64) AppleWebKit/537.36 (KHTML, like Gecko) Chrome/107.0.0.0 Safari/537.36","WebKit","Chrome","107.0.0.0","Windows","10.0","null","null","","<p style=""font-size: 48px;"">+</p>","4","Heavy-Contradictory","",""
"","","","","","sentence","95412","html-keyboard-response","96","141849","0.0-6.0-1.15","71","4","2022-11-17 12:24:56","fd252370c17a9971d68c1d4354a03c2e","","Mozilla/5.0 (Windows NT 10.0; Win64; x64) AppleWebKit/537.36 (KHTML, like Gecko) Chrome/107.0.0.0 Safari/537.36","WebKit","Chrome","107.0.0.0","Windows","10.0","1128"," ","","A bowling ball dropped and touched a cracker","4","Heavy-Contradictory","",""
"","","","","","fixation","95412","html-keyboard-response","97","142364","0.0-6.0-2.15","71","4","2022-11-17 12:24:56","fd252370c17a9971d68c1d4354a03c2e","","Mozilla/5.0 (Windows NT 10.0; Win64; x64) AppleWebKit/537.36 (KHTML, like Gecko) Chrome/107.0.0.0 Safari/537.36","WebKit","Chrome","107.0.0.0","Windows","10.0","null","null","","<p style=""font-size: 48px;"">+</p>","4","Heavy-Contradictory","",""
"","","","","","picture","95412","image-keyboard-response","98","143119","0.0-6.0-3.15","71","4","2022-11-17 12:24:56","fd252370c17a9971d68c1d4354a03c2e","","Mozilla/5.0 (Windows NT 10.0; Win64; x64) AppleWebKit/537.36 (KHTML, like Gecko) Chrome/107.0.0.0 Safari/537.36","WebKit","Chrome","107.0.0.0","Windows","10.0","747","s","","crackerS.jpg","4","Heavy-Contradictory","true",""
"","","","","","fixation","95412","html-keyboard-response","99","144132","0.0-6.0-0.16","71","4","2022-11-17 12:24:56","fd252370c17a9971d68c1d4354a03c2e","","Mozilla/5.0 (Windows NT 10.0; Win64; x64) AppleWebKit/537.36 (KHTML, like Gecko) Chrome/107.0.0.0 Safari/537.36","WebKit","Chrome","107.0.0.0","Windows","10.0","null","null","","<p style=""font-size: 48px;"">+</p>","4","Filler","",""
"","","","","","sentence","95412","html-keyboard-response","100","145168","0.0-6.0-1.16","71","4","2022-11-17 12:24:56","fd252370c17a9971d68c1d4354a03c2e","","Mozilla/5.0 (Windows NT 10.0; Win64; x64) AppleWebKit/537.36 (KHTML, like Gecko) Chrome/107.0.0.0 Safari/537.36","WebKit","Chrome","107.0.0.0","Windows","10.0","1030"," ","","A police officer is talking on the phone","4","Filler","",""
"","","","","","fixation","95412","html-keyboard-response","101","145676","0.0-6.0-2.16","71","4","2022-11-17 12:24:56","fd252370c17a9971d68c1d4354a03c2e","","Mozilla/5.0 (Windows NT 10.0; Win64; x64) AppleWebKit/537.36 (KHTML, like Gecko) Chrome/107.0.0.0 Safari/537.36","WebKit","Chrome","107.0.0.0","Windows","10.0","null","null","","<p style=""font-size: 48px;"">+</p>","4","Filler","",""
"","","","","","picture","95412","image-keyboard-response","102","146389","0.0-6.0-3.16","71","4","2022-11-17 12:24:56","fd252370c17a9971d68c1d4354a03c2e","","Mozilla/5.0 (Windows NT 10.0; Win64; x64) AppleWebKit/537.36 (KHTML, like Gecko) Chrome/107.0.0.0 Safari/537.36","WebKit","Chrome","107.0.0.0","Windows","10.0","703","n","","tissuebox.jpg","4","Filler","true",""
"","","","","","fixation","95412","html-keyboard-response","103","147396","0.0-6.0-0.17","71","4","2022-11-17 12:24:56","fd252370c17a9971d68c1d4354a03c2e","","Mozilla/5.0 (Windows NT 10.0; Win64; x64) AppleWebKit/537.36 (KHTML, like Gecko) Chrome/107.0.0.0 Safari/537.36","WebKit","Chrome","107.0.0.0","Windows","10.0","null","null","","<p style=""font-size: 48px;"">+</p>","4","Heavy-Matched","",""
"","","","","","sentence","95412","html-keyboard-response","104","148199","0.0-6.0-1.17","71","4","2022-11-17 12:24:56","fd252370c17a9971d68c1d4354a03c2e","","Mozilla/5.0 (Windows NT 10.0; Win64; x64) AppleWebKit/537.36 (KHTML, like Gecko) Chrome/107.0.0.0 Safari/537.36","WebKit","Chrome","107.0.0.0","Windows","10.0","796"," ","","A bowling ball  dropped and smashed a tomato","4","Heavy-Matched","",""
"","","","","","fixation","95412","html-keyboard-response","105","148715","0.0-6.0-2.17","71","4","2022-11-17 12:24:56","fd252370c17a9971d68c1d4354a03c2e","","Mozilla/5.0 (Windows NT 10.0; Win64; x64) AppleWebKit/537.36 (KHTML, like Gecko) Chrome/107.0.0.0 Safari/537.36","WebKit","Chrome","107.0.0.0","Windows","10.0","null","null","","<p style=""font-size: 48px;"">+</p>","4","Heavy-Matched","",""
"","","","","","picture","95412","image-keyboard-response","106","149309","0.0-6.0-3.17","71","4","2022-11-17 12:24:56","fd252370c17a9971d68c1d4354a03c2e","","Mozilla/5.0 (Windows NT 10.0; Win64; x64) AppleWebKit/537.36 (KHTML, like Gecko) Chrome/107.0.0.0 Safari/537.36","WebKit","Chrome","107.0.0.0","Windows","10.0","587","s","","tomatoS.jpg","4","Heavy-Matched","true",""
"","","","","","fixation","95412","html-keyboard-response","107","150323","0.0-6.0-0.18","71","4","2022-11-17 12:24:56","fd252370c17a9971d68c1d4354a03c2e","","Mozilla/5.0 (Windows NT 10.0; Win64; x64) AppleWebKit/537.36 (KHTML, like Gecko) Chrome/107.0.0.0 Safari/537.36","WebKit","Chrome","107.0.0.0","Windows","10.0","null","null","","<p style=""font-size: 48px;"">+</p>","4","Filler","",""
"","","","","","sentence","95412","html-keyboard-response","108","151219","0.0-6.0-1.18","71","4","2022-11-17 12:24:56","fd252370c17a9971d68c1d4354a03c2e","","Mozilla/5.0 (Windows NT 10.0; Win64; x64) AppleWebKit/537.36 (KHTML, like Gecko) Chrome/107.0.0.0 Safari/537.36","WebKit","Chrome","107.0.0.0","Windows","10.0","890"," ","","A photographer is taking a photo of a lion","4","Filler","",""
"","","","","","fixation","95412","html-keyboard-response","109","151725","0.0-6.0-2.18","71","4","2022-11-17 12:24:56","fd252370c17a9971d68c1d4354a03c2e","","Mozilla/5.0 (Windows NT 10.0; Win64; x64) AppleWebKit/537.36 (KHTML, like Gecko) Chrome/107.0.0.0 Safari/537.36","WebKit","Chrome","107.0.0.0","Windows","10.0","null","null","","<p style=""font-size: 48px;"">+</p>","4","Filler","",""
"","","","","","picture","95412","image-keyboard-response","110","152308","0.0-6.0-3.18","71","4","2022-11-17 12:24:56","fd252370c17a9971d68c1d4354a03c2e","","Mozilla/5.0 (Windows NT 10.0; Win64; x64) AppleWebKit/537.36 (KHTML, like Gecko) Chrome/107.0.0.0 Safari/537.36","WebKit","Chrome","107.0.0.0","Windows","10.0","575","s","","lion.jpg","4","Filler","true",""
"","","","","","fixation","95412","html-keyboard-response","111","153316","0.0-6.0-0.19","71","4","2022-11-17 12:24:56","fd252370c17a9971d68c1d4354a03c2e","","Mozilla/5.0 (Windows NT 10.0; Win64; x64) AppleWebKit/537.36 (KHTML, like Gecko) Chrome/107.0.0.0 Safari/537.36","WebKit","Chrome","107.0.0.0","Windows","10.0","null","null","","<p style=""font-size: 48px;"">+</p>","4","Heavy-Contradictory","",""
"","","","","","sentence","95412","html-keyboard-response","112","154319","0.0-6.0-1.19","71","4","2022-11-17 12:24:56","fd252370c17a9971d68c1d4354a03c2e","","Mozilla/5.0 (Windows NT 10.0; Win64; x64) AppleWebKit/537.36 (KHTML, like Gecko) Chrome/107.0.0.0 Safari/537.36","WebKit","Chrome","107.0.0.0","Windows","10.0","992"," ","","A bowling ball dropped and touched an egg","4","Heavy-Contradictory","",""
"","","","","","fixation","95412","html-keyboard-response","113","154827","0.0-6.0-2.19","71","4","2022-11-17 12:24:56","fd252370c17a9971d68c1d4354a03c2e","","Mozilla/5.0 (Windows NT 10.0; Win64; x64) AppleWebKit/537.36 (KHTML, like Gecko) Chrome/107.0.0.0 Safari/537.36","WebKit","Chrome","107.0.0.0","Windows","10.0","null","null","","<p style=""font-size: 48px;"">+</p>","4","Heavy-Contradictory","",""
"","","","","","picture","95412","image-keyboard-response","114","155428","0.0-6.0-3.19","71","4","2022-11-17 12:24:56","fd252370c17a9971d68c1d4354a03c2e","","Mozilla/5.0 (Windows NT 10.0; Win64; x64) AppleWebKit/537.36 (KHTML, like Gecko) Chrome/107.0.0.0 Safari/537.36","WebKit","Chrome","107.0.0.0","Windows","10.0","594","s","","eggS.jpg","4","Heavy-Contradictory","true",""
"","","","","","fixation","95412","html-keyboard-response","115","156444","0.0-6.0-0.20","71","4","2022-11-17 12:24:56","fd252370c17a9971d68c1d4354a03c2e","","Mozilla/5.0 (Windows NT 10.0; Win64; x64) AppleWebKit/537.36 (KHTML, like Gecko) Chrome/107.0.0.0 Safari/537.36","WebKit","Chrome","107.0.0.0","Windows","10.0","null","null","","<p style=""font-size: 48px;"">+</p>","4","Light-Contradictory","",""
"","","","","","sentence","95412","html-keyboard-response","116","157287","0.0-6.0-1.20","71","4","2022-11-17 12:24:56","fd252370c17a9971d68c1d4354a03c2e","","Mozilla/5.0 (Windows NT 10.0; Win64; x64) AppleWebKit/537.36 (KHTML, like Gecko) Chrome/107.0.0.0 Safari/537.36","WebKit","Chrome","107.0.0.0","Windows","10.0","835"," ","","A balloon dropped and smashed an iPhone","4","Light-Contradictory","",""
"","","","","","fixation","95412","html-keyboard-response","117","157795","0.0-6.0-2.20","71","4","2022-11-17 12:24:56","fd252370c17a9971d68c1d4354a03c2e","","Mozilla/5.0 (Windows NT 10.0; Win64; x64) AppleWebKit/537.36 (KHTML, like Gecko) Chrome/107.0.0.0 Safari/537.36","WebKit","Chrome","107.0.0.0","Windows","10.0","null","null","","<p style=""font-size: 48px;"">+</p>","4","Light-Contradictory","",""
"","","","","","picture","95412","image-keyboard-response","118","158487","0.0-6.0-3.20","71","4","2022-11-17 12:24:56","fd252370c17a9971d68c1d4354a03c2e","","Mozilla/5.0 (Windows NT 10.0; Win64; x64) AppleWebKit/537.36 (KHTML, like Gecko) Chrome/107.0.0.0 Safari/537.36","WebKit","Chrome","107.0.0.0","Windows","10.0","685","s","","iphoneS.png","4","Light-Contradictory","true",""
"","","","","","fixation","95412","html-keyboard-response","119","159492","0.0-6.0-0.21","71","4","2022-11-17 12:24:56","fd252370c17a9971d68c1d4354a03c2e","","Mozilla/5.0 (Windows NT 10.0; Win64; x64) AppleWebKit/537.36 (KHTML, like Gecko) Chrome/107.0.0.0 Safari/537.36","WebKit","Chrome","107.0.0.0","Windows","10.0","null","null","","<p style=""font-size: 48px;"">+</p>","4","Filler","",""
"","","","","","sentence","95412","html-keyboard-response","120","160358","0.0-6.0-1.21","71","4","2022-11-17 12:24:56","fd252370c17a9971d68c1d4354a03c2e","","Mozilla/5.0 (Windows NT 10.0; Win64; x64) AppleWebKit/537.36 (KHTML, like Gecko) Chrome/107.0.0.0 Safari/537.36","WebKit","Chrome","107.0.0.0","Windows","10.0","857"," ","","A zebra is playing with a horse","4","Filler","",""
"","","","","","fixation","95412","html-keyboard-response","121","160867","0.0-6.0-2.21","71","4","2022-11-17 12:24:56","fd252370c17a9971d68c1d4354a03c2e","","Mozilla/5.0 (Windows NT 10.0; Win64; x64) AppleWebKit/537.36 (KHTML, like Gecko) Chrome/107.0.0.0 Safari/537.36","WebKit","Chrome","107.0.0.0","Windows","10.0","null","null","","<p style=""font-size: 48px;"">+</p>","4","Filler","",""
"","","","","","picture","95412","image-keyboard-response","122","161499","0.0-6.0-3.21","71","4","2022-11-17 12:24:56","fd252370c17a9971d68c1d4354a03c2e","","Mozilla/5.0 (Windows NT 10.0; Win64; x64) AppleWebKit/537.36 (KHTML, like Gecko) Chrome/107.0.0.0 Safari/537.36","WebKit","Chrome","107.0.0.0","Windows","10.0","624","n","","watch.jpg","4","Filler","true",""
"","","","","","fixation","95412","html-keyboard-response","123","162509","0.0-6.0-0.22","71","4","2022-11-17 12:24:56","fd252370c17a9971d68c1d4354a03c2e","","Mozilla/5.0 (Windows NT 10.0; Win64; x64) AppleWebKit/537.36 (KHTML, like Gecko) Chrome/107.0.0.0 Safari/537.36","WebKit","Chrome","107.0.0.0","Windows","10.0","null","null","","<p style=""font-size: 48px;"">+</p>","4","Filler","",""
"","","","","","sentence","95412","html-keyboard-response","124","163409","0.0-6.0-1.22","71","4","2022-11-17 12:24:56","fd252370c17a9971d68c1d4354a03c2e","","Mozilla/5.0 (Windows NT 10.0; Win64; x64) AppleWebKit/537.36 (KHTML, like Gecko) Chrome/107.0.0.0 Safari/537.36","WebKit","Chrome","107.0.0.0","Windows","10.0","894"," ","","A panda is resting on a tree","4","Filler","",""
"","","","","","fixation","95412","html-keyboard-response","125","163923","0.0-6.0-2.22","71","4","2022-11-17 12:24:56","fd252370c17a9971d68c1d4354a03c2e","","Mozilla/5.0 (Windows NT 10.0; Win64; x64) AppleWebKit/537.36 (KHTML, like Gecko) Chrome/107.0.0.0 Safari/537.36","WebKit","Chrome","107.0.0.0","Windows","10.0","null","null","","<p style=""font-size: 48px;"">+</p>","4","Filler","",""
"","","","","","picture","95412","image-keyboard-response","126","164509","0.0-6.0-3.22","71","4","2022-11-17 12:24:56","fd252370c17a9971d68c1d4354a03c2e","","Mozilla/5.0 (Windows NT 10.0; Win64; x64) AppleWebKit/537.36 (KHTML, like Gecko) Chrome/107.0.0.0 Safari/537.36","WebKit","Chrome","107.0.0.0","Windows","10.0","579","n","","dollar.jpg","4","Filler","true",""
"","","","","","fixation","95412","html-keyboard-response","127","165524","0.0-6.0-0.23","71","4","2022-11-17 12:24:56","fd252370c17a9971d68c1d4354a03c2e","","Mozilla/5.0 (Windows NT 10.0; Win64; x64) AppleWebKit/537.36 (KHTML, like Gecko) Chrome/107.0.0.0 Safari/537.36","WebKit","Chrome","107.0.0.0","Windows","10.0","null","null","","<p style=""font-size: 48px;"">+</p>","4","Filler","",""
"","","","","","sentence","95412","html-keyboard-response","128","166369","0.0-6.0-1.23","71","4","2022-11-17 12:24:56","fd252370c17a9971d68c1d4354a03c2e","","Mozilla/5.0 (Windows NT 10.0; Win64; x64) AppleWebKit/537.36 (KHTML, like Gecko) Chrome/107.0.0.0 Safari/537.36","WebKit","Chrome","107.0.0.0","Windows","10.0","836"," ","","An old man is hammering a nail","4","Filler","",""
"","","","","","fixation","95412","html-keyboard-response","129","166884","0.0-6.0-2.23","71","4","2022-11-17 12:24:56","fd252370c17a9971d68c1d4354a03c2e","","Mozilla/5.0 (Windows NT 10.0; Win64; x64) AppleWebKit/537.36 (KHTML, like Gecko) Chrome/107.0.0.0 Safari/537.36","WebKit","Chrome","107.0.0.0","Windows","10.0","null","null","","<p style=""font-size: 48px;"">+</p>","4","Filler","",""
"","","","","","picture","95412","image-keyboard-response","130","167477","0.0-6.0-3.23","71","4","2022-11-17 12:24:56","fd252370c17a9971d68c1d4354a03c2e","","Mozilla/5.0 (Windows NT 10.0; Win64; x64) AppleWebKit/537.36 (KHTML, like Gecko) Chrome/107.0.0.0 Safari/537.36","WebKit","Chrome","107.0.0.0","Windows","10.0","586","s","","nail.jpg","4","Filler","true",""
"","","","","","fixation","95412","html-keyboard-response","131","168484","0.0-6.0-0.24","71","4","2022-11-17 12:24:56","fd252370c17a9971d68c1d4354a03c2e","","Mozilla/5.0 (Windows NT 10.0; Win64; x64) AppleWebKit/537.36 (KHTML, like Gecko) Chrome/107.0.0.0 Safari/537.36","WebKit","Chrome","107.0.0.0","Windows","10.0","null","null","","<p style=""font-size: 48px;"">+</p>","4","Light-Matched","",""
"","","","","","sentence","95412","html-keyboard-response","132","169009","0.0-6.0-1.24","71","4","2022-11-17 12:24:56","fd252370c17a9971d68c1d4354a03c2e","","Mozilla/5.0 (Windows NT 10.0; Win64; x64) AppleWebKit/537.36 (KHTML, like Gecko) Chrome/107.0.0.0 Safari/537.36","WebKit","Chrome","107.0.0.0","Windows","10.0","517"," ","","A balloon dropped and touched glasses","4","Light-Matched","",""
"","","","","","fixation","95412","html-keyboard-response","133","169524","0.0-6.0-2.24","71","4","2022-11-17 12:24:56","fd252370c17a9971d68c1d4354a03c2e","","Mozilla/5.0 (Windows NT 10.0; Win64; x64) AppleWebKit/537.36 (KHTML, like Gecko) Chrome/107.0.0.0 Safari/537.36","WebKit","Chrome","107.0.0.0","Windows","10.0","null","null","","<p style=""font-size: 48px;"">+</p>","4","Light-Matched","",""
"","","","","","picture","95412","image-keyboard-response","134","170420","0.0-6.0-3.24","71","4","2022-11-17 12:24:56","fd252370c17a9971d68c1d4354a03c2e","","Mozilla/5.0 (Windows NT 10.0; Win64; x64) AppleWebKit/537.36 (KHTML, like Gecko) Chrome/107.0.0.0 Safari/537.36","WebKit","Chrome","107.0.0.0","Windows","10.0","886","s","","glassesS.jpg","4","Light-Matched","true",""
"","","","","","fixation","95412","html-keyboard-response","135","171427","0.0-6.0-0.25","71","4","2022-11-17 12:24:56","fd252370c17a9971d68c1d4354a03c2e","","Mozilla/5.0 (Windows NT 10.0; Win64; x64) AppleWebKit/537.36 (KHTML, like Gecko) Chrome/107.0.0.0 Safari/537.36","WebKit","Chrome","107.0.0.0","Windows","10.0","null","null","","<p style=""font-size: 48px;"">+</p>","4","Heavy-Contradictory","",""
"","","","","","sentence","95412","html-keyboard-response","136","173729","0.0-6.0-1.25","71","4","2022-11-17 12:24:56","fd252370c17a9971d68c1d4354a03c2e","","Mozilla/5.0 (Windows NT 10.0; Win64; x64) AppleWebKit/537.36 (KHTML, like Gecko) Chrome/107.0.0.0 Safari/537.36","WebKit","Chrome","107.0.0.0","Windows","10.0","2297"," ","","A bowling ball dropped and touched a wineglass","4","Heavy-Contradictory","",""
"","","","","","fixation","95412","html-keyboard-response","137","174244","0.0-6.0-2.25","71","4","2022-11-17 12:24:56","fd252370c17a9971d68c1d4354a03c2e","","Mozilla/5.0 (Windows NT 10.0; Win64; x64) AppleWebKit/537.36 (KHTML, like Gecko) Chrome/107.0.0.0 Safari/537.36","WebKit","Chrome","107.0.0.0","Windows","10.0","null","null","","<p style=""font-size: 48px;"">+</p>","4","Heavy-Contradictory","",""
"","","","","","picture","95412","image-keyboard-response","138","174749","0.0-6.0-3.25","71","4","2022-11-17 12:24:56","fd252370c17a9971d68c1d4354a03c2e","","Mozilla/5.0 (Windows NT 10.0; Win64; x64) AppleWebKit/537.36 (KHTML, like Gecko) Chrome/107.0.0.0 Safari/537.36","WebKit","Chrome","107.0.0.0","Windows","10.0","497","s","","wineglassS.jpg","4","Heavy-Contradictory","true",""
"","","","","","fixation","95412","html-keyboard-response","139","175755","0.0-6.0-0.26","71","4","2022-11-17 12:24:56","fd252370c17a9971d68c1d4354a03c2e","","Mozilla/5.0 (Windows NT 10.0; Win64; x64) AppleWebKit/537.36 (KHTML, like Gecko) Chrome/107.0.0.0 Safari/537.36","WebKit","Chrome","107.0.0.0","Windows","10.0","null","null","","<p style=""font-size: 48px;"">+</p>","4","Heavy-Contradictory","",""
"","","","","","sentence","95412","html-keyboard-response","140","176677","0.0-6.0-1.26","71","4","2022-11-17 12:24:56","fd252370c17a9971d68c1d4354a03c2e","","Mozilla/5.0 (Windows NT 10.0; Win64; x64) AppleWebKit/537.36 (KHTML, like Gecko) Chrome/107.0.0.0 Safari/537.36","WebKit","Chrome","107.0.0.0","Windows","10.0","917"," ","","A bowling ball dropped and touched a TV","4","Heavy-Contradictory","",""
"","","","","","fixation","95412","html-keyboard-response","141","177188","0.0-6.0-2.26","71","4","2022-11-17 12:24:56","fd252370c17a9971d68c1d4354a03c2e","","Mozilla/5.0 (Windows NT 10.0; Win64; x64) AppleWebKit/537.36 (KHTML, like Gecko) Chrome/107.0.0.0 Safari/537.36","WebKit","Chrome","107.0.0.0","Windows","10.0","null","null","","<p style=""font-size: 48px;"">+</p>","4","Heavy-Contradictory","",""
"","","","","","picture","95412","image-keyboard-response","142","177630","0.0-6.0-3.26","71","4","2022-11-17 12:24:56","fd252370c17a9971d68c1d4354a03c2e","","Mozilla/5.0 (Windows NT 10.0; Win64; x64) AppleWebKit/537.36 (KHTML, like Gecko) Chrome/107.0.0.0 Safari/537.36","WebKit","Chrome","107.0.0.0","Windows","10.0","430","s","","tvS.jpg","4","Heavy-Contradictory","true",""
"","","","","","fixation","95412","html-keyboard-response","143","178644","0.0-6.0-0.27","71","4","2022-11-17 12:24:56","fd252370c17a9971d68c1d4354a03c2e","","Mozilla/5.0 (Windows NT 10.0; Win64; x64) AppleWebKit/537.36 (KHTML, like Gecko) Chrome/107.0.0.0 Safari/537.36","WebKit","Chrome","107.0.0.0","Windows","10.0","null","null","","<p style=""font-size: 48px;"">+</p>","4","Light-Matched","",""
"","","","","","sentence","95412","html-keyboard-response","144","179530","0.0-6.0-1.27","71","4","2022-11-17 12:24:56","fd252370c17a9971d68c1d4354a03c2e","","Mozilla/5.0 (Windows NT 10.0; Win64; x64) AppleWebKit/537.36 (KHTML, like Gecko) Chrome/107.0.0.0 Safari/537.36","WebKit","Chrome","107.0.0.0","Windows","10.0","879"," ","","A balloon dropped and touched an iPAD","4","Light-Matched","",""
"","","","","","fixation","95412","html-keyboard-response","145","180042","0.0-6.0-2.27","71","4","2022-11-17 12:24:56","fd252370c17a9971d68c1d4354a03c2e","","Mozilla/5.0 (Windows NT 10.0; Win64; x64) AppleWebKit/537.36 (KHTML, like Gecko) Chrome/107.0.0.0 Safari/537.36","WebKit","Chrome","107.0.0.0","Windows","10.0","null","null","","<p style=""font-size: 48px;"">+</p>","4","Light-Matched","",""
"","","","","","picture","95412","image-keyboard-response","146","180720","0.0-6.0-3.27","71","4","2022-11-17 12:24:56","fd252370c17a9971d68c1d4354a03c2e","","Mozilla/5.0 (Windows NT 10.0; Win64; x64) AppleWebKit/537.36 (KHTML, like Gecko) Chrome/107.0.0.0 Safari/537.36","WebKit","Chrome","107.0.0.0","Windows","10.0","662","s","","iPadS.jpg","4","Light-Matched","true",""
"","","","","","fixation","95412","html-keyboard-response","147","181731","0.0-6.0-0.28","71","4","2022-11-17 12:24:56","fd252370c17a9971d68c1d4354a03c2e","","Mozilla/5.0 (Windows NT 10.0; Win64; x64) AppleWebKit/537.36 (KHTML, like Gecko) Chrome/107.0.0.0 Safari/537.36","WebKit","Chrome","107.0.0.0","Windows","10.0","null","null","","<p style=""font-size: 48px;"">+</p>","4","Filler","",""
"","","","","","sentence","95412","html-keyboard-response","148","182929","0.0-6.0-1.28","71","4","2022-11-17 12:24:56","fd252370c17a9971d68c1d4354a03c2e","","Mozilla/5.0 (Windows NT 10.0; Win64; x64) AppleWebKit/537.36 (KHTML, like Gecko) Chrome/107.0.0.0 Safari/537.36","WebKit","Chrome","107.0.0.0","Windows","10.0","1190"," ","","A boy is wearing a hat","4","Filler","",""
"","","","","","fixation","95412","html-keyboard-response","149","183442","0.0-6.0-2.28","71","4","2022-11-17 12:24:56","fd252370c17a9971d68c1d4354a03c2e","","Mozilla/5.0 (Windows NT 10.0; Win64; x64) AppleWebKit/537.36 (KHTML, like Gecko) Chrome/107.0.0.0 Safari/537.36","WebKit","Chrome","107.0.0.0","Windows","10.0","null","null","","<p style=""font-size: 48px;"">+</p>","4","Filler","",""
"","","","","","picture","95412","image-keyboard-response","150","184030","0.0-6.0-3.28","71","4","2022-11-17 12:24:56","fd252370c17a9971d68c1d4354a03c2e","","Mozilla/5.0 (Windows NT 10.0; Win64; x64) AppleWebKit/537.36 (KHTML, like Gecko) Chrome/107.0.0.0 Safari/537.36","WebKit","Chrome","107.0.0.0","Windows","10.0","576","s","","hat.jpg","4","Filler","true",""
"","","","","","fixation","95412","html-keyboard-response","151","185044","0.0-6.0-0.29","71","4","2022-11-17 12:24:56","fd252370c17a9971d68c1d4354a03c2e","","Mozilla/5.0 (Windows NT 10.0; Win64; x64) AppleWebKit/537.36 (KHTML, like Gecko) Chrome/107.0.0.0 Safari/537.36","WebKit","Chrome","107.0.0.0","Windows","10.0","null","null","","<p style=""font-size: 48px;"">+</p>","4","Filler","",""
"","","","","","sentence","95412","html-keyboard-response","152","185759","0.0-6.0-1.29","71","4","2022-11-17 12:24:56","fd252370c17a9971d68c1d4354a03c2e","","Mozilla/5.0 (Windows NT 10.0; Win64; x64) AppleWebKit/537.36 (KHTML, like Gecko) Chrome/107.0.0.0 Safari/537.36","WebKit","Chrome","107.0.0.0","Windows","10.0","708"," ","","A needle was placed on the mouse pad","4","Filler","",""
"","","","","","fixation","95412","html-keyboard-response","153","186274","0.0-6.0-2.29","71","4","2022-11-17 12:24:56","fd252370c17a9971d68c1d4354a03c2e","","Mozilla/5.0 (Windows NT 10.0; Win64; x64) AppleWebKit/537.36 (KHTML, like Gecko) Chrome/107.0.0.0 Safari/537.36","WebKit","Chrome","107.0.0.0","Windows","10.0","null","null","","<p style=""font-size: 48px;"">+</p>","4","Filler","",""
"","","","","","picture","95412","image-keyboard-response","154","186979","0.0-6.0-3.29","71","4","2022-11-17 12:24:56","fd252370c17a9971d68c1d4354a03c2e","","Mozilla/5.0 (Windows NT 10.0; Win64; x64) AppleWebKit/537.36 (KHTML, like Gecko) Chrome/107.0.0.0 Safari/537.36","WebKit","Chrome","107.0.0.0","Windows","10.0","698","n","","chocolate.jpg","4","Filler","true",""
"","","","","","fixation","95412","html-keyboard-response","155","187988","0.0-6.0-0.30","71","4","2022-11-17 12:24:56","fd252370c17a9971d68c1d4354a03c2e","","Mozilla/5.0 (Windows NT 10.0; Win64; x64) AppleWebKit/537.36 (KHTML, like Gecko) Chrome/107.0.0.0 Safari/537.36","WebKit","Chrome","107.0.0.0","Windows","10.0","null","null","","<p style=""font-size: 48px;"">+</p>","4","Filler","",""
"","","","","","sentence","95412","html-keyboard-response","156","188979","0.0-6.0-1.30","71","4","2022-11-17 12:24:56","fd252370c17a9971d68c1d4354a03c2e","","Mozilla/5.0 (Windows NT 10.0; Win64; x64) AppleWebKit/537.36 (KHTML, like Gecko) Chrome/107.0.0.0 Safari/537.36","WebKit","Chrome","107.0.0.0","Windows","10.0","982"," ","","A president is writing in the notebook","4","Filler","",""
"","","","","","fixation","95412","html-keyboard-response","157","189492","0.0-6.0-2.30","71","4","2022-11-17 12:24:56","fd252370c17a9971d68c1d4354a03c2e","","Mozilla/5.0 (Windows NT 10.0; Win64; x64) AppleWebKit/537.36 (KHTML, like Gecko) Chrome/107.0.0.0 Safari/537.36","WebKit","Chrome","107.0.0.0","Windows","10.0","null","null","","<p style=""font-size: 48px;"">+</p>","4","Filler","",""
"","","","","","picture","95412","image-keyboard-response","158","190229","0.0-6.0-3.30","71","4","2022-11-17 12:24:56","fd252370c17a9971d68c1d4354a03c2e","","Mozilla/5.0 (Windows NT 10.0; Win64; x64) AppleWebKit/537.36 (KHTML, like Gecko) Chrome/107.0.0.0 Safari/537.36","WebKit","Chrome","107.0.0.0","Windows","10.0","729","n","","can.jpg","4","Filler","true",""
"","","","","","fixation","95412","html-keyboard-response","159","191236","0.0-6.0-0.31","71","4","2022-11-17 12:24:56","fd252370c17a9971d68c1d4354a03c2e","","Mozilla/5.0 (Windows NT 10.0; Win64; x64) AppleWebKit/537.36 (KHTML, like Gecko) Chrome/107.0.0.0 Safari/537.36","WebKit","Chrome","107.0.0.0","Windows","10.0","null","null","","<p style=""font-size: 48px;"">+</p>","4","Heavy-Matched","",""
"","","","","","sentence","95412","html-keyboard-response","160","192689","0.0-6.0-1.31","71","4","2022-11-17 12:24:56","fd252370c17a9971d68c1d4354a03c2e","","Mozilla/5.0 (Windows NT 10.0; Win64; x64) AppleWebKit/537.36 (KHTML, like Gecko) Chrome/107.0.0.0 Safari/537.36","WebKit","Chrome","107.0.0.0","Windows","10.0","1449"," ","","A bowling ball dropped and smashed a strawberry","4","Heavy-Matched","",""
"","","","","","fixation","95412","html-keyboard-response","161","193203","0.0-6.0-2.31","71","4","2022-11-17 12:24:56","fd252370c17a9971d68c1d4354a03c2e","","Mozilla/5.0 (Windows NT 10.0; Win64; x64) AppleWebKit/537.36 (KHTML, like Gecko) Chrome/107.0.0.0 Safari/537.36","WebKit","Chrome","107.0.0.0","Windows","10.0","null","null","","<p style=""font-size: 48px;"">+</p>","4","Heavy-Matched","",""
"","","","","","picture","95412","image-keyboard-response","162","193829","0.0-6.0-3.31","71","4","2022-11-17 12:24:56","fd252370c17a9971d68c1d4354a03c2e","","Mozilla/5.0 (Windows NT 10.0; Win64; x64) AppleWebKit/537.36 (KHTML, like Gecko) Chrome/107.0.0.0 Safari/537.36","WebKit","Chrome","107.0.0.0","Windows","10.0","618","s","","strawberryS.jpg","4","Heavy-Matched","true",""
"","","","","","fixation","95412","html-keyboard-response","163","194843","0.0-6.0-0.32","71","4","2022-11-17 12:24:56","fd252370c17a9971d68c1d4354a03c2e","","Mozilla/5.0 (Windows NT 10.0; Win64; x64) AppleWebKit/537.36 (KHTML, like Gecko) Chrome/107.0.0.0 Safari/537.36","WebKit","Chrome","107.0.0.0","Windows","10.0","null","null","","<p style=""font-size: 48px;"">+</p>","4","Filler","",""
"","","","","","sentence","95412","html-keyboard-response","164","195470","0.0-6.0-1.32","71","4","2022-11-17 12:24:56","fd252370c17a9971d68c1d4354a03c2e","","Mozilla/5.0 (Windows NT 10.0; Win64; x64) AppleWebKit/537.36 (KHTML, like Gecko) Chrome/107.0.0.0 Safari/537.36","WebKit","Chrome","107.0.0.0","Windows","10.0","620"," ","","A nurse is taking a syringe","4","Filler","",""
"","","","","","fixation","95412","html-keyboard-response","165","195987","0.0-6.0-2.32","71","4","2022-11-17 12:24:56","fd252370c17a9971d68c1d4354a03c2e","","Mozilla/5.0 (Windows NT 10.0; Win64; x64) AppleWebKit/537.36 (KHTML, like Gecko) Chrome/107.0.0.0 Safari/537.36","WebKit","Chrome","107.0.0.0","Windows","10.0","null","null","","<p style=""font-size: 48px;"">+</p>","4","Filler","",""
"","","","","","picture","95412","image-keyboard-response","166","196598","0.0-6.0-3.32","71","4","2022-11-17 12:24:56","fd252370c17a9971d68c1d4354a03c2e","","Mozilla/5.0 (Windows NT 10.0; Win64; x64) AppleWebKit/537.36 (KHTML, like Gecko) Chrome/107.0.0.0 Safari/537.36","WebKit","Chrome","107.0.0.0","Windows","10.0","603","n","","headphones.jpg","4","Filler","true",""
"","","","","","fixation","95412","html-keyboard-response","167","197611","0.0-6.0-0.33","71","4","2022-11-17 12:24:56","fd252370c17a9971d68c1d4354a03c2e","","Mozilla/5.0 (Windows NT 10.0; Win64; x64) AppleWebKit/537.36 (KHTML, like Gecko) Chrome/107.0.0.0 Safari/537.36","WebKit","Chrome","107.0.0.0","Windows","10.0","null","null","","<p style=""font-size: 48px;"">+</p>","4","Filler","",""
"","","","","","sentence","95412","html-keyboard-response","168","198918","0.0-6.0-1.33","71","4","2022-11-17 12:24:56","fd252370c17a9971d68c1d4354a03c2e","","Mozilla/5.0 (Windows NT 10.0; Win64; x64) AppleWebKit/537.36 (KHTML, like Gecko) Chrome/107.0.0.0 Safari/537.36","WebKit","Chrome","107.0.0.0","Windows","10.0","1300"," ","","A cat is drinking water from a bowl","4","Filler","",""
"","","","","","fixation","95412","html-keyboard-response","169","199427","0.0-6.0-2.33","71","4","2022-11-17 12:24:56","fd252370c17a9971d68c1d4354a03c2e","","Mozilla/5.0 (Windows NT 10.0; Win64; x64) AppleWebKit/537.36 (KHTML, like Gecko) Chrome/107.0.0.0 Safari/537.36","WebKit","Chrome","107.0.0.0","Windows","10.0","null","null","","<p style=""font-size: 48px;"">+</p>","4","Filler","",""
"","","","","","picture","95412","image-keyboard-response","170","199949","0.0-6.0-3.33","71","4","2022-11-17 12:24:56","fd252370c17a9971d68c1d4354a03c2e","","Mozilla/5.0 (Windows NT 10.0; Win64; x64) AppleWebKit/537.36 (KHTML, like Gecko) Chrome/107.0.0.0 Safari/537.36","WebKit","Chrome","107.0.0.0","Windows","10.0","510","s","","bowl.jpg","4","Filler","true",""
"","","","","","fixation","95412","html-keyboard-response","171","200963","0.0-6.0-0.34","71","4","2022-11-17 12:24:56","fd252370c17a9971d68c1d4354a03c2e","","Mozilla/5.0 (Windows NT 10.0; Win64; x64) AppleWebKit/537.36 (KHTML, like Gecko) Chrome/107.0.0.0 Safari/537.36","WebKit","Chrome","107.0.0.0","Windows","10.0","null","null","","<p style=""font-size: 48px;"">+</p>","4","Light-Matched","",""
"","","","","","sentence","95412","html-keyboard-response","172","203049","0.0-6.0-1.34","71","4","2022-11-17 12:24:56","fd252370c17a9971d68c1d4354a03c2e","","Mozilla/5.0 (Windows NT 10.0; Win64; x64) AppleWebKit/537.36 (KHTML, like Gecko) Chrome/107.0.0.0 Safari/537.36","WebKit","Chrome","107.0.0.0","Windows","10.0","2081"," ","","A balloon dropped and touched an egg flan","4","Light-Matched","",""
"","","","","","fixation","95412","html-keyboard-response","173","203564","0.0-6.0-2.34","71","4","2022-11-17 12:24:56","fd252370c17a9971d68c1d4354a03c2e","","Mozilla/5.0 (Windows NT 10.0; Win64; x64) AppleWebKit/537.36 (KHTML, like Gecko) Chrome/107.0.0.0 Safari/537.36","WebKit","Chrome","107.0.0.0","Windows","10.0","null","null","","<p style=""font-size: 48px;"">+</p>","4","Light-Matched","",""
"","","","","","picture","95412","image-keyboard-response","174","206357","0.0-6.0-3.34","71","4","2022-11-17 12:24:56","fd252370c17a9971d68c1d4354a03c2e","","Mozilla/5.0 (Windows NT 10.0; Win64; x64) AppleWebKit/537.36 (KHTML, like Gecko) Chrome/107.0.0.0 Safari/537.36","WebKit","Chrome","107.0.0.0","Windows","10.0","2785","s","","eggflanS.jpg","4","Light-Matched","true",""
"","","","","","fixation","95412","html-keyboard-response","175","207371","0.0-6.0-0.35","71","4","2022-11-17 12:24:56","fd252370c17a9971d68c1d4354a03c2e","","Mozilla/5.0 (Windows NT 10.0; Win64; x64) AppleWebKit/537.36 (KHTML, like Gecko) Chrome/107.0.0.0 Safari/537.36","WebKit","Chrome","107.0.0.0","Windows","10.0","null","null","","<p style=""font-size: 48px;"">+</p>","4","Filler","",""
"","","","","","sentence","95412","html-keyboard-response","176","208169","0.0-6.0-1.35","71","4","2022-11-17 12:24:56","fd252370c17a9971d68c1d4354a03c2e","","Mozilla/5.0 (Windows NT 10.0; Win64; x64) AppleWebKit/537.36 (KHTML, like Gecko) Chrome/107.0.0.0 Safari/537.36","WebKit","Chrome","107.0.0.0","Windows","10.0","791"," ","","A pencil was placed on the shoe","4","Filler","",""
"","","","","","fixation","95412","html-keyboard-response","177","208683","0.0-6.0-2.35","71","4","2022-11-17 12:24:56","fd252370c17a9971d68c1d4354a03c2e","","Mozilla/5.0 (Windows NT 10.0; Win64; x64) AppleWebKit/537.36 (KHTML, like Gecko) Chrome/107.0.0.0 Safari/537.36","WebKit","Chrome","107.0.0.0","Windows","10.0","null","null","","<p style=""font-size: 48px;"">+</p>","4","Filler","",""
"","","","","","picture","95412","image-keyboard-response","178","209409","0.0-6.0-3.35","71","4","2022-11-17 12:24:56","fd252370c17a9971d68c1d4354a03c2e","","Mozilla/5.0 (Windows NT 10.0; Win64; x64) AppleWebKit/537.36 (KHTML, like Gecko) Chrome/107.0.0.0 Safari/537.36","WebKit","Chrome","107.0.0.0","Windows","10.0","711","n","","perfume.jpg","4","Filler","true",""
"","","","","","fixation","95412","html-keyboard-response","179","210427","0.0-6.0-0.36","71","4","2022-11-17 12:24:56","fd252370c17a9971d68c1d4354a03c2e","","Mozilla/5.0 (Windows NT 10.0; Win64; x64) AppleWebKit/537.36 (KHTML, like Gecko) Chrome/107.0.0.0 Safari/537.36","WebKit","Chrome","107.0.0.0","Windows","10.0","null","null","","<p style=""font-size: 48px;"">+</p>","4","Light-Contradictory","",""
"","","","","","sentence","95412","html-keyboard-response","180","211379","0.0-6.0-1.36","71","4","2022-11-17 12:24:56","fd252370c17a9971d68c1d4354a03c2e","","Mozilla/5.0 (Windows NT 10.0; Win64; x64) AppleWebKit/537.36 (KHTML, like Gecko) Chrome/107.0.0.0 Safari/537.36","WebKit","Chrome","107.0.0.0","Windows","10.0","945"," ","","A balloon dropped and smashed a rice cake","4","Light-Contradictory","",""
"","","","","","fixation","95412","html-keyboard-response","181","211900","0.0-6.0-2.36","71","4","2022-11-17 12:24:56","fd252370c17a9971d68c1d4354a03c2e","","Mozilla/5.0 (Windows NT 10.0; Win64; x64) AppleWebKit/537.36 (KHTML, like Gecko) Chrome/107.0.0.0 Safari/537.36","WebKit","Chrome","107.0.0.0","Windows","10.0","null","null","","<p style=""font-size: 48px;"">+</p>","4","Light-Contradictory","",""
"","","","","","picture","95412","image-keyboard-response","182","212639","0.0-6.0-3.36","71","4","2022-11-17 12:24:56","fd252370c17a9971d68c1d4354a03c2e","","Mozilla/5.0 (Windows NT 10.0; Win64; x64) AppleWebKit/537.36 (KHTML, like Gecko) Chrome/107.0.0.0 Safari/537.36","WebKit","Chrome","107.0.0.0","Windows","10.0","730","s","","tortitaS.jpg","4","Light-Contradictory","true",""
"","","","","","fixation","95412","html-keyboard-response","183","213651","0.0-6.0-0.37","71","4","2022-11-17 12:24:56","fd252370c17a9971d68c1d4354a03c2e","","Mozilla/5.0 (Windows NT 10.0; Win64; x64) AppleWebKit/537.36 (KHTML, like Gecko) Chrome/107.0.0.0 Safari/537.36","WebKit","Chrome","107.0.0.0","Windows","10.0","null","null","","<p style=""font-size: 48px;"">+</p>","4","Filler","",""
"","","","","","sentence","95412","html-keyboard-response","184","214550","0.0-6.0-1.37","71","4","2022-11-17 12:24:56","fd252370c17a9971d68c1d4354a03c2e","","Mozilla/5.0 (Windows NT 10.0; Win64; x64) AppleWebKit/537.36 (KHTML, like Gecko) Chrome/107.0.0.0 Safari/537.36","WebKit","Chrome","107.0.0.0","Windows","10.0","891"," ","","A horse is chewing hay","4","Filler","",""
"","","","","","fixation","95412","html-keyboard-response","185","215075","0.0-6.0-2.37","71","4","2022-11-17 12:24:56","fd252370c17a9971d68c1d4354a03c2e","","Mozilla/5.0 (Windows NT 10.0; Win64; x64) AppleWebKit/537.36 (KHTML, like Gecko) Chrome/107.0.0.0 Safari/537.36","WebKit","Chrome","107.0.0.0","Windows","10.0","null","null","","<p style=""font-size: 48px;"">+</p>","4","Filler","",""
"","","","","","picture","95412","image-keyboard-response","186","215660","0.0-6.0-3.37","71","4","2022-11-17 12:24:56","fd252370c17a9971d68c1d4354a03c2e","","Mozilla/5.0 (Windows NT 10.0; Win64; x64) AppleWebKit/537.36 (KHTML, like Gecko) Chrome/107.0.0.0 Safari/537.36","WebKit","Chrome","107.0.0.0","Windows","10.0","574","n","","purse.jpg","4","Filler","true",""
"","","","","","fixation","95412","html-keyboard-response","187","216675","0.0-6.0-0.38","71","4","2022-11-17 12:24:56","fd252370c17a9971d68c1d4354a03c2e","","Mozilla/5.0 (Windows NT 10.0; Win64; x64) AppleWebKit/537.36 (KHTML, like Gecko) Chrome/107.0.0.0 Safari/537.36","WebKit","Chrome","107.0.0.0","Windows","10.0","null","null","","<p style=""font-size: 48px;"">+</p>","4","Filler","",""
"","","","","","sentence","95412","html-keyboard-response","188","217449","0.0-6.0-1.38","71","4","2022-11-17 12:24:56","fd252370c17a9971d68c1d4354a03c2e","","Mozilla/5.0 (Windows NT 10.0; Win64; x64) AppleWebKit/537.36 (KHTML, like Gecko) Chrome/107.0.0.0 Safari/537.36","WebKit","Chrome","107.0.0.0","Windows","10.0","766"," ","","A cabbage was placed on the table","4","Filler","",""
"","","","","","fixation","95412","html-keyboard-response","189","217955","0.0-6.0-2.38","71","4","2022-11-17 12:24:56","fd252370c17a9971d68c1d4354a03c2e","","Mozilla/5.0 (Windows NT 10.0; Win64; x64) AppleWebKit/537.36 (KHTML, like Gecko) Chrome/107.0.0.0 Safari/537.36","WebKit","Chrome","107.0.0.0","Windows","10.0","null","null","","<p style=""font-size: 48px;"">+</p>","4","Filler","",""
"","","","","","picture","95412","image-keyboard-response","190","218569","0.0-6.0-3.38","71","4","2022-11-17 12:24:56","fd252370c17a9971d68c1d4354a03c2e","","Mozilla/5.0 (Windows NT 10.0; Win64; x64) AppleWebKit/537.36 (KHTML, like Gecko) Chrome/107.0.0.0 Safari/537.36","WebKit","Chrome","107.0.0.0","Windows","10.0","598","n","","ladder.jpg","4","Filler","true",""
"","","","","","fixation","95412","html-keyboard-response","191","219579","0.0-6.0-0.39","71","4","2022-11-17 12:24:56","fd252370c17a9971d68c1d4354a03c2e","","Mozilla/5.0 (Windows NT 10.0; Win64; x64) AppleWebKit/537.36 (KHTML, like Gecko) Chrome/107.0.0.0 Safari/537.36","WebKit","Chrome","107.0.0.0","Windows","10.0","null","null","","<p style=""font-size: 48px;"">+</p>","4","Heavy-Matched","",""
"","","","","","sentence","95412","html-keyboard-response","192","220559","0.0-6.0-1.39","71","4","2022-11-17 12:24:56","fd252370c17a9971d68c1d4354a03c2e","","Mozilla/5.0 (Windows NT 10.0; Win64; x64) AppleWebKit/537.36 (KHTML, like Gecko) Chrome/107.0.0.0 Safari/537.36","WebKit","Chrome","107.0.0.0","Windows","10.0","971"," ","","A bowling ball  dropped and smashed a vase","4","Heavy-Matched","",""
"","","","","","fixation","95412","html-keyboard-response","193","221068","0.0-6.0-2.39","71","4","2022-11-17 12:24:56","fd252370c17a9971d68c1d4354a03c2e","","Mozilla/5.0 (Windows NT 10.0; Win64; x64) AppleWebKit/537.36 (KHTML, like Gecko) Chrome/107.0.0.0 Safari/537.36","WebKit","Chrome","107.0.0.0","Windows","10.0","null","null","","<p style=""font-size: 48px;"">+</p>","4","Heavy-Matched","",""
"","","","","","picture","95412","image-keyboard-response","194","221839","0.0-6.0-3.39","71","4","2022-11-17 12:24:56","fd252370c17a9971d68c1d4354a03c2e","","Mozilla/5.0 (Windows NT 10.0; Win64; x64) AppleWebKit/537.36 (KHTML, like Gecko) Chrome/107.0.0.0 Safari/537.36","WebKit","Chrome","107.0.0.0","Windows","10.0","757","s","","vaseS.jpg","4","Heavy-Matched","true",""
"","","","","","fixation","95412","html-keyboard-response","195","222850","0.0-6.0-0.40","71","4","2022-11-17 12:24:56","fd252370c17a9971d68c1d4354a03c2e","","Mozilla/5.0 (Windows NT 10.0; Win64; x64) AppleWebKit/537.36 (KHTML, like Gecko) Chrome/107.0.0.0 Safari/537.36","WebKit","Chrome","107.0.0.0","Windows","10.0","null","null","","<p style=""font-size: 48px;"">+</p>","4","Heavy-Matched","",""
"","","","","","sentence","95412","html-keyboard-response","196","223670","0.0-6.0-1.40","71","4","2022-11-17 12:24:56","fd252370c17a9971d68c1d4354a03c2e","","Mozilla/5.0 (Windows NT 10.0; Win64; x64) AppleWebKit/537.36 (KHTML, like Gecko) Chrome/107.0.0.0 Safari/537.36","WebKit","Chrome","107.0.0.0","Windows","10.0","810"," ","","A bowling ball dropped and smashed a tile","4","Heavy-Matched","",""
"","","","","","fixation","95412","html-keyboard-response","197","224179","0.0-6.0-2.40","71","4","2022-11-17 12:24:56","fd252370c17a9971d68c1d4354a03c2e","","Mozilla/5.0 (Windows NT 10.0; Win64; x64) AppleWebKit/537.36 (KHTML, like Gecko) Chrome/107.0.0.0 Safari/537.36","WebKit","Chrome","107.0.0.0","Windows","10.0","null","null","","<p style=""font-size: 48px;"">+</p>","4","Heavy-Matched","",""
"","","","","","picture","95412","image-keyboard-response","198","224759","0.0-6.0-3.40","71","4","2022-11-17 12:24:56","fd252370c17a9971d68c1d4354a03c2e","","Mozilla/5.0 (Windows NT 10.0; Win64; x64) AppleWebKit/537.36 (KHTML, like Gecko) Chrome/107.0.0.0 Safari/537.36","WebKit","Chrome","107.0.0.0","Windows","10.0","569","s","","tileS.jpg","4","Heavy-Matched","true",""
"","","","","","fixation","95412","html-keyboard-response","199","225772","0.0-6.0-0.41","71","4","2022-11-17 12:24:56","fd252370c17a9971d68c1d4354a03c2e","","Mozilla/5.0 (Windows NT 10.0; Win64; x64) AppleWebKit/537.36 (KHTML, like Gecko) Chrome/107.0.0.0 Safari/537.36","WebKit","Chrome","107.0.0.0","Windows","10.0","null","null","","<p style=""font-size: 48px;"">+</p>","4","Heavy-Contradictory","",""
"","","","","","sentence","95412","html-keyboard-response","200","227300","0.0-6.0-1.41","71","4","2022-11-17 12:24:56","fd252370c17a9971d68c1d4354a03c2e","","Mozilla/5.0 (Windows NT 10.0; Win64; x64) AppleWebKit/537.36 (KHTML, like Gecko) Chrome/107.0.0.0 Safari/537.36","WebKit","Chrome","107.0.0.0","Windows","10.0","1519"," ","","A bowling ball dropped and touched a piece of cake","4","Heavy-Contradictory","",""
"","","","","","fixation","95412","html-keyboard-response","201","227819","0.0-6.0-2.41","71","4","2022-11-17 12:24:56","fd252370c17a9971d68c1d4354a03c2e","","Mozilla/5.0 (Windows NT 10.0; Win64; x64) AppleWebKit/537.36 (KHTML, like Gecko) Chrome/107.0.0.0 Safari/537.36","WebKit","Chrome","107.0.0.0","Windows","10.0","null","null","","<p style=""font-size: 48px;"">+</p>","4","Heavy-Contradictory","",""
"","","","","","picture","95412","image-keyboard-response","202","228730","0.0-6.0-3.41","71","4","2022-11-17 12:24:56","fd252370c17a9971d68c1d4354a03c2e","","Mozilla/5.0 (Windows NT 10.0; Win64; x64) AppleWebKit/537.36 (KHTML, like Gecko) Chrome/107.0.0.0 Safari/537.36","WebKit","Chrome","107.0.0.0","Windows","10.0","901","s","","cakeS.jpg","4","Heavy-Contradictory","true",""
"","","","","","fixation","95412","html-keyboard-response","203","229755","0.0-6.0-0.42","71","4","2022-11-17 12:24:56","fd252370c17a9971d68c1d4354a03c2e","","Mozilla/5.0 (Windows NT 10.0; Win64; x64) AppleWebKit/537.36 (KHTML, like Gecko) Chrome/107.0.0.0 Safari/537.36","WebKit","Chrome","107.0.0.0","Windows","10.0","null","null","","<p style=""font-size: 48px;"">+</p>","4","Light-Matched","",""
"","","","","","sentence","95412","html-keyboard-response","204","230591","0.0-6.0-1.42","71","4","2022-11-17 12:24:56","fd252370c17a9971d68c1d4354a03c2e","","Mozilla/5.0 (Windows NT 10.0; Win64; x64) AppleWebKit/537.36 (KHTML, like Gecko) Chrome/107.0.0.0 Safari/537.36","WebKit","Chrome","107.0.0.0","Windows","10.0","827"," ","","A balloon dropped and touched a banana","4","Light-Matched","",""
"","","","","","fixation","95412","html-keyboard-response","205","231108","0.0-6.0-2.42","71","4","2022-11-17 12:24:56","fd252370c17a9971d68c1d4354a03c2e","","Mozilla/5.0 (Windows NT 10.0; Win64; x64) AppleWebKit/537.36 (KHTML, like Gecko) Chrome/107.0.0.0 Safari/537.36","WebKit","Chrome","107.0.0.0","Windows","10.0","null","null","","<p style=""font-size: 48px;"">+</p>","4","Light-Matched","",""
"","","","","","picture","95412","image-keyboard-response","206","231771","0.0-6.0-3.42","71","4","2022-11-17 12:24:56","fd252370c17a9971d68c1d4354a03c2e","","Mozilla/5.0 (Windows NT 10.0; Win64; x64) AppleWebKit/537.36 (KHTML, like Gecko) Chrome/107.0.0.0 Safari/537.36","WebKit","Chrome","107.0.0.0","Windows","10.0","655","s","","bananaS.jpg","4","Light-Matched","true",""
"","","","","","fixation","95412","html-keyboard-response","207","232780","0.0-6.0-0.43","71","4","2022-11-17 12:24:56","fd252370c17a9971d68c1d4354a03c2e","","Mozilla/5.0 (Windows NT 10.0; Win64; x64) AppleWebKit/537.36 (KHTML, like Gecko) Chrome/107.0.0.0 Safari/537.36","WebKit","Chrome","107.0.0.0","Windows","10.0","null","null","","<p style=""font-size: 48px;"">+</p>","4","Filler","",""
"","","","","","sentence","95412","html-keyboard-response","208","233601","0.0-6.0-1.43","71","4","2022-11-17 12:24:56","fd252370c17a9971d68c1d4354a03c2e","","Mozilla/5.0 (Windows NT 10.0; Win64; x64) AppleWebKit/537.36 (KHTML, like Gecko) Chrome/107.0.0.0 Safari/537.36","WebKit","Chrome","107.0.0.0","Windows","10.0","811"," ","","An owl is sitting on the branch","4","Filler","",""
"","","","","","fixation","95412","html-keyboard-response","209","234117","0.0-6.0-2.43","71","4","2022-11-17 12:24:56","fd252370c17a9971d68c1d4354a03c2e","","Mozilla/5.0 (Windows NT 10.0; Win64; x64) AppleWebKit/537.36 (KHTML, like Gecko) Chrome/107.0.0.0 Safari/537.36","WebKit","Chrome","107.0.0.0","Windows","10.0","null","null","","<p style=""font-size: 48px;"">+</p>","4","Filler","",""
"","","","","","picture","95412","image-keyboard-response","210","234711","0.0-6.0-3.43","71","4","2022-11-17 12:24:56","fd252370c17a9971d68c1d4354a03c2e","","Mozilla/5.0 (Windows NT 10.0; Win64; x64) AppleWebKit/537.36 (KHTML, like Gecko) Chrome/107.0.0.0 Safari/537.36","WebKit","Chrome","107.0.0.0","Windows","10.0","584","n","","rubberduck.jpg","4","Filler","true",""
"","","","","","fixation","95412","html-keyboard-response","211","235725","0.0-6.0-0.44","71","4","2022-11-17 12:24:56","fd252370c17a9971d68c1d4354a03c2e","","Mozilla/5.0 (Windows NT 10.0; Win64; x64) AppleWebKit/537.36 (KHTML, like Gecko) Chrome/107.0.0.0 Safari/537.36","WebKit","Chrome","107.0.0.0","Windows","10.0","null","null","","<p style=""font-size: 48px;"">+</p>","4","Filler","",""
"","","","","","sentence","95412","html-keyboard-response","212","236790","0.0-6.0-1.44","71","4","2022-11-17 12:24:56","fd252370c17a9971d68c1d4354a03c2e","","Mozilla/5.0 (Windows NT 10.0; Win64; x64) AppleWebKit/537.36 (KHTML, like Gecko) Chrome/107.0.0.0 Safari/537.36","WebKit","Chrome","107.0.0.0","Windows","10.0","1053"," ","","A cushion was placed on the magazine","4","Filler","",""
"","","","","","fixation","95412","html-keyboard-response","213","237309","0.0-6.0-2.44","71","4","2022-11-17 12:24:56","fd252370c17a9971d68c1d4354a03c2e","","Mozilla/5.0 (Windows NT 10.0; Win64; x64) AppleWebKit/537.36 (KHTML, like Gecko) Chrome/107.0.0.0 Safari/537.36","WebKit","Chrome","107.0.0.0","Windows","10.0","null","null","","<p style=""font-size: 48px;"">+</p>","4","Filler","",""
"","","","","","picture","95412","image-keyboard-response","214","237911","0.0-6.0-3.44","71","4","2022-11-17 12:24:56","fd252370c17a9971d68c1d4354a03c2e","","Mozilla/5.0 (Windows NT 10.0; Win64; x64) AppleWebKit/537.36 (KHTML, like Gecko) Chrome/107.0.0.0 Safari/537.36","WebKit","Chrome","107.0.0.0","Windows","10.0","591","n","","box.jpg","4","Filler","true",""
"","","","","","fixation","95412","html-keyboard-response","215","238933","0.0-6.0-0.45","71","4","2022-11-17 12:24:56","fd252370c17a9971d68c1d4354a03c2e","","Mozilla/5.0 (Windows NT 10.0; Win64; x64) AppleWebKit/537.36 (KHTML, like Gecko) Chrome/107.0.0.0 Safari/537.36","WebKit","Chrome","107.0.0.0","Windows","10.0","null","null","","<p style=""font-size: 48px;"">+</p>","4","Filler","",""
"","","","","","sentence","95412","html-keyboard-response","216","239681","0.0-6.0-1.45","71","4","2022-11-17 12:24:56","fd252370c17a9971d68c1d4354a03c2e","","Mozilla/5.0 (Windows NT 10.0; Win64; x64) AppleWebKit/537.36 (KHTML, like Gecko) Chrome/107.0.0.0 Safari/537.36","WebKit","Chrome","107.0.0.0","Windows","10.0","732"," ","","A teenage girl is playing the piano","4","Filler","",""
"","","","","","fixation","95412","html-keyboard-response","217","240188","0.0-6.0-2.45","71","4","2022-11-17 12:24:56","fd252370c17a9971d68c1d4354a03c2e","","Mozilla/5.0 (Windows NT 10.0; Win64; x64) AppleWebKit/537.36 (KHTML, like Gecko) Chrome/107.0.0.0 Safari/537.36","WebKit","Chrome","107.0.0.0","Windows","10.0","null","null","","<p style=""font-size: 48px;"">+</p>","4","Filler","",""
"","","","","","picture","95412","image-keyboard-response","218","240721","0.0-6.0-3.45","71","4","2022-11-17 12:24:56","fd252370c17a9971d68c1d4354a03c2e","","Mozilla/5.0 (Windows NT 10.0; Win64; x64) AppleWebKit/537.36 (KHTML, like Gecko) Chrome/107.0.0.0 Safari/537.36","WebKit","Chrome","107.0.0.0","Windows","10.0","516","n","","pillow.jpg","4","Filler","true",""
"","","","","","fixation","95412","html-keyboard-response","219","241732","0.0-6.0-0.46","71","4","2022-11-17 12:24:56","fd252370c17a9971d68c1d4354a03c2e","","Mozilla/5.0 (Windows NT 10.0; Win64; x64) AppleWebKit/537.36 (KHTML, like Gecko) Chrome/107.0.0.0 Safari/537.36","WebKit","Chrome","107.0.0.0","Windows","10.0","null","null","","<p style=""font-size: 48px;"">+</p>","4","Filler","",""
"","","","","","sentence","95412","html-keyboard-response","220","242501","0.0-6.0-1.46","71","4","2022-11-17 12:24:56","fd252370c17a9971d68c1d4354a03c2e","","Mozilla/5.0 (Windows NT 10.0; Win64; x64) AppleWebKit/537.36 (KHTML, like Gecko) Chrome/107.0.0.0 Safari/537.36","WebKit","Chrome","107.0.0.0","Windows","10.0","758"," ","","A remote was placed on the rug","4","Filler","",""
"","","","","","fixation","95412","html-keyboard-response","221","243012","0.0-6.0-2.46","71","4","2022-11-17 12:24:56","fd252370c17a9971d68c1d4354a03c2e","","Mozilla/5.0 (Windows NT 10.0; Win64; x64) AppleWebKit/537.36 (KHTML, like Gecko) Chrome/107.0.0.0 Safari/537.36","WebKit","Chrome","107.0.0.0","Windows","10.0","null","null","","<p style=""font-size: 48px;"">+</p>","4","Filler","",""
"","","","","","picture","95412","image-keyboard-response","222","243581","0.0-6.0-3.46","71","4","2022-11-17 12:24:56","fd252370c17a9971d68c1d4354a03c2e","","Mozilla/5.0 (Windows NT 10.0; Win64; x64) AppleWebKit/537.36 (KHTML, like Gecko) Chrome/107.0.0.0 Safari/537.36","WebKit","Chrome","107.0.0.0","Windows","10.0","561","n","","CD.jpg","4","Filler","true",""
"","","","","","fixation","95412","html-keyboard-response","223","244596","0.0-6.0-0.47","71","4","2022-11-17 12:24:56","fd252370c17a9971d68c1d4354a03c2e","","Mozilla/5.0 (Windows NT 10.0; Win64; x64) AppleWebKit/537.36 (KHTML, like Gecko) Chrome/107.0.0.0 Safari/537.36","WebKit","Chrome","107.0.0.0","Windows","10.0","null","null","","<p style=""font-size: 48px;"">+</p>","4","Filler","",""
"","","","","","sentence","95412","html-keyboard-response","224","245310","0.0-6.0-1.47","71","4","2022-11-17 12:24:56","fd252370c17a9971d68c1d4354a03c2e","","Mozilla/5.0 (Windows NT 10.0; Win64; x64) AppleWebKit/537.36 (KHTML, like Gecko) Chrome/107.0.0.0 Safari/537.36","WebKit","Chrome","107.0.0.0","Windows","10.0","706"," ","","A ring was placed on the newspaper","4","Filler","",""
"","","","","","fixation","95412","html-keyboard-response","225","245820","0.0-6.0-2.47","71","4","2022-11-17 12:24:56","fd252370c17a9971d68c1d4354a03c2e","","Mozilla/5.0 (Windows NT 10.0; Win64; x64) AppleWebKit/537.36 (KHTML, like Gecko) Chrome/107.0.0.0 Safari/537.36","WebKit","Chrome","107.0.0.0","Windows","10.0","null","null","","<p style=""font-size: 48px;"">+</p>","4","Filler","",""
"","","","","","picture","95412","image-keyboard-response","226","246701","0.0-6.0-3.47","71","4","2022-11-17 12:24:56","fd252370c17a9971d68c1d4354a03c2e","","Mozilla/5.0 (Windows NT 10.0; Win64; x64) AppleWebKit/537.36 (KHTML, like Gecko) Chrome/107.0.0.0 Safari/537.36","WebKit","Chrome","107.0.0.0","Windows","10.0","871","n","","cat.jpg","4","Filler","true",""
"","","","","","fixation","95412","html-keyboard-response","227","247715","0.0-6.0-0.48","71","4","2022-11-17 12:24:56","fd252370c17a9971d68c1d4354a03c2e","","Mozilla/5.0 (Windows NT 10.0; Win64; x64) AppleWebKit/537.36 (KHTML, like Gecko) Chrome/107.0.0.0 Safari/537.36","WebKit","Chrome","107.0.0.0","Windows","10.0","null","null","","<p style=""font-size: 48px;"">+</p>","4","Heavy-Contradictory","",""
"","","","","","sentence","95412","html-keyboard-response","228","248831","0.0-6.0-1.48","71","4","2022-11-17 12:24:56","fd252370c17a9971d68c1d4354a03c2e","","Mozilla/5.0 (Windows NT 10.0; Win64; x64) AppleWebKit/537.36 (KHTML, like Gecko) Chrome/107.0.0.0 Safari/537.36","WebKit","Chrome","107.0.0.0","Windows","10.0","1102"," ","","A bowling ball dropped and touched a porcelain figure","4","Heavy-Contradictory","",""
"","","","","","fixation","95412","html-keyboard-response","229","249348","0.0-6.0-2.48","71","4","2022-11-17 12:24:56","fd252370c17a9971d68c1d4354a03c2e","","Mozilla/5.0 (Windows NT 10.0; Win64; x64) AppleWebKit/537.36 (KHTML, like Gecko) Chrome/107.0.0.0 Safari/537.36","WebKit","Chrome","107.0.0.0","Windows","10.0","null","null","","<p style=""font-size: 48px;"">+</p>","4","Heavy-Contradictory","",""
"","","","","","picture","95412","image-keyboard-response","230","250021","0.0-6.0-3.48","71","4","2022-11-17 12:24:56","fd252370c17a9971d68c1d4354a03c2e","","Mozilla/5.0 (Windows NT 10.0; Win64; x64) AppleWebKit/537.36 (KHTML, like Gecko) Chrome/107.0.0.0 Safari/537.36","WebKit","Chrome","107.0.0.0","Windows","10.0","658","s","","figureS.jpg","4","Heavy-Contradictory","true",""
"","","","","","fixation","95412","html-keyboard-response","231","251028","0.0-6.0-0.49","71","4","2022-11-17 12:24:56","fd252370c17a9971d68c1d4354a03c2e","","Mozilla/5.0 (Windows NT 10.0; Win64; x64) AppleWebKit/537.36 (KHTML, like Gecko) Chrome/107.0.0.0 Safari/537.36","WebKit","Chrome","107.0.0.0","Windows","10.0","null","null","","<p style=""font-size: 48px;"">+</p>","4","Light-Matched","",""
"","","","","","sentence","95412","html-keyboard-response","232","251740","0.0-6.0-1.49","71","4","2022-11-17 12:24:56","fd252370c17a9971d68c1d4354a03c2e","","Mozilla/5.0 (Windows NT 10.0; Win64; x64) AppleWebKit/537.36 (KHTML, like Gecko) Chrome/107.0.0.0 Safari/537.36","WebKit","Chrome","107.0.0.0","Windows","10.0","705"," ","","A balloon dropped and touched a blackberry","4","Light-Matched","",""
"","","","","","fixation","95412","html-keyboard-response","233","252252","0.0-6.0-2.49","71","4","2022-11-17 12:24:56","fd252370c17a9971d68c1d4354a03c2e","","Mozilla/5.0 (Windows NT 10.0; Win64; x64) AppleWebKit/537.36 (KHTML, like Gecko) Chrome/107.0.0.0 Safari/537.36","WebKit","Chrome","107.0.0.0","Windows","10.0","null","null","","<p style=""font-size: 48px;"">+</p>","4","Light-Matched","",""
"","","","","","picture","95412","image-keyboard-response","234","253230","0.0-6.0-3.49","71","4","2022-11-17 12:24:56","fd252370c17a9971d68c1d4354a03c2e","","Mozilla/5.0 (Windows NT 10.0; Win64; x64) AppleWebKit/537.36 (KHTML, like Gecko) Chrome/107.0.0.0 Safari/537.36","WebKit","Chrome","107.0.0.0","Windows","10.0","969","s","","blackberryS.jpg","4","Light-Matched","true",""
"","","","","","fixation","95412","html-keyboard-response","235","254251","0.0-6.0-0.50","71","4","2022-11-17 12:24:56","fd252370c17a9971d68c1d4354a03c2e","","Mozilla/5.0 (Windows NT 10.0; Win64; x64) AppleWebKit/537.36 (KHTML, like Gecko) Chrome/107.0.0.0 Safari/537.36","WebKit","Chrome","107.0.0.0","Windows","10.0","null","null","","<p style=""font-size: 48px;"">+</p>","4","Filler","",""
"","","","","","sentence","95412","html-keyboard-response","236","255170","0.0-6.0-1.50","71","4","2022-11-17 12:24:56","fd252370c17a9971d68c1d4354a03c2e","","Mozilla/5.0 (Windows NT 10.0; Win64; x64) AppleWebKit/537.36 (KHTML, like Gecko) Chrome/107.0.0.0 Safari/537.36","WebKit","Chrome","107.0.0.0","Windows","10.0","912"," ","","A towel was placed on the TV","4","Filler","",""
"","","","","","fixation","95412","html-keyboard-response","237","255692","0.0-6.0-2.50","71","4","2022-11-17 12:24:56","fd252370c17a9971d68c1d4354a03c2e","","Mozilla/5.0 (Windows NT 10.0; Win64; x64) AppleWebKit/537.36 (KHTML, like Gecko) Chrome/107.0.0.0 Safari/537.36","WebKit","Chrome","107.0.0.0","Windows","10.0","null","null","","<p style=""font-size: 48px;"">+</p>","4","Filler","",""
"","","","","","picture","95412","image-keyboard-response","238","256310","0.0-6.0-3.50","71","4","2022-11-17 12:24:56","fd252370c17a9971d68c1d4354a03c2e","","Mozilla/5.0 (Windows NT 10.0; Win64; x64) AppleWebKit/537.36 (KHTML, like Gecko) Chrome/107.0.0.0 Safari/537.36","WebKit","Chrome","107.0.0.0","Windows","10.0","608","n","","pencil.jpg","4","Filler","true",""
"","","","","","fixation","95412","html-keyboard-response","239","257324","0.0-6.0-0.51","71","4","2022-11-17 12:24:56","fd252370c17a9971d68c1d4354a03c2e","","Mozilla/5.0 (Windows NT 10.0; Win64; x64) AppleWebKit/537.36 (KHTML, like Gecko) Chrome/107.0.0.0 Safari/537.36","WebKit","Chrome","107.0.0.0","Windows","10.0","null","null","","<p style=""font-size: 48px;"">+</p>","4","Filler","",""
"","","","","","sentence","95412","html-keyboard-response","240","257921","0.0-6.0-1.51","71","4","2022-11-17 12:24:56","fd252370c17a9971d68c1d4354a03c2e","","Mozilla/5.0 (Windows NT 10.0; Win64; x64) AppleWebKit/537.36 (KHTML, like Gecko) Chrome/107.0.0.0 Safari/537.36","WebKit","Chrome","107.0.0.0","Windows","10.0","588"," ","","A dentist is drinking a can of cola","4","Filler","",""
"","","","","","fixation","95412","html-keyboard-response","241","258437","0.0-6.0-2.51","71","4","2022-11-17 12:24:56","fd252370c17a9971d68c1d4354a03c2e","","Mozilla/5.0 (Windows NT 10.0; Win64; x64) AppleWebKit/537.36 (KHTML, like Gecko) Chrome/107.0.0.0 Safari/537.36","WebKit","Chrome","107.0.0.0","Windows","10.0","null","null","","<p style=""font-size: 48px;"">+</p>","4","Filler","",""
"","","","","","picture","95412","image-keyboard-response","242","258920","0.0-6.0-3.51","71","4","2022-11-17 12:24:56","fd252370c17a9971d68c1d4354a03c2e","","Mozilla/5.0 (Windows NT 10.0; Win64; x64) AppleWebKit/537.36 (KHTML, like Gecko) Chrome/107.0.0.0 Safari/537.36","WebKit","Chrome","107.0.0.0","Windows","10.0","473","n","","doll.jpg","4","Filler","true",""
"","","","","","fixation","95412","html-keyboard-response","243","259932","0.0-6.0-0.52","71","4","2022-11-17 12:24:56","fd252370c17a9971d68c1d4354a03c2e","","Mozilla/5.0 (Windows NT 10.0; Win64; x64) AppleWebKit/537.36 (KHTML, like Gecko) Chrome/107.0.0.0 Safari/537.36","WebKit","Chrome","107.0.0.0","Windows","10.0","null","null","","<p style=""font-size: 48px;"">+</p>","4","Filler","",""
"","","","","","sentence","95412","html-keyboard-response","244","260591","0.0-6.0-1.52","71","4","2022-11-17 12:24:56","fd252370c17a9971d68c1d4354a03c2e","","Mozilla/5.0 (Windows NT 10.0; Win64; x64) AppleWebKit/537.36 (KHTML, like Gecko) Chrome/107.0.0.0 Safari/537.36","WebKit","Chrome","107.0.0.0","Windows","10.0","650"," ","","A student is writing on a board","4","Filler","",""
"","","","","","fixation","95412","html-keyboard-response","245","261108","0.0-6.0-2.52","71","4","2022-11-17 12:24:56","fd252370c17a9971d68c1d4354a03c2e","","Mozilla/5.0 (Windows NT 10.0; Win64; x64) AppleWebKit/537.36 (KHTML, like Gecko) Chrome/107.0.0.0 Safari/537.36","WebKit","Chrome","107.0.0.0","Windows","10.0","null","null","","<p style=""font-size: 48px;"">+</p>","4","Filler","",""
"","","","","","picture","95412","image-keyboard-response","246","261781","0.0-6.0-3.52","71","4","2022-11-17 12:24:56","fd252370c17a9971d68c1d4354a03c2e","","Mozilla/5.0 (Windows NT 10.0; Win64; x64) AppleWebKit/537.36 (KHTML, like Gecko) Chrome/107.0.0.0 Safari/537.36","WebKit","Chrome","107.0.0.0","Windows","10.0","664","n","","owl.jpg","4","Filler","true",""
"","","","","","fixation","95412","html-keyboard-response","247","262797","0.0-6.0-0.53","71","4","2022-11-17 12:24:56","fd252370c17a9971d68c1d4354a03c2e","","Mozilla/5.0 (Windows NT 10.0; Win64; x64) AppleWebKit/537.36 (KHTML, like Gecko) Chrome/107.0.0.0 Safari/537.36","WebKit","Chrome","107.0.0.0","Windows","10.0","null","null","","<p style=""font-size: 48px;"">+</p>","4","Filler","",""
"","","","","","sentence","95412","html-keyboard-response","248","263531","0.0-6.0-1.53","71","4","2022-11-17 12:24:56","fd252370c17a9971d68c1d4354a03c2e","","Mozilla/5.0 (Windows NT 10.0; Win64; x64) AppleWebKit/537.36 (KHTML, like Gecko) Chrome/107.0.0.0 Safari/537.36","WebKit","Chrome","107.0.0.0","Windows","10.0","719"," ","","A thermometer was placed on the box","4","Filler","",""
