"success","timeout","failed_images","failed_audio","failed_video","typeoftrial","subject","trial_type","trial_index","time_elapsed","internal_node_id","run_id","condition","recorded_at","source_code_version","ip","user_agent","device","browser","browser_version","platform","platform_version","rt","response","Experiment","stimulus","list_number","trialcondition","correct","question_order"
"true","false","[]","[]","[]","preload","37968","preload","0","2566","0.0-0.0","75","4","2022-11-17 12:25:30","fd252370c17a9971d68c1d4354a03c2e","","Mozilla/5.0 (Windows NT 6.3; Win64; x64) AppleWebKit/537.36 (KHTML, like Gecko) Chrome/107.0.0.0 Safari/537.36","WebKit","Chrome","107.0.0.0","Windows","6.3","","","","","","","",""
"","","","","","ID","37968","survey-text","1","6751","0.0-1.0","75","4","2022-11-17 12:25:30","fd252370c17a9971d68c1d4354a03c2e","","Mozilla/5.0 (Windows NT 6.3; Win64; x64) AppleWebKit/537.36 (KHTML, like Gecko) Chrome/107.0.0.0 Safari/537.36","WebKit","Chrome","107.0.0.0","Windows","6.3","4163","{""ID"":""60700ba0aead6063a9c1aac7""}","","","","","",""
"","","","","","instructions","37968","html-button-response","2","29974","0.0-2.0","75","4","2022-11-17 12:25:30","fd252370c17a9971d68c1d4354a03c2e","","Mozilla/5.0 (Windows NT 6.3; Win64; x64) AppleWebKit/537.36 (KHTML, like Gecko) Chrome/107.0.0.0 Safari/537.36","WebKit","Chrome","107.0.0.0","Windows","6.3","23220","0","","
                    <p style=""font-size:20px;""> Welcome to the experiment! </p>
                    <p style=""font-size:20px;""> In this experiment, you will be asked to make judgments about the content of different sentences.</p>
                    <p style=""font-size:20px;""> On each trial, you will read a sentence, and will be shown a picture immediately following the sentence. </p>
                    <p style=""font-size:20px;""> Your task is to decide whether the object displayed in the picture was mentioned in the sentence or not </p>
                    <p style=""font-size:20px;""> and respond as quickly as possible by pressing <strong>S</strong> for yes or <strong>N</strong> for no. </p>
                    <p style=""font-size:20px;""> You will now do a practice session with feedback and instructions. </p>
                    <p style=""font-size:20px;""> Click the button below to continue.</p>
                    ","","","",""
"","","","","","instructions","37968","html-button-response","3","45781","0.0-3.0","75","4","2022-11-17 12:25:30","fd252370c17a9971d68c1d4354a03c2e","","Mozilla/5.0 (Windows NT 6.3; Win64; x64) AppleWebKit/537.36 (KHTML, like Gecko) Chrome/107.0.0.0 Safari/537.36","WebKit","Chrome","107.0.0.0","Windows","6.3","15804","0","","
                    <p style=""font-size:20px;""> You are about to begin the practice test. </p>
                    <p style=""font-size:20px;""> On each trial, a sentence will appear on the screen. You should press SPACEBAR when you have read and understood the sentence.</p>
                    <p style=""font-size:20px;""> After you press SPACEBAR, a picture will appear on the screen. </p>
                    <p style=""font-size:20px;""> You need to indicate whether or not the pictured object was mentioned in the sentence. </p>
                    <p style=""font-size:20px;""> If the object WAS mentioned in the preceding sentence, you should press <strong>S</strong> </p>
                    <p style=""font-size:20px;""> If the object was NOT mentioned in the preceding sentence, you should press <strong>N</strong>. </p>
                    <p style=""font-size:20px;""> Click the button below to continue to the practice session.</p>
                    ","","","",""
"","","","","","fixation","37968","html-keyboard-response","4","46788","0.0-4.0-0.0","75","4","2022-11-17 12:25:30","fd252370c17a9971d68c1d4354a03c2e","","Mozilla/5.0 (Windows NT 6.3; Win64; x64) AppleWebKit/537.36 (KHTML, like Gecko) Chrome/107.0.0.0 Safari/537.36","WebKit","Chrome","107.0.0.0","Windows","6.3","null","null","","<p style=""font-size: 48px;"">+</p>","practice","practice_n","",""
"","","","","","sentence","37968","html-keyboard-response","5","50776","0.0-4.0-1.0","75","4","2022-11-17 12:25:30","fd252370c17a9971d68c1d4354a03c2e","","Mozilla/5.0 (Windows NT 6.3; Win64; x64) AppleWebKit/537.36 (KHTML, like Gecko) Chrome/107.0.0.0 Safari/537.36","WebKit","Chrome","107.0.0.0","Windows","6.3","3984"," ","","A fork was placed on a stool","practice","practice_n","",""
"","","","","","fixation","37968","html-keyboard-response","6","51286","0.0-4.0-2.0","75","4","2022-11-17 12:25:30","fd252370c17a9971d68c1d4354a03c2e","","Mozilla/5.0 (Windows NT 6.3; Win64; x64) AppleWebKit/537.36 (KHTML, like Gecko) Chrome/107.0.0.0 Safari/537.36","WebKit","Chrome","107.0.0.0","Windows","6.3","null","null","","<p style=""font-size: 48px;"">+</p>","practice","practice_n","",""
"","","","","","picture","37968","image-keyboard-response","7","54793","0.0-4.0-3.0","75","4","2022-11-17 12:25:30","fd252370c17a9971d68c1d4354a03c2e","","Mozilla/5.0 (Windows NT 6.3; Win64; x64) AppleWebKit/537.36 (KHTML, like Gecko) Chrome/107.0.0.0 Safari/537.36","WebKit","Chrome","107.0.0.0","Windows","6.3","3485","n","","tableB.jpg","practice","practice_n","true",""
"","","","","","","","html-keyboard-response","8","56806","0.0-4.0-4.0","75","4","2022-11-17 12:25:30","fd252370c17a9971d68c1d4354a03c2e","","Mozilla/5.0 (Windows NT 6.3; Win64; x64) AppleWebKit/537.36 (KHTML, like Gecko) Chrome/107.0.0.0 Safari/537.36","WebKit","Chrome","107.0.0.0","Windows","6.3","null","null","","CORRECT!","","","",""
"","","","","","fixation","37968","html-keyboard-response","9","57814","0.0-4.0-0.1","75","4","2022-11-17 12:25:30","fd252370c17a9971d68c1d4354a03c2e","","Mozilla/5.0 (Windows NT 6.3; Win64; x64) AppleWebKit/537.36 (KHTML, like Gecko) Chrome/107.0.0.0 Safari/537.36","WebKit","Chrome","107.0.0.0","Windows","6.3","null","null","","<p style=""font-size: 48px;"">+</p>","practice","practice_s","",""
"","","","","","sentence","37968","html-keyboard-response","10","60707","0.0-4.0-1.1","75","4","2022-11-17 12:25:30","fd252370c17a9971d68c1d4354a03c2e","","Mozilla/5.0 (Windows NT 6.3; Win64; x64) AppleWebKit/537.36 (KHTML, like Gecko) Chrome/107.0.0.0 Safari/537.36","WebKit","Chrome","107.0.0.0","Windows","6.3","2890"," ","","A bowling ball dropped and smashed a teacup","practice","practice_s","",""
"","","","","","fixation","37968","html-keyboard-response","11","61215","0.0-4.0-2.1","75","4","2022-11-17 12:25:30","fd252370c17a9971d68c1d4354a03c2e","","Mozilla/5.0 (Windows NT 6.3; Win64; x64) AppleWebKit/537.36 (KHTML, like Gecko) Chrome/107.0.0.0 Safari/537.36","WebKit","Chrome","107.0.0.0","Windows","6.3","null","null","","<p style=""font-size: 48px;"">+</p>","practice","practice_s","",""
"","","","","","picture","37968","image-keyboard-response","12","62440","0.0-4.0-3.1","75","4","2022-11-17 12:25:30","fd252370c17a9971d68c1d4354a03c2e","","Mozilla/5.0 (Windows NT 6.3; Win64; x64) AppleWebKit/537.36 (KHTML, like Gecko) Chrome/107.0.0.0 Safari/537.36","WebKit","Chrome","107.0.0.0","Windows","6.3","1222","s","","cupB.jpg","practice","practice_s","true",""
"","","","","","","","html-keyboard-response","13","64446","0.0-4.0-4.1","75","4","2022-11-17 12:25:30","fd252370c17a9971d68c1d4354a03c2e","","Mozilla/5.0 (Windows NT 6.3; Win64; x64) AppleWebKit/537.36 (KHTML, like Gecko) Chrome/107.0.0.0 Safari/537.36","WebKit","Chrome","107.0.0.0","Windows","6.3","null","null","","CORRECT!","","","",""
"","","","","","fixation","37968","html-keyboard-response","14","65454","0.0-4.0-0.2","75","4","2022-11-17 12:25:30","fd252370c17a9971d68c1d4354a03c2e","","Mozilla/5.0 (Windows NT 6.3; Win64; x64) AppleWebKit/537.36 (KHTML, like Gecko) Chrome/107.0.0.0 Safari/537.36","WebKit","Chrome","107.0.0.0","Windows","6.3","null","null","","<p style=""font-size: 48px;"">+</p>","practice","practice_n","",""
"","","","","","sentence","37968","html-keyboard-response","15","67908","0.0-4.0-1.2","75","4","2022-11-17 12:25:30","fd252370c17a9971d68c1d4354a03c2e","","Mozilla/5.0 (Windows NT 6.3; Win64; x64) AppleWebKit/537.36 (KHTML, like Gecko) Chrome/107.0.0.0 Safari/537.36","WebKit","Chrome","107.0.0.0","Windows","6.3","2452"," ","","A balloon dropped and smashed a cup","practice","practice_n","",""
"","","","","","fixation","37968","html-keyboard-response","16","68414","0.0-4.0-2.2","75","4","2022-11-17 12:25:30","fd252370c17a9971d68c1d4354a03c2e","","Mozilla/5.0 (Windows NT 6.3; Win64; x64) AppleWebKit/537.36 (KHTML, like Gecko) Chrome/107.0.0.0 Safari/537.36","WebKit","Chrome","107.0.0.0","Windows","6.3","null","null","","<p style=""font-size: 48px;"">+</p>","practice","practice_n","",""
"","","","","","picture","37968","image-keyboard-response","17","69591","0.0-4.0-3.2","75","4","2022-11-17 12:25:30","fd252370c17a9971d68c1d4354a03c2e","","Mozilla/5.0 (Windows NT 6.3; Win64; x64) AppleWebKit/537.36 (KHTML, like Gecko) Chrome/107.0.0.0 Safari/537.36","WebKit","Chrome","107.0.0.0","Windows","6.3","1174","n","","bananaB.jpg","practice","practice_n","true",""
"","","","","","","","html-keyboard-response","18","71597","0.0-4.0-4.2","75","4","2022-11-17 12:25:30","fd252370c17a9971d68c1d4354a03c2e","","Mozilla/5.0 (Windows NT 6.3; Win64; x64) AppleWebKit/537.36 (KHTML, like Gecko) Chrome/107.0.0.0 Safari/537.36","WebKit","Chrome","107.0.0.0","Windows","6.3","null","null","","CORRECT!","","","",""
"","","","","","fixation","37968","html-keyboard-response","19","72606","0.0-4.0-0.3","75","4","2022-11-17 12:25:30","fd252370c17a9971d68c1d4354a03c2e","","Mozilla/5.0 (Windows NT 6.3; Win64; x64) AppleWebKit/537.36 (KHTML, like Gecko) Chrome/107.0.0.0 Safari/537.36","WebKit","Chrome","107.0.0.0","Windows","6.3","null","null","","<p style=""font-size: 48px;"">+</p>","practice","practice_s","",""
"","","","","","sentence","37968","html-keyboard-response","20","76546","0.0-4.0-1.3","75","4","2022-11-17 12:25:30","fd252370c17a9971d68c1d4354a03c2e","","Mozilla/5.0 (Windows NT 6.3; Win64; x64) AppleWebKit/537.36 (KHTML, like Gecko) Chrome/107.0.0.0 Safari/537.36","WebKit","Chrome","107.0.0.0","Windows","6.3","3938"," ","","A balloon dropped and touched a cigarette","practice","practice_s","",""
"","","","","","fixation","37968","html-keyboard-response","21","77054","0.0-4.0-2.3","75","4","2022-11-17 12:25:30","fd252370c17a9971d68c1d4354a03c2e","","Mozilla/5.0 (Windows NT 6.3; Win64; x64) AppleWebKit/537.36 (KHTML, like Gecko) Chrome/107.0.0.0 Safari/537.36","WebKit","Chrome","107.0.0.0","Windows","6.3","null","null","","<p style=""font-size: 48px;"">+</p>","practice","practice_s","",""
"","","","","","picture","37968","image-keyboard-response","22","79086","0.0-4.0-3.3","75","4","2022-11-17 12:25:30","fd252370c17a9971d68c1d4354a03c2e","","Mozilla/5.0 (Windows NT 6.3; Win64; x64) AppleWebKit/537.36 (KHTML, like Gecko) Chrome/107.0.0.0 Safari/537.36","WebKit","Chrome","107.0.0.0","Windows","6.3","2028","s","","cigaretteB.jpg","practice","practice_s","true",""
"","","","","","","","html-keyboard-response","23","81094","0.0-4.0-4.3","75","4","2022-11-17 12:25:30","fd252370c17a9971d68c1d4354a03c2e","","Mozilla/5.0 (Windows NT 6.3; Win64; x64) AppleWebKit/537.36 (KHTML, like Gecko) Chrome/107.0.0.0 Safari/537.36","WebKit","Chrome","107.0.0.0","Windows","6.3","null","null","","CORRECT!","","","",""
"","","","","","fixation","37968","html-keyboard-response","24","82102","0.0-4.0-0.4","75","4","2022-11-17 12:25:30","fd252370c17a9971d68c1d4354a03c2e","","Mozilla/5.0 (Windows NT 6.3; Win64; x64) AppleWebKit/537.36 (KHTML, like Gecko) Chrome/107.0.0.0 Safari/537.36","WebKit","Chrome","107.0.0.0","Windows","6.3","null","null","","<p style=""font-size: 48px;"">+</p>","practice","practice_n","",""
"","","","","","sentence","37968","html-keyboard-response","25","84517","0.0-4.0-1.4","75","4","2022-11-17 12:25:30","fd252370c17a9971d68c1d4354a03c2e","","Mozilla/5.0 (Windows NT 6.3; Win64; x64) AppleWebKit/537.36 (KHTML, like Gecko) Chrome/107.0.0.0 Safari/537.36","WebKit","Chrome","107.0.0.0","Windows","6.3","2411"," ","","A bowling ball dropped and touched a bottle","practice","practice_n","",""
"","","","","","fixation","37968","html-keyboard-response","26","85022","0.0-4.0-2.4","75","4","2022-11-17 12:25:30","fd252370c17a9971d68c1d4354a03c2e","","Mozilla/5.0 (Windows NT 6.3; Win64; x64) AppleWebKit/537.36 (KHTML, like Gecko) Chrome/107.0.0.0 Safari/537.36","WebKit","Chrome","107.0.0.0","Windows","6.3","null","null","","<p style=""font-size: 48px;"">+</p>","practice","practice_n","",""
"","","","","","picture","37968","image-keyboard-response","27","86526","0.0-4.0-3.4","75","4","2022-11-17 12:25:30","fd252370c17a9971d68c1d4354a03c2e","","Mozilla/5.0 (Windows NT 6.3; Win64; x64) AppleWebKit/537.36 (KHTML, like Gecko) Chrome/107.0.0.0 Safari/537.36","WebKit","Chrome","107.0.0.0","Windows","6.3","1500","n","","bookB.jpg","practice","practice_n","true",""
"","","","","","","","html-keyboard-response","28","88534","0.0-4.0-4.4","75","4","2022-11-17 12:25:30","fd252370c17a9971d68c1d4354a03c2e","","Mozilla/5.0 (Windows NT 6.3; Win64; x64) AppleWebKit/537.36 (KHTML, like Gecko) Chrome/107.0.0.0 Safari/537.36","WebKit","Chrome","107.0.0.0","Windows","6.3","null","null","","CORRECT!","","","",""
"","","","","","fixation","37968","html-keyboard-response","29","89543","0.0-4.0-0.5","75","4","2022-11-17 12:25:30","fd252370c17a9971d68c1d4354a03c2e","","Mozilla/5.0 (Windows NT 6.3; Win64; x64) AppleWebKit/537.36 (KHTML, like Gecko) Chrome/107.0.0.0 Safari/537.36","WebKit","Chrome","107.0.0.0","Windows","6.3","null","null","","<p style=""font-size: 48px;"">+</p>","practice","practice_s","",""
"","","","","","sentence","37968","html-keyboard-response","30","92450","0.0-4.0-1.5","75","4","2022-11-17 12:25:30","fd252370c17a9971d68c1d4354a03c2e","","Mozilla/5.0 (Windows NT 6.3; Win64; x64) AppleWebKit/537.36 (KHTML, like Gecko) Chrome/107.0.0.0 Safari/537.36","WebKit","Chrome","107.0.0.0","Windows","6.3","2904"," ","","A knife was placed on a hammer","practice","practice_s","",""
"","","","","","fixation","37968","html-keyboard-response","31","92958","0.0-4.0-2.5","75","4","2022-11-17 12:25:30","fd252370c17a9971d68c1d4354a03c2e","","Mozilla/5.0 (Windows NT 6.3; Win64; x64) AppleWebKit/537.36 (KHTML, like Gecko) Chrome/107.0.0.0 Safari/537.36","WebKit","Chrome","107.0.0.0","Windows","6.3","null","null","","<p style=""font-size: 48px;"">+</p>","practice","practice_s","",""
"","","","","","picture","37968","image-keyboard-response","32","94424","0.0-4.0-3.5","75","4","2022-11-17 12:25:30","fd252370c17a9971d68c1d4354a03c2e","","Mozilla/5.0 (Windows NT 6.3; Win64; x64) AppleWebKit/537.36 (KHTML, like Gecko) Chrome/107.0.0.0 Safari/537.36","WebKit","Chrome","107.0.0.0","Windows","6.3","1462","s","","hammerB.jpg","practice","practice_s","true",""
"","","","","","","","html-keyboard-response","33","96429","0.0-4.0-4.5","75","4","2022-11-17 12:25:30","fd252370c17a9971d68c1d4354a03c2e","","Mozilla/5.0 (Windows NT 6.3; Win64; x64) AppleWebKit/537.36 (KHTML, like Gecko) Chrome/107.0.0.0 Safari/537.36","WebKit","Chrome","107.0.0.0","Windows","6.3","null","null","","CORRECT!","","","",""
"","","","","","movetoexp","37968","html-button-response","34","115196","0.0-5.0","75","4","2022-11-17 12:25:30","fd252370c17a9971d68c1d4354a03c2e","","Mozilla/5.0 (Windows NT 6.3; Win64; x64) AppleWebKit/537.36 (KHTML, like Gecko) Chrome/107.0.0.0 Safari/537.36","WebKit","Chrome","107.0.0.0","Windows","6.3","18763","0","","<p style=""font-size:20px;"">You have now completed the practice session! </p>
                    <p style=""font-size:20px;"">You will now move on to the main experiment, where you will not be provided any feedback. </p>
                    <p style=""font-size:20px;"">Remember, you should press <strong>S</strong> if the pictured object was mentioned in the preceding sentence<br> and <strong>N</strong> if the pictured object was not mentioned in the preceding sentence.</p>
                    <p style=""font-size:20px;"">Please click the button below to continue to the main experiment. </p>","","","",""
"","","","","","fixation","37968","html-keyboard-response","35","116206","0.0-6.0-0.0","75","4","2022-11-17 12:25:30","fd252370c17a9971d68c1d4354a03c2e","","Mozilla/5.0 (Windows NT 6.3; Win64; x64) AppleWebKit/537.36 (KHTML, like Gecko) Chrome/107.0.0.0 Safari/537.36","WebKit","Chrome","107.0.0.0","Windows","6.3","null","null","","<p style=""font-size: 48px;"">+</p>","4","Filler","",""
"","","","","","sentence","37968","html-keyboard-response","36","119660","0.0-6.0-1.0","75","4","2022-11-17 12:25:30","fd252370c17a9971d68c1d4354a03c2e","","Mozilla/5.0 (Windows NT 6.3; Win64; x64) AppleWebKit/537.36 (KHTML, like Gecko) Chrome/107.0.0.0 Safari/537.36","WebKit","Chrome","107.0.0.0","Windows","6.3","3451"," ","","A doctor is taking a stethoscope","4","Filler","",""
"","","","","","fixation","37968","html-keyboard-response","37","120165","0.0-6.0-2.0","75","4","2022-11-17 12:25:30","fd252370c17a9971d68c1d4354a03c2e","","Mozilla/5.0 (Windows NT 6.3; Win64; x64) AppleWebKit/537.36 (KHTML, like Gecko) Chrome/107.0.0.0 Safari/537.36","WebKit","Chrome","107.0.0.0","Windows","6.3","null","null","","<p style=""font-size: 48px;"">+</p>","4","Filler","",""
"","","","","","picture","37968","image-keyboard-response","38","122357","0.0-6.0-3.0","75","4","2022-11-17 12:25:30","fd252370c17a9971d68c1d4354a03c2e","","Mozilla/5.0 (Windows NT 6.3; Win64; x64) AppleWebKit/537.36 (KHTML, like Gecko) Chrome/107.0.0.0 Safari/537.36","WebKit","Chrome","107.0.0.0","Windows","6.3","2186","n","","matchesbox.jpg","4","Filler","true",""
"","","","","","fixation","37968","html-keyboard-response","39","123366","0.0-6.0-0.1","75","4","2022-11-17 12:25:30","fd252370c17a9971d68c1d4354a03c2e","","Mozilla/5.0 (Windows NT 6.3; Win64; x64) AppleWebKit/537.36 (KHTML, like Gecko) Chrome/107.0.0.0 Safari/537.36","WebKit","Chrome","107.0.0.0","Windows","6.3","null","null","","<p style=""font-size: 48px;"">+</p>","4","Light-Matched","",""
"","","","","","sentence","37968","html-keyboard-response","40","125979","0.0-6.0-1.1","75","4","2022-11-17 12:25:30","fd252370c17a9971d68c1d4354a03c2e","","Mozilla/5.0 (Windows NT 6.3; Win64; x64) AppleWebKit/537.36 (KHTML, like Gecko) Chrome/107.0.0.0 Safari/537.36","WebKit","Chrome","107.0.0.0","Windows","6.3","2610"," ","","A balloon dropped and touched a chocolate ice-cream","4","Light-Matched","",""
"","","","","","fixation","37968","html-keyboard-response","41","126486","0.0-6.0-2.1","75","4","2022-11-17 12:25:30","fd252370c17a9971d68c1d4354a03c2e","","Mozilla/5.0 (Windows NT 6.3; Win64; x64) AppleWebKit/537.36 (KHTML, like Gecko) Chrome/107.0.0.0 Safari/537.36","WebKit","Chrome","107.0.0.0","Windows","6.3","null","null","","<p style=""font-size: 48px;"">+</p>","4","Light-Matched","",""
"","","","","","picture","37968","image-keyboard-response","42","127943","0.0-6.0-3.1","75","4","2022-11-17 12:25:30","fd252370c17a9971d68c1d4354a03c2e","","Mozilla/5.0 (Windows NT 6.3; Win64; x64) AppleWebKit/537.36 (KHTML, like Gecko) Chrome/107.0.0.0 Safari/537.36","WebKit","Chrome","107.0.0.0","Windows","6.3","1453","s","","icecreamS.jpg","4","Light-Matched","true",""
"","","","","","fixation","37968","html-keyboard-response","43","128950","0.0-6.0-0.2","75","4","2022-11-17 12:25:30","fd252370c17a9971d68c1d4354a03c2e","","Mozilla/5.0 (Windows NT 6.3; Win64; x64) AppleWebKit/537.36 (KHTML, like Gecko) Chrome/107.0.0.0 Safari/537.36","WebKit","Chrome","107.0.0.0","Windows","6.3","null","null","","<p style=""font-size: 48px;"">+</p>","4","Filler","",""
"","","","","","sentence","37968","html-keyboard-response","44","130810","0.0-6.0-1.2","75","4","2022-11-17 12:25:30","fd252370c17a9971d68c1d4354a03c2e","","Mozilla/5.0 (Windows NT 6.3; Win64; x64) AppleWebKit/537.36 (KHTML, like Gecko) Chrome/107.0.0.0 Safari/537.36","WebKit","Chrome","107.0.0.0","Windows","6.3","1856"," ","","A police officer is talking on the phone","4","Filler","",""
"","","","","","fixation","37968","html-keyboard-response","45","131318","0.0-6.0-2.2","75","4","2022-11-17 12:25:30","fd252370c17a9971d68c1d4354a03c2e","","Mozilla/5.0 (Windows NT 6.3; Win64; x64) AppleWebKit/537.36 (KHTML, like Gecko) Chrome/107.0.0.0 Safari/537.36","WebKit","Chrome","107.0.0.0","Windows","6.3","null","null","","<p style=""font-size: 48px;"">+</p>","4","Filler","",""
"","","","","","picture","37968","image-keyboard-response","46","132557","0.0-6.0-3.2","75","4","2022-11-17 12:25:30","fd252370c17a9971d68c1d4354a03c2e","","Mozilla/5.0 (Windows NT 6.3; Win64; x64) AppleWebKit/537.36 (KHTML, like Gecko) Chrome/107.0.0.0 Safari/537.36","WebKit","Chrome","107.0.0.0","Windows","6.3","1234","n","","tissuebox.jpg","4","Filler","true",""
"","","","","","fixation","37968","html-keyboard-response","47","133567","0.0-6.0-0.3","75","4","2022-11-17 12:25:30","fd252370c17a9971d68c1d4354a03c2e","","Mozilla/5.0 (Windows NT 6.3; Win64; x64) AppleWebKit/537.36 (KHTML, like Gecko) Chrome/107.0.0.0 Safari/537.36","WebKit","Chrome","107.0.0.0","Windows","6.3","null","null","","<p style=""font-size: 48px;"">+</p>","4","Filler","",""
"","","","","","sentence","37968","html-keyboard-response","48","134774","0.0-6.0-1.3","75","4","2022-11-17 12:25:30","fd252370c17a9971d68c1d4354a03c2e","","Mozilla/5.0 (Windows NT 6.3; Win64; x64) AppleWebKit/537.36 (KHTML, like Gecko) Chrome/107.0.0.0 Safari/537.36","WebKit","Chrome","107.0.0.0","Windows","6.3","1204"," ","","A donkey is drinking water.","4","Filler","",""
"","","","","","fixation","37968","html-keyboard-response","49","135287","0.0-6.0-2.3","75","4","2022-11-17 12:25:30","fd252370c17a9971d68c1d4354a03c2e","","Mozilla/5.0 (Windows NT 6.3; Win64; x64) AppleWebKit/537.36 (KHTML, like Gecko) Chrome/107.0.0.0 Safari/537.36","WebKit","Chrome","107.0.0.0","Windows","6.3","null","null","","<p style=""font-size: 48px;"">+</p>","4","Filler","",""
"","","","","","picture","37968","image-keyboard-response","50","136357","0.0-6.0-3.3","75","4","2022-11-17 12:25:30","fd252370c17a9971d68c1d4354a03c2e","","Mozilla/5.0 (Windows NT 6.3; Win64; x64) AppleWebKit/537.36 (KHTML, like Gecko) Chrome/107.0.0.0 Safari/537.36","WebKit","Chrome","107.0.0.0","Windows","6.3","1065","n","","couch.jpg","4","Filler","true",""
"","","","","","fixation","37968","html-keyboard-response","51","137366","0.0-6.0-0.4","75","4","2022-11-17 12:25:30","fd252370c17a9971d68c1d4354a03c2e","","Mozilla/5.0 (Windows NT 6.3; Win64; x64) AppleWebKit/537.36 (KHTML, like Gecko) Chrome/107.0.0.0 Safari/537.36","WebKit","Chrome","107.0.0.0","Windows","6.3","null","null","","<p style=""font-size: 48px;"">+</p>","4","Filler","",""
"","","","","","sentence","37968","html-keyboard-response","52","140244","0.0-6.0-1.4","75","4","2022-11-17 12:25:30","fd252370c17a9971d68c1d4354a03c2e","","Mozilla/5.0 (Windows NT 6.3; Win64; x64) AppleWebKit/537.36 (KHTML, like Gecko) Chrome/107.0.0.0 Safari/537.36","WebKit","Chrome","107.0.0.0","Windows","6.3","2874"," ","","A woman is paying with a debit card","4","Filler","",""
"","","","","","fixation","37968","html-keyboard-response","53","140750","0.0-6.0-2.4","75","4","2022-11-17 12:25:30","fd252370c17a9971d68c1d4354a03c2e","","Mozilla/5.0 (Windows NT 6.3; Win64; x64) AppleWebKit/537.36 (KHTML, like Gecko) Chrome/107.0.0.0 Safari/537.36","WebKit","Chrome","107.0.0.0","Windows","6.3","null","null","","<p style=""font-size: 48px;"">+</p>","4","Filler","",""
"","","","","","picture","37968","image-keyboard-response","54","142359","0.0-6.0-3.4","75","4","2022-11-17 12:25:30","fd252370c17a9971d68c1d4354a03c2e","","Mozilla/5.0 (Windows NT 6.3; Win64; x64) AppleWebKit/537.36 (KHTML, like Gecko) Chrome/107.0.0.0 Safari/537.36","WebKit","Chrome","107.0.0.0","Windows","6.3","1603","n","","papercup.jpg","4","Filler","true",""
"","","","","","fixation","37968","html-keyboard-response","55","143365","0.0-6.0-0.5","75","4","2022-11-17 12:25:30","fd252370c17a9971d68c1d4354a03c2e","","Mozilla/5.0 (Windows NT 6.3; Win64; x64) AppleWebKit/537.36 (KHTML, like Gecko) Chrome/107.0.0.0 Safari/537.36","WebKit","Chrome","107.0.0.0","Windows","6.3","null","null","","<p style=""font-size: 48px;"">+</p>","4","Filler","",""
"","","","","","sentence","37968","html-keyboard-response","56","144972","0.0-6.0-1.5","75","4","2022-11-17 12:25:30","fd252370c17a9971d68c1d4354a03c2e","","Mozilla/5.0 (Windows NT 6.3; Win64; x64) AppleWebKit/537.36 (KHTML, like Gecko) Chrome/107.0.0.0 Safari/537.36","WebKit","Chrome","107.0.0.0","Windows","6.3","1602"," ","","A puppy is playing with a ball","4","Filler","",""
"","","","","","fixation","37968","html-keyboard-response","57","145478","0.0-6.0-2.5","75","4","2022-11-17 12:25:30","fd252370c17a9971d68c1d4354a03c2e","","Mozilla/5.0 (Windows NT 6.3; Win64; x64) AppleWebKit/537.36 (KHTML, like Gecko) Chrome/107.0.0.0 Safari/537.36","WebKit","Chrome","107.0.0.0","Windows","6.3","null","null","","<p style=""font-size: 48px;"">+</p>","4","Filler","",""
"","","","","","picture","37968","image-keyboard-response","58","146376","0.0-6.0-3.5","75","4","2022-11-17 12:25:30","fd252370c17a9971d68c1d4354a03c2e","","Mozilla/5.0 (Windows NT 6.3; Win64; x64) AppleWebKit/537.36 (KHTML, like Gecko) Chrome/107.0.0.0 Safari/537.36","WebKit","Chrome","107.0.0.0","Windows","6.3","892","s","","tennisball.jpg","4","Filler","true",""
"","","","","","fixation","37968","html-keyboard-response","59","147382","0.0-6.0-0.6","75","4","2022-11-17 12:25:30","fd252370c17a9971d68c1d4354a03c2e","","Mozilla/5.0 (Windows NT 6.3; Win64; x64) AppleWebKit/537.36 (KHTML, like Gecko) Chrome/107.0.0.0 Safari/537.36","WebKit","Chrome","107.0.0.0","Windows","6.3","null","null","","<p style=""font-size: 48px;"">+</p>","4","Filler","",""
"","","","","","sentence","37968","html-keyboard-response","60","150353","0.0-6.0-1.6","75","4","2022-11-17 12:25:30","fd252370c17a9971d68c1d4354a03c2e","","Mozilla/5.0 (Windows NT 6.3; Win64; x64) AppleWebKit/537.36 (KHTML, like Gecko) Chrome/107.0.0.0 Safari/537.36","WebKit","Chrome","107.0.0.0","Windows","6.3","2966"," ","","An astronaut is putting on a space suit","4","Filler","",""
"","","","","","fixation","37968","html-keyboard-response","61","150861","0.0-6.0-2.6","75","4","2022-11-17 12:25:30","fd252370c17a9971d68c1d4354a03c2e","","Mozilla/5.0 (Windows NT 6.3; Win64; x64) AppleWebKit/537.36 (KHTML, like Gecko) Chrome/107.0.0.0 Safari/537.36","WebKit","Chrome","107.0.0.0","Windows","6.3","null","null","","<p style=""font-size: 48px;"">+</p>","4","Filler","",""
"","","","","","picture","37968","image-keyboard-response","62","152019","0.0-6.0-3.6","75","4","2022-11-17 12:25:30","fd252370c17a9971d68c1d4354a03c2e","","Mozilla/5.0 (Windows NT 6.3; Win64; x64) AppleWebKit/537.36 (KHTML, like Gecko) Chrome/107.0.0.0 Safari/537.36","WebKit","Chrome","107.0.0.0","Windows","6.3","1152","s","","spacesuit.jpg","4","Filler","true",""
"","","","","","fixation","37968","html-keyboard-response","63","153030","0.0-6.0-0.7","75","4","2022-11-17 12:25:30","fd252370c17a9971d68c1d4354a03c2e","","Mozilla/5.0 (Windows NT 6.3; Win64; x64) AppleWebKit/537.36 (KHTML, like Gecko) Chrome/107.0.0.0 Safari/537.36","WebKit","Chrome","107.0.0.0","Windows","6.3","null","null","","<p style=""font-size: 48px;"">+</p>","4","Filler","",""
"","","","","","sentence","37968","html-keyboard-response","64","155826","0.0-6.0-1.7","75","4","2022-11-17 12:25:30","fd252370c17a9971d68c1d4354a03c2e","","Mozilla/5.0 (Windows NT 6.3; Win64; x64) AppleWebKit/537.36 (KHTML, like Gecko) Chrome/107.0.0.0 Safari/537.36","WebKit","Chrome","107.0.0.0","Windows","6.3","2792"," ","","A needle was placed on the mouse pad","4","Filler","",""
"","","","","","fixation","37968","html-keyboard-response","65","156333","0.0-6.0-2.7","75","4","2022-11-17 12:25:30","fd252370c17a9971d68c1d4354a03c2e","","Mozilla/5.0 (Windows NT 6.3; Win64; x64) AppleWebKit/537.36 (KHTML, like Gecko) Chrome/107.0.0.0 Safari/537.36","WebKit","Chrome","107.0.0.0","Windows","6.3","null","null","","<p style=""font-size: 48px;"">+</p>","4","Filler","",""
"","","","","","picture","37968","image-keyboard-response","66","157420","0.0-6.0-3.7","75","4","2022-11-17 12:25:30","fd252370c17a9971d68c1d4354a03c2e","","Mozilla/5.0 (Windows NT 6.3; Win64; x64) AppleWebKit/537.36 (KHTML, like Gecko) Chrome/107.0.0.0 Safari/537.36","WebKit","Chrome","107.0.0.0","Windows","6.3","1079","n","","chocolate.jpg","4","Filler","true",""
"","","","","","fixation","37968","html-keyboard-response","67","158429","0.0-6.0-0.8","75","4","2022-11-17 12:25:30","fd252370c17a9971d68c1d4354a03c2e","","Mozilla/5.0 (Windows NT 6.3; Win64; x64) AppleWebKit/537.36 (KHTML, like Gecko) Chrome/107.0.0.0 Safari/537.36","WebKit","Chrome","107.0.0.0","Windows","6.3","null","null","","<p style=""font-size: 48px;"">+</p>","4","Filler","",""
"","","","","","sentence","37968","html-keyboard-response","68","162255","0.0-6.0-1.8","75","4","2022-11-17 12:25:30","fd252370c17a9971d68c1d4354a03c2e","","Mozilla/5.0 (Windows NT 6.3; Win64; x64) AppleWebKit/537.36 (KHTML, like Gecko) Chrome/107.0.0.0 Safari/537.36","WebKit","Chrome","107.0.0.0","Windows","6.3","3821"," ","","A cushion was placed on the magazine","4","Filler","",""
"","","","","","fixation","37968","html-keyboard-response","69","162766","0.0-6.0-2.8","75","4","2022-11-17 12:25:30","fd252370c17a9971d68c1d4354a03c2e","","Mozilla/5.0 (Windows NT 6.3; Win64; x64) AppleWebKit/537.36 (KHTML, like Gecko) Chrome/107.0.0.0 Safari/537.36","WebKit","Chrome","107.0.0.0","Windows","6.3","null","null","","<p style=""font-size: 48px;"">+</p>","4","Filler","",""
"","","","","","picture","37968","image-keyboard-response","70","164240","0.0-6.0-3.8","75","4","2022-11-17 12:25:30","fd252370c17a9971d68c1d4354a03c2e","","Mozilla/5.0 (Windows NT 6.3; Win64; x64) AppleWebKit/537.36 (KHTML, like Gecko) Chrome/107.0.0.0 Safari/537.36","WebKit","Chrome","107.0.0.0","Windows","6.3","1469","n","","box.jpg","4","Filler","true",""
"","","","","","fixation","37968","html-keyboard-response","71","165254","0.0-6.0-0.9","75","4","2022-11-17 12:25:30","fd252370c17a9971d68c1d4354a03c2e","","Mozilla/5.0 (Windows NT 6.3; Win64; x64) AppleWebKit/537.36 (KHTML, like Gecko) Chrome/107.0.0.0 Safari/537.36","WebKit","Chrome","107.0.0.0","Windows","6.3","null","null","","<p style=""font-size: 48px;"">+</p>","4","Filler","",""
"","","","","","sentence","37968","html-keyboard-response","72","168148","0.0-6.0-1.9","75","4","2022-11-17 12:25:30","fd252370c17a9971d68c1d4354a03c2e","","Mozilla/5.0 (Windows NT 6.3; Win64; x64) AppleWebKit/537.36 (KHTML, like Gecko) Chrome/107.0.0.0 Safari/537.36","WebKit","Chrome","107.0.0.0","Windows","6.3","2890"," ","","A giraffe is playing with a zebra","4","Filler","",""
"","","","","","fixation","37968","html-keyboard-response","73","168654","0.0-6.0-2.9","75","4","2022-11-17 12:25:30","fd252370c17a9971d68c1d4354a03c2e","","Mozilla/5.0 (Windows NT 6.3; Win64; x64) AppleWebKit/537.36 (KHTML, like Gecko) Chrome/107.0.0.0 Safari/537.36","WebKit","Chrome","107.0.0.0","Windows","6.3","null","null","","<p style=""font-size: 48px;"">+</p>","4","Filler","",""
"","","","","","picture","37968","image-keyboard-response","74","169663","0.0-6.0-3.9","75","4","2022-11-17 12:25:30","fd252370c17a9971d68c1d4354a03c2e","","Mozilla/5.0 (Windows NT 6.3; Win64; x64) AppleWebKit/537.36 (KHTML, like Gecko) Chrome/107.0.0.0 Safari/537.36","WebKit","Chrome","107.0.0.0","Windows","6.3","1001","n","","wallet.jpg","4","Filler","true",""
"","","","","","fixation","37968","html-keyboard-response","75","170670","0.0-6.0-0.10","75","4","2022-11-17 12:25:30","fd252370c17a9971d68c1d4354a03c2e","","Mozilla/5.0 (Windows NT 6.3; Win64; x64) AppleWebKit/537.36 (KHTML, like Gecko) Chrome/107.0.0.0 Safari/537.36","WebKit","Chrome","107.0.0.0","Windows","6.3","null","null","","<p style=""font-size: 48px;"">+</p>","4","Filler","",""
"","","","","","sentence","37968","html-keyboard-response","76","172531","0.0-6.0-1.10","75","4","2022-11-17 12:25:30","fd252370c17a9971d68c1d4354a03c2e","","Mozilla/5.0 (Windows NT 6.3; Win64; x64) AppleWebKit/537.36 (KHTML, like Gecko) Chrome/107.0.0.0 Safari/537.36","WebKit","Chrome","107.0.0.0","Windows","6.3","1856"," ","","A pencil was placed on the shoe","4","Filler","",""
"","","","","","fixation","37968","html-keyboard-response","77","173038","0.0-6.0-2.10","75","4","2022-11-17 12:25:30","fd252370c17a9971d68c1d4354a03c2e","","Mozilla/5.0 (Windows NT 6.3; Win64; x64) AppleWebKit/537.36 (KHTML, like Gecko) Chrome/107.0.0.0 Safari/537.36","WebKit","Chrome","107.0.0.0","Windows","6.3","null","null","","<p style=""font-size: 48px;"">+</p>","4","Filler","",""
"","","","","","picture","37968","image-keyboard-response","78","175463","0.0-6.0-3.10","75","4","2022-11-17 12:25:30","fd252370c17a9971d68c1d4354a03c2e","","Mozilla/5.0 (Windows NT 6.3; Win64; x64) AppleWebKit/537.36 (KHTML, like Gecko) Chrome/107.0.0.0 Safari/537.36","WebKit","Chrome","107.0.0.0","Windows","6.3","2419","n","","perfume.jpg","4","Filler","true",""
"","","","","","fixation","37968","html-keyboard-response","79","176478","0.0-6.0-0.11","75","4","2022-11-17 12:25:30","fd252370c17a9971d68c1d4354a03c2e","","Mozilla/5.0 (Windows NT 6.3; Win64; x64) AppleWebKit/537.36 (KHTML, like Gecko) Chrome/107.0.0.0 Safari/537.36","WebKit","Chrome","107.0.0.0","Windows","6.3","null","null","","<p style=""font-size: 48px;"">+</p>","4","Light-Contradictory","",""
"","","","","","sentence","37968","html-keyboard-response","80","178750","0.0-6.0-1.11","75","4","2022-11-17 12:25:30","fd252370c17a9971d68c1d4354a03c2e","","Mozilla/5.0 (Windows NT 6.3; Win64; x64) AppleWebKit/537.36 (KHTML, like Gecko) Chrome/107.0.0.0 Safari/537.36","WebKit","Chrome","107.0.0.0","Windows","6.3","2267"," ","","A balloon dropped and smashed a chocolate muffin","4","Light-Contradictory","",""
"","","","","","fixation","37968","html-keyboard-response","81","179261","0.0-6.0-2.11","75","4","2022-11-17 12:25:30","fd252370c17a9971d68c1d4354a03c2e","","Mozilla/5.0 (Windows NT 6.3; Win64; x64) AppleWebKit/537.36 (KHTML, like Gecko) Chrome/107.0.0.0 Safari/537.36","WebKit","Chrome","107.0.0.0","Windows","6.3","null","null","","<p style=""font-size: 48px;"">+</p>","4","Light-Contradictory","",""
"","","","","","picture","37968","image-keyboard-response","82","180413","0.0-6.0-3.11","75","4","2022-11-17 12:25:30","fd252370c17a9971d68c1d4354a03c2e","","Mozilla/5.0 (Windows NT 6.3; Win64; x64) AppleWebKit/537.36 (KHTML, like Gecko) Chrome/107.0.0.0 Safari/537.36","WebKit","Chrome","107.0.0.0","Windows","6.3","1144","s","","muffinS.jpg","4","Light-Contradictory","true",""
"","","","","","fixation","37968","html-keyboard-response","83","181422","0.0-6.0-0.12","75","4","2022-11-17 12:25:30","fd252370c17a9971d68c1d4354a03c2e","","Mozilla/5.0 (Windows NT 6.3; Win64; x64) AppleWebKit/537.36 (KHTML, like Gecko) Chrome/107.0.0.0 Safari/537.36","WebKit","Chrome","107.0.0.0","Windows","6.3","null","null","","<p style=""font-size: 48px;"">+</p>","4","Filler","",""
"","","","","","sentence","37968","html-keyboard-response","84","183434","0.0-6.0-1.12","75","4","2022-11-17 12:25:30","fd252370c17a9971d68c1d4354a03c2e","","Mozilla/5.0 (Windows NT 6.3; Win64; x64) AppleWebKit/537.36 (KHTML, like Gecko) Chrome/107.0.0.0 Safari/537.36","WebKit","Chrome","107.0.0.0","Windows","6.3","2007"," ","","A president is writing in the notebook","4","Filler","",""
"","","","","","fixation","37968","html-keyboard-response","85","183941","0.0-6.0-2.12","75","4","2022-11-17 12:25:30","fd252370c17a9971d68c1d4354a03c2e","","Mozilla/5.0 (Windows NT 6.3; Win64; x64) AppleWebKit/537.36 (KHTML, like Gecko) Chrome/107.0.0.0 Safari/537.36","WebKit","Chrome","107.0.0.0","Windows","6.3","null","null","","<p style=""font-size: 48px;"">+</p>","4","Filler","",""
"","","","","","picture","37968","image-keyboard-response","86","185048","0.0-6.0-3.12","75","4","2022-11-17 12:25:30","fd252370c17a9971d68c1d4354a03c2e","","Mozilla/5.0 (Windows NT 6.3; Win64; x64) AppleWebKit/537.36 (KHTML, like Gecko) Chrome/107.0.0.0 Safari/537.36","WebKit","Chrome","107.0.0.0","Windows","6.3","1099","n","","can.jpg","4","Filler","true",""
"","","","","","fixation","37968","html-keyboard-response","87","186062","0.0-6.0-0.13","75","4","2022-11-17 12:25:30","fd252370c17a9971d68c1d4354a03c2e","","Mozilla/5.0 (Windows NT 6.3; Win64; x64) AppleWebKit/537.36 (KHTML, like Gecko) Chrome/107.0.0.0 Safari/537.36","WebKit","Chrome","107.0.0.0","Windows","6.3","null","null","","<p style=""font-size: 48px;"">+</p>","4","Filler","",""
"","","","","","sentence","37968","html-keyboard-response","88","187404","0.0-6.0-1.13","75","4","2022-11-17 12:25:30","fd252370c17a9971d68c1d4354a03c2e","","Mozilla/5.0 (Windows NT 6.3; Win64; x64) AppleWebKit/537.36 (KHTML, like Gecko) Chrome/107.0.0.0 Safari/537.36","WebKit","Chrome","107.0.0.0","Windows","6.3","1335"," ","","A horse is chewing hay","4","Filler","",""
"","","","","","fixation","37968","html-keyboard-response","89","187917","0.0-6.0-2.13","75","4","2022-11-17 12:25:30","fd252370c17a9971d68c1d4354a03c2e","","Mozilla/5.0 (Windows NT 6.3; Win64; x64) AppleWebKit/537.36 (KHTML, like Gecko) Chrome/107.0.0.0 Safari/537.36","WebKit","Chrome","107.0.0.0","Windows","6.3","null","null","","<p style=""font-size: 48px;"">+</p>","4","Filler","",""
"","","","","","picture","37968","image-keyboard-response","90","188861","0.0-6.0-3.13","75","4","2022-11-17 12:25:30","fd252370c17a9971d68c1d4354a03c2e","","Mozilla/5.0 (Windows NT 6.3; Win64; x64) AppleWebKit/537.36 (KHTML, like Gecko) Chrome/107.0.0.0 Safari/537.36","WebKit","Chrome","107.0.0.0","Windows","6.3","935","n","","purse.jpg","4","Filler","true",""
"","","","","","fixation","37968","html-keyboard-response","91","189870","0.0-6.0-0.14","75","4","2022-11-17 12:25:30","fd252370c17a9971d68c1d4354a03c2e","","Mozilla/5.0 (Windows NT 6.3; Win64; x64) AppleWebKit/537.36 (KHTML, like Gecko) Chrome/107.0.0.0 Safari/537.36","WebKit","Chrome","107.0.0.0","Windows","6.3","null","null","","<p style=""font-size: 48px;"">+</p>","4","Filler","",""
"","","","","","sentence","37968","html-keyboard-response","92","191706","0.0-6.0-1.14","75","4","2022-11-17 12:25:30","fd252370c17a9971d68c1d4354a03c2e","","Mozilla/5.0 (Windows NT 6.3; Win64; x64) AppleWebKit/537.36 (KHTML, like Gecko) Chrome/107.0.0.0 Safari/537.36","WebKit","Chrome","107.0.0.0","Windows","6.3","1830"," ","","A dentist is drinking a can of cola","4","Filler","",""
"","","","","","fixation","37968","html-keyboard-response","93","192214","0.0-6.0-2.14","75","4","2022-11-17 12:25:30","fd252370c17a9971d68c1d4354a03c2e","","Mozilla/5.0 (Windows NT 6.3; Win64; x64) AppleWebKit/537.36 (KHTML, like Gecko) Chrome/107.0.0.0 Safari/537.36","WebKit","Chrome","107.0.0.0","Windows","6.3","null","null","","<p style=""font-size: 48px;"">+</p>","4","Filler","",""
"","","","","","picture","37968","image-keyboard-response","94","193200","0.0-6.0-3.14","75","4","2022-11-17 12:25:30","fd252370c17a9971d68c1d4354a03c2e","","Mozilla/5.0 (Windows NT 6.3; Win64; x64) AppleWebKit/537.36 (KHTML, like Gecko) Chrome/107.0.0.0 Safari/537.36","WebKit","Chrome","107.0.0.0","Windows","6.3","979","n","","doll.jpg","4","Filler","true",""
"","","","","","fixation","37968","html-keyboard-response","95","194214","0.0-6.0-0.15","75","4","2022-11-17 12:25:30","fd252370c17a9971d68c1d4354a03c2e","","Mozilla/5.0 (Windows NT 6.3; Win64; x64) AppleWebKit/537.36 (KHTML, like Gecko) Chrome/107.0.0.0 Safari/537.36","WebKit","Chrome","107.0.0.0","Windows","6.3","null","null","","<p style=""font-size: 48px;"">+</p>","4","Heavy-Matched","",""
"","","","","","sentence","37968","html-keyboard-response","96","197562","0.0-6.0-1.15","75","4","2022-11-17 12:25:30","fd252370c17a9971d68c1d4354a03c2e","","Mozilla/5.0 (Windows NT 6.3; Win64; x64) AppleWebKit/537.36 (KHTML, like Gecko) Chrome/107.0.0.0 Safari/537.36","WebKit","Chrome","107.0.0.0","Windows","6.3","3341"," ","","A bowling ball dropped and smashed a tile","4","Heavy-Matched","",""
"","","","","","fixation","37968","html-keyboard-response","97","198069","0.0-6.0-2.15","75","4","2022-11-17 12:25:30","fd252370c17a9971d68c1d4354a03c2e","","Mozilla/5.0 (Windows NT 6.3; Win64; x64) AppleWebKit/537.36 (KHTML, like Gecko) Chrome/107.0.0.0 Safari/537.36","WebKit","Chrome","107.0.0.0","Windows","6.3","null","null","","<p style=""font-size: 48px;"">+</p>","4","Heavy-Matched","",""
"","","","","","picture","37968","image-keyboard-response","98","199093","0.0-6.0-3.15","75","4","2022-11-17 12:25:30","fd252370c17a9971d68c1d4354a03c2e","","Mozilla/5.0 (Windows NT 6.3; Win64; x64) AppleWebKit/537.36 (KHTML, like Gecko) Chrome/107.0.0.0 Safari/537.36","WebKit","Chrome","107.0.0.0","Windows","6.3","1014","s","","tileS.jpg","4","Heavy-Matched","true",""
"","","","","","fixation","37968","html-keyboard-response","99","200102","0.0-6.0-0.16","75","4","2022-11-17 12:25:30","fd252370c17a9971d68c1d4354a03c2e","","Mozilla/5.0 (Windows NT 6.3; Win64; x64) AppleWebKit/537.36 (KHTML, like Gecko) Chrome/107.0.0.0 Safari/537.36","WebKit","Chrome","107.0.0.0","Windows","6.3","null","null","","<p style=""font-size: 48px;"">+</p>","4","Filler","",""
"","","","","","sentence","37968","html-keyboard-response","100","201518","0.0-6.0-1.16","75","4","2022-11-17 12:25:30","fd252370c17a9971d68c1d4354a03c2e","","Mozilla/5.0 (Windows NT 6.3; Win64; x64) AppleWebKit/537.36 (KHTML, like Gecko) Chrome/107.0.0.0 Safari/537.36","WebKit","Chrome","107.0.0.0","Windows","6.3","1406"," ","","A butterfly is sitting on a flower","4","Filler","",""
"","","","","","fixation","37968","html-keyboard-response","101","202030","0.0-6.0-2.16","75","4","2022-11-17 12:25:30","fd252370c17a9971d68c1d4354a03c2e","","Mozilla/5.0 (Windows NT 6.3; Win64; x64) AppleWebKit/537.36 (KHTML, like Gecko) Chrome/107.0.0.0 Safari/537.36","WebKit","Chrome","107.0.0.0","Windows","6.3","null","null","","<p style=""font-size: 48px;"">+</p>","4","Filler","",""
"","","","","","picture","37968","image-keyboard-response","102","203653","0.0-6.0-3.16","75","4","2022-11-17 12:25:30","fd252370c17a9971d68c1d4354a03c2e","","Mozilla/5.0 (Windows NT 6.3; Win64; x64) AppleWebKit/537.36 (KHTML, like Gecko) Chrome/107.0.0.0 Safari/537.36","WebKit","Chrome","107.0.0.0","Windows","6.3","1614","n","","soap.jpg","4","Filler","true",""
"","","","","","fixation","37968","html-keyboard-response","103","204661","0.0-6.0-0.17","75","4","2022-11-17 12:25:30","fd252370c17a9971d68c1d4354a03c2e","","Mozilla/5.0 (Windows NT 6.3; Win64; x64) AppleWebKit/537.36 (KHTML, like Gecko) Chrome/107.0.0.0 Safari/537.36","WebKit","Chrome","107.0.0.0","Windows","6.3","null","null","","<p style=""font-size: 48px;"">+</p>","4","Light-Matched","",""
"","","","","","sentence","37968","html-keyboard-response","104","206858","0.0-6.0-1.17","75","4","2022-11-17 12:25:30","fd252370c17a9971d68c1d4354a03c2e","","Mozilla/5.0 (Windows NT 6.3; Win64; x64) AppleWebKit/537.36 (KHTML, like Gecko) Chrome/107.0.0.0 Safari/537.36","WebKit","Chrome","107.0.0.0","Windows","6.3","2188"," ","","A balloon dropped and touched an iPAD","4","Light-Matched","",""
"","","","","","fixation","37968","html-keyboard-response","105","207366","0.0-6.0-2.17","75","4","2022-11-17 12:25:30","fd252370c17a9971d68c1d4354a03c2e","","Mozilla/5.0 (Windows NT 6.3; Win64; x64) AppleWebKit/537.36 (KHTML, like Gecko) Chrome/107.0.0.0 Safari/537.36","WebKit","Chrome","107.0.0.0","Windows","6.3","null","null","","<p style=""font-size: 48px;"">+</p>","4","Light-Matched","",""
"","","","","","picture","37968","image-keyboard-response","106","209056","0.0-6.0-3.17","75","4","2022-11-17 12:25:30","fd252370c17a9971d68c1d4354a03c2e","","Mozilla/5.0 (Windows NT 6.3; Win64; x64) AppleWebKit/537.36 (KHTML, like Gecko) Chrome/107.0.0.0 Safari/537.36","WebKit","Chrome","107.0.0.0","Windows","6.3","1684","s","","iPadS.jpg","4","Light-Matched","true",""
"","","","","","fixation","37968","html-keyboard-response","107","210070","0.0-6.0-0.18","75","4","2022-11-17 12:25:30","fd252370c17a9971d68c1d4354a03c2e","","Mozilla/5.0 (Windows NT 6.3; Win64; x64) AppleWebKit/537.36 (KHTML, like Gecko) Chrome/107.0.0.0 Safari/537.36","WebKit","Chrome","107.0.0.0","Windows","6.3","null","null","","<p style=""font-size: 48px;"">+</p>","4","Filler","",""
"","","","","","sentence","37968","html-keyboard-response","108","216288","0.0-6.0-1.18","75","4","2022-11-17 12:25:30","fd252370c17a9971d68c1d4354a03c2e","","Mozilla/5.0 (Windows NT 6.3; Win64; x64) AppleWebKit/537.36 (KHTML, like Gecko) Chrome/107.0.0.0 Safari/537.36","WebKit","Chrome","107.0.0.0","Windows","6.3","6212"," ","","An actress is taking a microphone","4","Filler","",""
"","","","","","fixation","37968","html-keyboard-response","109","216798","0.0-6.0-2.18","75","4","2022-11-17 12:25:30","fd252370c17a9971d68c1d4354a03c2e","","Mozilla/5.0 (Windows NT 6.3; Win64; x64) AppleWebKit/537.36 (KHTML, like Gecko) Chrome/107.0.0.0 Safari/537.36","WebKit","Chrome","107.0.0.0","Windows","6.3","null","null","","<p style=""font-size: 48px;"">+</p>","4","Filler","",""
"","","","","","picture","37968","image-keyboard-response","110","217840","0.0-6.0-3.18","75","4","2022-11-17 12:25:30","fd252370c17a9971d68c1d4354a03c2e","","Mozilla/5.0 (Windows NT 6.3; Win64; x64) AppleWebKit/537.36 (KHTML, like Gecko) Chrome/107.0.0.0 Safari/537.36","WebKit","Chrome","107.0.0.0","Windows","6.3","1032","n","","pants.jpg","4","Filler","true",""
"","","","","","fixation","37968","html-keyboard-response","111","218853","0.0-6.0-0.19","75","4","2022-11-17 12:25:30","fd252370c17a9971d68c1d4354a03c2e","","Mozilla/5.0 (Windows NT 6.3; Win64; x64) AppleWebKit/537.36 (KHTML, like Gecko) Chrome/107.0.0.0 Safari/537.36","WebKit","Chrome","107.0.0.0","Windows","6.3","null","null","","<p style=""font-size: 48px;"">+</p>","4","Filler","",""
"","","","","","sentence","37968","html-keyboard-response","112","221834","0.0-6.0-1.19","75","4","2022-11-17 12:25:30","fd252370c17a9971d68c1d4354a03c2e","","Mozilla/5.0 (Windows NT 6.3; Win64; x64) AppleWebKit/537.36 (KHTML, like Gecko) Chrome/107.0.0.0 Safari/537.36","WebKit","Chrome","107.0.0.0","Windows","6.3","2972"," ","","A cook is taking a knife","4","Filler","",""
"","","","","","fixation","37968","html-keyboard-response","113","222350","0.0-6.0-2.19","75","4","2022-11-17 12:25:30","fd252370c17a9971d68c1d4354a03c2e","","Mozilla/5.0 (Windows NT 6.3; Win64; x64) AppleWebKit/537.36 (KHTML, like Gecko) Chrome/107.0.0.0 Safari/537.36","WebKit","Chrome","107.0.0.0","Windows","6.3","null","null","","<p style=""font-size: 48px;"">+</p>","4","Filler","",""
"","","","","","picture","37968","image-keyboard-response","114","224903","0.0-6.0-3.19","75","4","2022-11-17 12:25:30","fd252370c17a9971d68c1d4354a03c2e","","Mozilla/5.0 (Windows NT 6.3; Win64; x64) AppleWebKit/537.36 (KHTML, like Gecko) Chrome/107.0.0.0 Safari/537.36","WebKit","Chrome","107.0.0.0","Windows","6.3","2544","s","","knife.jpg","4","Filler","true",""
"","","","","","fixation","37968","html-keyboard-response","115","225918","0.0-6.0-0.20","75","4","2022-11-17 12:25:30","fd252370c17a9971d68c1d4354a03c2e","","Mozilla/5.0 (Windows NT 6.3; Win64; x64) AppleWebKit/537.36 (KHTML, like Gecko) Chrome/107.0.0.0 Safari/537.36","WebKit","Chrome","107.0.0.0","Windows","6.3","null","null","","<p style=""font-size: 48px;"">+</p>","4","Filler","",""
"","","","","","sentence","37968","html-keyboard-response","116","227467","0.0-6.0-1.20","75","4","2022-11-17 12:25:30","fd252370c17a9971d68c1d4354a03c2e","","Mozilla/5.0 (Windows NT 6.3; Win64; x64) AppleWebKit/537.36 (KHTML, like Gecko) Chrome/107.0.0.0 Safari/537.36","WebKit","Chrome","107.0.0.0","Windows","6.3","1541"," ","","A pilot is reading a book","4","Filler","",""
"","","","","","fixation","37968","html-keyboard-response","117","227982","0.0-6.0-2.20","75","4","2022-11-17 12:25:30","fd252370c17a9971d68c1d4354a03c2e","","Mozilla/5.0 (Windows NT 6.3; Win64; x64) AppleWebKit/537.36 (KHTML, like Gecko) Chrome/107.0.0.0 Safari/537.36","WebKit","Chrome","107.0.0.0","Windows","6.3","null","null","","<p style=""font-size: 48px;"">+</p>","4","Filler","",""
"","","","","","picture","37968","image-keyboard-response","118","228903","0.0-6.0-3.20","75","4","2022-11-17 12:25:30","fd252370c17a9971d68c1d4354a03c2e","","Mozilla/5.0 (Windows NT 6.3; Win64; x64) AppleWebKit/537.36 (KHTML, like Gecko) Chrome/107.0.0.0 Safari/537.36","WebKit","Chrome","107.0.0.0","Windows","6.3","911","n","","spoon.jpg","4","Filler","true",""
"","","","","","fixation","37968","html-keyboard-response","119","229918","0.0-6.0-0.21","75","4","2022-11-17 12:25:30","fd252370c17a9971d68c1d4354a03c2e","","Mozilla/5.0 (Windows NT 6.3; Win64; x64) AppleWebKit/537.36 (KHTML, like Gecko) Chrome/107.0.0.0 Safari/537.36","WebKit","Chrome","107.0.0.0","Windows","6.3","null","null","","<p style=""font-size: 48px;"">+</p>","4","Filler","",""
"","","","","","sentence","37968","html-keyboard-response","120","232365","0.0-6.0-1.21","75","4","2022-11-17 12:25:30","fd252370c17a9971d68c1d4354a03c2e","","Mozilla/5.0 (Windows NT 6.3; Win64; x64) AppleWebKit/537.36 (KHTML, like Gecko) Chrome/107.0.0.0 Safari/537.36","WebKit","Chrome","107.0.0.0","Windows","6.3","2439"," ","","A parrot is eating an apple","4","Filler","",""
"","","","","","fixation","37968","html-keyboard-response","121","232878","0.0-6.0-2.21","75","4","2022-11-17 12:25:30","fd252370c17a9971d68c1d4354a03c2e","","Mozilla/5.0 (Windows NT 6.3; Win64; x64) AppleWebKit/537.36 (KHTML, like Gecko) Chrome/107.0.0.0 Safari/537.36","WebKit","Chrome","107.0.0.0","Windows","6.3","null","null","","<p style=""font-size: 48px;"">+</p>","4","Filler","",""
"","","","","","picture","37968","image-keyboard-response","122","234193","0.0-6.0-3.21","75","4","2022-11-17 12:25:30","fd252370c17a9971d68c1d4354a03c2e","","Mozilla/5.0 (Windows NT 6.3; Win64; x64) AppleWebKit/537.36 (KHTML, like Gecko) Chrome/107.0.0.0 Safari/537.36","WebKit","Chrome","107.0.0.0","Windows","6.3","1305","n","","shirt.jpg","4","Filler","true",""
"","","","","","fixation","37968","html-keyboard-response","123","235206","0.0-6.0-0.22","75","4","2022-11-17 12:25:30","fd252370c17a9971d68c1d4354a03c2e","","Mozilla/5.0 (Windows NT 6.3; Win64; x64) AppleWebKit/537.36 (KHTML, like Gecko) Chrome/107.0.0.0 Safari/537.36","WebKit","Chrome","107.0.0.0","Windows","6.3","null","null","","<p style=""font-size: 48px;"">+</p>","4","Heavy-Matched","",""
"","","","","","sentence","37968","html-keyboard-response","124","237391","0.0-6.0-1.22","75","4","2022-11-17 12:25:30","fd252370c17a9971d68c1d4354a03c2e","","Mozilla/5.0 (Windows NT 6.3; Win64; x64) AppleWebKit/537.36 (KHTML, like Gecko) Chrome/107.0.0.0 Safari/537.36","WebKit","Chrome","107.0.0.0","Windows","6.3","2174"," ","","A bowling ball  dropped and smashed a vase","4","Heavy-Matched","",""
"","","","","","fixation","37968","html-keyboard-response","125","237902","0.0-6.0-2.22","75","4","2022-11-17 12:25:30","fd252370c17a9971d68c1d4354a03c2e","","Mozilla/5.0 (Windows NT 6.3; Win64; x64) AppleWebKit/537.36 (KHTML, like Gecko) Chrome/107.0.0.0 Safari/537.36","WebKit","Chrome","107.0.0.0","Windows","6.3","null","null","","<p style=""font-size: 48px;"">+</p>","4","Heavy-Matched","",""
"","","","","","picture","37968","image-keyboard-response","126","238816","0.0-6.0-3.22","75","4","2022-11-17 12:25:30","fd252370c17a9971d68c1d4354a03c2e","","Mozilla/5.0 (Windows NT 6.3; Win64; x64) AppleWebKit/537.36 (KHTML, like Gecko) Chrome/107.0.0.0 Safari/537.36","WebKit","Chrome","107.0.0.0","Windows","6.3","905","s","","vaseS.jpg","4","Heavy-Matched","true",""
"","","","","","fixation","37968","html-keyboard-response","127","239860","0.0-6.0-0.23","75","4","2022-11-17 12:25:30","fd252370c17a9971d68c1d4354a03c2e","","Mozilla/5.0 (Windows NT 6.3; Win64; x64) AppleWebKit/537.36 (KHTML, like Gecko) Chrome/107.0.0.0 Safari/537.36","WebKit","Chrome","107.0.0.0","Windows","6.3","null","null","","<p style=""font-size: 48px;"">+</p>","4","Heavy-Contradictory","",""
"","","","","","sentence","37968","html-keyboard-response","128","241389","0.0-6.0-1.23","75","4","2022-11-17 12:25:30","fd252370c17a9971d68c1d4354a03c2e","","Mozilla/5.0 (Windows NT 6.3; Win64; x64) AppleWebKit/537.36 (KHTML, like Gecko) Chrome/107.0.0.0 Safari/537.36","WebKit","Chrome","107.0.0.0","Windows","6.3","1515"," ","","A bowling ball dropped and touched an egg","4","Heavy-Contradictory","",""
"","","","","","fixation","37968","html-keyboard-response","129","241902","0.0-6.0-2.23","75","4","2022-11-17 12:25:30","fd252370c17a9971d68c1d4354a03c2e","","Mozilla/5.0 (Windows NT 6.3; Win64; x64) AppleWebKit/537.36 (KHTML, like Gecko) Chrome/107.0.0.0 Safari/537.36","WebKit","Chrome","107.0.0.0","Windows","6.3","null","null","","<p style=""font-size: 48px;"">+</p>","4","Heavy-Contradictory","",""
"","","","","","picture","37968","image-keyboard-response","130","242758","0.0-6.0-3.23","75","4","2022-11-17 12:25:30","fd252370c17a9971d68c1d4354a03c2e","","Mozilla/5.0 (Windows NT 6.3; Win64; x64) AppleWebKit/537.36 (KHTML, like Gecko) Chrome/107.0.0.0 Safari/537.36","WebKit","Chrome","107.0.0.0","Windows","6.3","847","s","","eggS.jpg","4","Heavy-Contradictory","true",""
"","","","","","fixation","37968","html-keyboard-response","131","243775","0.0-6.0-0.24","75","4","2022-11-17 12:25:30","fd252370c17a9971d68c1d4354a03c2e","","Mozilla/5.0 (Windows NT 6.3; Win64; x64) AppleWebKit/537.36 (KHTML, like Gecko) Chrome/107.0.0.0 Safari/537.36","WebKit","Chrome","107.0.0.0","Windows","6.3","null","null","","<p style=""font-size: 48px;"">+</p>","4","Filler","",""
"","","","","","sentence","37968","html-keyboard-response","132","246626","0.0-6.0-1.24","75","4","2022-11-17 12:25:30","fd252370c17a9971d68c1d4354a03c2e","","Mozilla/5.0 (Windows NT 6.3; Win64; x64) AppleWebKit/537.36 (KHTML, like Gecko) Chrome/107.0.0.0 Safari/537.36","WebKit","Chrome","107.0.0.0","Windows","6.3","2843"," ","","A cabbage was placed on the table","4","Filler","",""
"","","","","","fixation","37968","html-keyboard-response","133","247142","0.0-6.0-2.24","75","4","2022-11-17 12:25:30","fd252370c17a9971d68c1d4354a03c2e","","Mozilla/5.0 (Windows NT 6.3; Win64; x64) AppleWebKit/537.36 (KHTML, like Gecko) Chrome/107.0.0.0 Safari/537.36","WebKit","Chrome","107.0.0.0","Windows","6.3","null","null","","<p style=""font-size: 48px;"">+</p>","4","Filler","",""
"","","","","","picture","37968","image-keyboard-response","134","248176","0.0-6.0-3.24","75","4","2022-11-17 12:25:30","fd252370c17a9971d68c1d4354a03c2e","","Mozilla/5.0 (Windows NT 6.3; Win64; x64) AppleWebKit/537.36 (KHTML, like Gecko) Chrome/107.0.0.0 Safari/537.36","WebKit","Chrome","107.0.0.0","Windows","6.3","1024","n","","ladder.jpg","4","Filler","true",""
"","","","","","fixation","37968","html-keyboard-response","135","249191","0.0-6.0-0.25","75","4","2022-11-17 12:25:30","fd252370c17a9971d68c1d4354a03c2e","","Mozilla/5.0 (Windows NT 6.3; Win64; x64) AppleWebKit/537.36 (KHTML, like Gecko) Chrome/107.0.0.0 Safari/537.36","WebKit","Chrome","107.0.0.0","Windows","6.3","null","null","","<p style=""font-size: 48px;"">+</p>","4","Filler","",""
"","","","","","sentence","37968","html-keyboard-response","136","250705","0.0-6.0-1.25","75","4","2022-11-17 12:25:30","fd252370c17a9971d68c1d4354a03c2e","","Mozilla/5.0 (Windows NT 6.3; Win64; x64) AppleWebKit/537.36 (KHTML, like Gecko) Chrome/107.0.0.0 Safari/537.36","WebKit","Chrome","107.0.0.0","Windows","6.3","1507"," ","","A hairdresser is taking scissors","4","Filler","",""
"","","","","","fixation","37968","html-keyboard-response","137","251222","0.0-6.0-2.25","75","4","2022-11-17 12:25:30","fd252370c17a9971d68c1d4354a03c2e","","Mozilla/5.0 (Windows NT 6.3; Win64; x64) AppleWebKit/537.36 (KHTML, like Gecko) Chrome/107.0.0.0 Safari/537.36","WebKit","Chrome","107.0.0.0","Windows","6.3","null","null","","<p style=""font-size: 48px;"">+</p>","4","Filler","",""
"","","","","","picture","37968","image-keyboard-response","138","252139","0.0-6.0-3.25","75","4","2022-11-17 12:25:30","fd252370c17a9971d68c1d4354a03c2e","","Mozilla/5.0 (Windows NT 6.3; Win64; x64) AppleWebKit/537.36 (KHTML, like Gecko) Chrome/107.0.0.0 Safari/537.36","WebKit","Chrome","107.0.0.0","Windows","6.3","908","n","","sock.jpg","4","Filler","true",""
"","","","","","fixation","37968","html-keyboard-response","139","253150","0.0-6.0-0.26","75","4","2022-11-17 12:25:30","fd252370c17a9971d68c1d4354a03c2e","","Mozilla/5.0 (Windows NT 6.3; Win64; x64) AppleWebKit/537.36 (KHTML, like Gecko) Chrome/107.0.0.0 Safari/537.36","WebKit","Chrome","107.0.0.0","Windows","6.3","null","null","","<p style=""font-size: 48px;"">+</p>","4","Filler","",""
"","","","","","sentence","37968","html-keyboard-response","140","254599","0.0-6.0-1.26","75","4","2022-11-17 12:25:30","fd252370c17a9971d68c1d4354a03c2e","","Mozilla/5.0 (Windows NT 6.3; Win64; x64) AppleWebKit/537.36 (KHTML, like Gecko) Chrome/107.0.0.0 Safari/537.36","WebKit","Chrome","107.0.0.0","Windows","6.3","1442"," ","","An owl is sitting on the branch","4","Filler","",""
"","","","","","fixation","37968","html-keyboard-response","141","255110","0.0-6.0-2.26","75","4","2022-11-17 12:25:30","fd252370c17a9971d68c1d4354a03c2e","","Mozilla/5.0 (Windows NT 6.3; Win64; x64) AppleWebKit/537.36 (KHTML, like Gecko) Chrome/107.0.0.0 Safari/537.36","WebKit","Chrome","107.0.0.0","Windows","6.3","null","null","","<p style=""font-size: 48px;"">+</p>","4","Filler","",""
"","","","","","picture","37968","image-keyboard-response","142","256186","0.0-6.0-3.26","75","4","2022-11-17 12:25:30","fd252370c17a9971d68c1d4354a03c2e","","Mozilla/5.0 (Windows NT 6.3; Win64; x64) AppleWebKit/537.36 (KHTML, like Gecko) Chrome/107.0.0.0 Safari/537.36","WebKit","Chrome","107.0.0.0","Windows","6.3","1068","n","","rubberduck.jpg","4","Filler","true",""
"","","","","","fixation","37968","html-keyboard-response","143","257198","0.0-6.0-0.27","75","4","2022-11-17 12:25:30","fd252370c17a9971d68c1d4354a03c2e","","Mozilla/5.0 (Windows NT 6.3; Win64; x64) AppleWebKit/537.36 (KHTML, like Gecko) Chrome/107.0.0.0 Safari/537.36","WebKit","Chrome","107.0.0.0","Windows","6.3","null","null","","<p style=""font-size: 48px;"">+</p>","4","Light-Contradictory","",""
"","","","","","sentence","37968","html-keyboard-response","144","258729","0.0-6.0-1.27","75","4","2022-11-17 12:25:30","fd252370c17a9971d68c1d4354a03c2e","","Mozilla/5.0 (Windows NT 6.3; Win64; x64) AppleWebKit/537.36 (KHTML, like Gecko) Chrome/107.0.0.0 Safari/537.36","WebKit","Chrome","107.0.0.0","Windows","6.3","1522"," ","","A balloon dropped and smashed an iPhone","4","Light-Contradictory","",""
"","","","","","fixation","37968","html-keyboard-response","145","259246","0.0-6.0-2.27","75","4","2022-11-17 12:25:30","fd252370c17a9971d68c1d4354a03c2e","","Mozilla/5.0 (Windows NT 6.3; Win64; x64) AppleWebKit/537.36 (KHTML, like Gecko) Chrome/107.0.0.0 Safari/537.36","WebKit","Chrome","107.0.0.0","Windows","6.3","null","null","","<p style=""font-size: 48px;"">+</p>","4","Light-Contradictory","",""
"","","","","","picture","37968","image-keyboard-response","146","260123","0.0-6.0-3.27","75","4","2022-11-17 12:25:30","fd252370c17a9971d68c1d4354a03c2e","","Mozilla/5.0 (Windows NT 6.3; Win64; x64) AppleWebKit/537.36 (KHTML, like Gecko) Chrome/107.0.0.0 Safari/537.36","WebKit","Chrome","107.0.0.0","Windows","6.3","867","s","","iphoneS.png","4","Light-Contradictory","true",""
"","","","","","fixation","37968","html-keyboard-response","147","261142","0.0-6.0-0.28","75","4","2022-11-17 12:25:30","fd252370c17a9971d68c1d4354a03c2e","","Mozilla/5.0 (Windows NT 6.3; Win64; x64) AppleWebKit/537.36 (KHTML, like Gecko) Chrome/107.0.0.0 Safari/537.36","WebKit","Chrome","107.0.0.0","Windows","6.3","null","null","","<p style=""font-size: 48px;"">+</p>","4","Heavy-Contradictory","",""
"","","","","","sentence","37968","html-keyboard-response","148","262299","0.0-6.0-1.28","75","4","2022-11-17 12:25:30","fd252370c17a9971d68c1d4354a03c2e","","Mozilla/5.0 (Windows NT 6.3; Win64; x64) AppleWebKit/537.36 (KHTML, like Gecko) Chrome/107.0.0.0 Safari/537.36","WebKit","Chrome","107.0.0.0","Windows","6.3","1147"," ","","A bowling ball dropped and touched a cracker","4","Heavy-Contradictory","",""
"","","","","","fixation","37968","html-keyboard-response","149","262813","0.0-6.0-2.28","75","4","2022-11-17 12:25:30","fd252370c17a9971d68c1d4354a03c2e","","Mozilla/5.0 (Windows NT 6.3; Win64; x64) AppleWebKit/537.36 (KHTML, like Gecko) Chrome/107.0.0.0 Safari/537.36","WebKit","Chrome","107.0.0.0","Windows","6.3","null","null","","<p style=""font-size: 48px;"">+</p>","4","Heavy-Contradictory","",""
"","","","","","picture","37968","image-keyboard-response","150","263580","0.0-6.0-3.28","75","4","2022-11-17 12:25:30","fd252370c17a9971d68c1d4354a03c2e","","Mozilla/5.0 (Windows NT 6.3; Win64; x64) AppleWebKit/537.36 (KHTML, like Gecko) Chrome/107.0.0.0 Safari/537.36","WebKit","Chrome","107.0.0.0","Windows","6.3","756","s","","crackerS.jpg","4","Heavy-Contradictory","true",""
"","","","","","fixation","37968","html-keyboard-response","151","264590","0.0-6.0-0.29","75","4","2022-11-17 12:25:30","fd252370c17a9971d68c1d4354a03c2e","","Mozilla/5.0 (Windows NT 6.3; Win64; x64) AppleWebKit/537.36 (KHTML, like Gecko) Chrome/107.0.0.0 Safari/537.36","WebKit","Chrome","107.0.0.0","Windows","6.3","null","null","","<p style=""font-size: 48px;"">+</p>","4","Light-Contradictory","",""
"","","","","","sentence","37968","html-keyboard-response","152","266073","0.0-6.0-1.29","75","4","2022-11-17 12:25:30","fd252370c17a9971d68c1d4354a03c2e","","Mozilla/5.0 (Windows NT 6.3; Win64; x64) AppleWebKit/537.36 (KHTML, like Gecko) Chrome/107.0.0.0 Safari/537.36","WebKit","Chrome","107.0.0.0","Windows","6.3","1475"," ","","A balloon dropped and smashed a mirror","4","Light-Contradictory","",""
"","","","","","fixation","37968","html-keyboard-response","153","266582","0.0-6.0-2.29","75","4","2022-11-17 12:25:30","fd252370c17a9971d68c1d4354a03c2e","","Mozilla/5.0 (Windows NT 6.3; Win64; x64) AppleWebKit/537.36 (KHTML, like Gecko) Chrome/107.0.0.0 Safari/537.36","WebKit","Chrome","107.0.0.0","Windows","6.3","null","null","","<p style=""font-size: 48px;"">+</p>","4","Light-Contradictory","",""
"","","","","","picture","37968","image-keyboard-response","154","267422","0.0-6.0-3.29","75","4","2022-11-17 12:25:30","fd252370c17a9971d68c1d4354a03c2e","","Mozilla/5.0 (Windows NT 6.3; Win64; x64) AppleWebKit/537.36 (KHTML, like Gecko) Chrome/107.0.0.0 Safari/537.36","WebKit","Chrome","107.0.0.0","Windows","6.3","831","s","","mirrorS.jpg","4","Light-Contradictory","true",""
"","","","","","fixation","37968","html-keyboard-response","155","268438","0.0-6.0-0.30","75","4","2022-11-17 12:25:30","fd252370c17a9971d68c1d4354a03c2e","","Mozilla/5.0 (Windows NT 6.3; Win64; x64) AppleWebKit/537.36 (KHTML, like Gecko) Chrome/107.0.0.0 Safari/537.36","WebKit","Chrome","107.0.0.0","Windows","6.3","null","null","","<p style=""font-size: 48px;"">+</p>","4","Filler","",""
"","","","","","sentence","37968","html-keyboard-response","156","269911","0.0-6.0-1.30","75","4","2022-11-17 12:25:30","fd252370c17a9971d68c1d4354a03c2e","","Mozilla/5.0 (Windows NT 6.3; Win64; x64) AppleWebKit/537.36 (KHTML, like Gecko) Chrome/107.0.0.0 Safari/537.36","WebKit","Chrome","107.0.0.0","Windows","6.3","1466"," ","","A postman is driving a car","4","Filler","",""
"","","","","","fixation","37968","html-keyboard-response","157","270422","0.0-6.0-2.30","75","4","2022-11-17 12:25:30","fd252370c17a9971d68c1d4354a03c2e","","Mozilla/5.0 (Windows NT 6.3; Win64; x64) AppleWebKit/537.36 (KHTML, like Gecko) Chrome/107.0.0.0 Safari/537.36","WebKit","Chrome","107.0.0.0","Windows","6.3","null","null","","<p style=""font-size: 48px;"">+</p>","4","Filler","",""
"","","","","","picture","37968","image-keyboard-response","158","274141","0.0-6.0-3.30","75","4","2022-11-17 12:25:30","fd252370c17a9971d68c1d4354a03c2e","","Mozilla/5.0 (Windows NT 6.3; Win64; x64) AppleWebKit/537.36 (KHTML, like Gecko) Chrome/107.0.0.0 Safari/537.36","WebKit","Chrome","107.0.0.0","Windows","6.3","3709","s","","car.jpg","4","Filler","true",""
"","","","","","fixation","37968","html-keyboard-response","159","275158","0.0-6.0-0.31","75","4","2022-11-17 12:25:30","fd252370c17a9971d68c1d4354a03c2e","","Mozilla/5.0 (Windows NT 6.3; Win64; x64) AppleWebKit/537.36 (KHTML, like Gecko) Chrome/107.0.0.0 Safari/537.36","WebKit","Chrome","107.0.0.0","Windows","6.3","null","null","","<p style=""font-size: 48px;"">+</p>","4","Filler","",""
"","","","","","sentence","37968","html-keyboard-response","160","276595","0.0-6.0-1.31","75","4","2022-11-17 12:25:30","fd252370c17a9971d68c1d4354a03c2e","","Mozilla/5.0 (Windows NT 6.3; Win64; x64) AppleWebKit/537.36 (KHTML, like Gecko) Chrome/107.0.0.0 Safari/537.36","WebKit","Chrome","107.0.0.0","Windows","6.3","1427"," ","","A mouse is eating cheese","4","Filler","",""
"","","","","","fixation","37968","html-keyboard-response","161","277109","0.0-6.0-2.31","75","4","2022-11-17 12:25:30","fd252370c17a9971d68c1d4354a03c2e","","Mozilla/5.0 (Windows NT 6.3; Win64; x64) AppleWebKit/537.36 (KHTML, like Gecko) Chrome/107.0.0.0 Safari/537.36","WebKit","Chrome","107.0.0.0","Windows","6.3","null","null","","<p style=""font-size: 48px;"">+</p>","4","Filler","",""
"","","","","","picture","37968","image-keyboard-response","162","277993","0.0-6.0-3.31","75","4","2022-11-17 12:25:30","fd252370c17a9971d68c1d4354a03c2e","","Mozilla/5.0 (Windows NT 6.3; Win64; x64) AppleWebKit/537.36 (KHTML, like Gecko) Chrome/107.0.0.0 Safari/537.36","WebKit","Chrome","107.0.0.0","Windows","6.3","873","n","","ring.jpg","4","Filler","true",""
"","","","","","fixation","37968","html-keyboard-response","163","279007","0.0-6.0-0.32","75","4","2022-11-17 12:25:30","fd252370c17a9971d68c1d4354a03c2e","","Mozilla/5.0 (Windows NT 6.3; Win64; x64) AppleWebKit/537.36 (KHTML, like Gecko) Chrome/107.0.0.0 Safari/537.36","WebKit","Chrome","107.0.0.0","Windows","6.3","null","null","","<p style=""font-size: 48px;"">+</p>","4","Filler","",""
"","","","","","sentence","37968","html-keyboard-response","164","281045","0.0-6.0-1.32","75","4","2022-11-17 12:25:30","fd252370c17a9971d68c1d4354a03c2e","","Mozilla/5.0 (Windows NT 6.3; Win64; x64) AppleWebKit/537.36 (KHTML, like Gecko) Chrome/107.0.0.0 Safari/537.36","WebKit","Chrome","107.0.0.0","Windows","6.3","2029"," ","","An old man is hammering a nail","4","Filler","",""
"","","","","","fixation","37968","html-keyboard-response","165","281557","0.0-6.0-2.32","75","4","2022-11-17 12:25:30","fd252370c17a9971d68c1d4354a03c2e","","Mozilla/5.0 (Windows NT 6.3; Win64; x64) AppleWebKit/537.36 (KHTML, like Gecko) Chrome/107.0.0.0 Safari/537.36","WebKit","Chrome","107.0.0.0","Windows","6.3","null","null","","<p style=""font-size: 48px;"">+</p>","4","Filler","",""
"","","","","","picture","37968","image-keyboard-response","166","283152","0.0-6.0-3.32","75","4","2022-11-17 12:25:30","fd252370c17a9971d68c1d4354a03c2e","","Mozilla/5.0 (Windows NT 6.3; Win64; x64) AppleWebKit/537.36 (KHTML, like Gecko) Chrome/107.0.0.0 Safari/537.36","WebKit","Chrome","107.0.0.0","Windows","6.3","1584","s","","nail.jpg","4","Filler","true",""
"","","","","","fixation","37968","html-keyboard-response","167","284166","0.0-6.0-0.33","75","4","2022-11-17 12:25:30","fd252370c17a9971d68c1d4354a03c2e","","Mozilla/5.0 (Windows NT 6.3; Win64; x64) AppleWebKit/537.36 (KHTML, like Gecko) Chrome/107.0.0.0 Safari/537.36","WebKit","Chrome","107.0.0.0","Windows","6.3","null","null","","<p style=""font-size: 48px;"">+</p>","4","Filler","",""
"","","","","","sentence","37968","html-keyboard-response","168","286039","0.0-6.0-1.33","75","4","2022-11-17 12:25:30","fd252370c17a9971d68c1d4354a03c2e","","Mozilla/5.0 (Windows NT 6.3; Win64; x64) AppleWebKit/537.36 (KHTML, like Gecko) Chrome/107.0.0.0 Safari/537.36","WebKit","Chrome","107.0.0.0","Windows","6.3","1863"," ","","A man is playing with a cat","4","Filler","",""
"","","","","","fixation","37968","html-keyboard-response","169","286558","0.0-6.0-2.33","75","4","2022-11-17 12:25:30","fd252370c17a9971d68c1d4354a03c2e","","Mozilla/5.0 (Windows NT 6.3; Win64; x64) AppleWebKit/537.36 (KHTML, like Gecko) Chrome/107.0.0.0 Safari/537.36","WebKit","Chrome","107.0.0.0","Windows","6.3","null","null","","<p style=""font-size: 48px;"">+</p>","4","Filler","",""
"","","","","","picture","37968","image-keyboard-response","170","289159","0.0-6.0-3.33","75","4","2022-11-17 12:25:30","fd252370c17a9971d68c1d4354a03c2e","","Mozilla/5.0 (Windows NT 6.3; Win64; x64) AppleWebKit/537.36 (KHTML, like Gecko) Chrome/107.0.0.0 Safari/537.36","WebKit","Chrome","107.0.0.0","Windows","6.3","2591","n","","ceramicplate.jpg","4","Filler","true",""
"","","","","","fixation","37968","html-keyboard-response","171","290174","0.0-6.0-0.34","75","4","2022-11-17 12:25:30","fd252370c17a9971d68c1d4354a03c2e","","Mozilla/5.0 (Windows NT 6.3; Win64; x64) AppleWebKit/537.36 (KHTML, like Gecko) Chrome/107.0.0.0 Safari/537.36","WebKit","Chrome","107.0.0.0","Windows","6.3","null","null","","<p style=""font-size: 48px;"">+</p>","4","Filler","",""
"","","","","","sentence","37968","html-keyboard-response","172","292796","0.0-6.0-1.34","75","4","2022-11-17 12:25:30","fd252370c17a9971d68c1d4354a03c2e","","Mozilla/5.0 (Windows NT 6.3; Win64; x64) AppleWebKit/537.36 (KHTML, like Gecko) Chrome/107.0.0.0 Safari/537.36","WebKit","Chrome","107.0.0.0","Windows","6.3","2613"," ","","A watch was placed on the laptop","4","Filler","",""
"","","","","","fixation","37968","html-keyboard-response","173","293309","0.0-6.0-2.34","75","4","2022-11-17 12:25:30","fd252370c17a9971d68c1d4354a03c2e","","Mozilla/5.0 (Windows NT 6.3; Win64; x64) AppleWebKit/537.36 (KHTML, like Gecko) Chrome/107.0.0.0 Safari/537.36","WebKit","Chrome","107.0.0.0","Windows","6.3","null","null","","<p style=""font-size: 48px;"">+</p>","4","Filler","",""
"","","","","","picture","37968","image-keyboard-response","174","294292","0.0-6.0-3.34","75","4","2022-11-17 12:25:30","fd252370c17a9971d68c1d4354a03c2e","","Mozilla/5.0 (Windows NT 6.3; Win64; x64) AppleWebKit/537.36 (KHTML, like Gecko) Chrome/107.0.0.0 Safari/537.36","WebKit","Chrome","107.0.0.0","Windows","6.3","972","n","","bow.jpg","4","Filler","true",""
"","","","","","fixation","37968","html-keyboard-response","175","295309","0.0-6.0-0.35","75","4","2022-11-17 12:25:30","fd252370c17a9971d68c1d4354a03c2e","","Mozilla/5.0 (Windows NT 6.3; Win64; x64) AppleWebKit/537.36 (KHTML, like Gecko) Chrome/107.0.0.0 Safari/537.36","WebKit","Chrome","107.0.0.0","Windows","6.3","null","null","","<p style=""font-size: 48px;"">+</p>","4","Heavy-Contradictory","",""
"","","","","","sentence","37968","html-keyboard-response","176","297491","0.0-6.0-1.35","75","4","2022-11-17 12:25:30","fd252370c17a9971d68c1d4354a03c2e","","Mozilla/5.0 (Windows NT 6.3; Win64; x64) AppleWebKit/537.36 (KHTML, like Gecko) Chrome/107.0.0.0 Safari/537.36","WebKit","Chrome","107.0.0.0","Windows","6.3","2172"," ","","A bowling ball dropped and touched a wineglass","4","Heavy-Contradictory","",""
"","","","","","fixation","37968","html-keyboard-response","177","298006","0.0-6.0-2.35","75","4","2022-11-17 12:25:30","fd252370c17a9971d68c1d4354a03c2e","","Mozilla/5.0 (Windows NT 6.3; Win64; x64) AppleWebKit/537.36 (KHTML, like Gecko) Chrome/107.0.0.0 Safari/537.36","WebKit","Chrome","107.0.0.0","Windows","6.3","null","null","","<p style=""font-size: 48px;"">+</p>","4","Heavy-Contradictory","",""
"","","","","","picture","37968","image-keyboard-response","178","299108","0.0-6.0-3.35","75","4","2022-11-17 12:25:30","fd252370c17a9971d68c1d4354a03c2e","","Mozilla/5.0 (Windows NT 6.3; Win64; x64) AppleWebKit/537.36 (KHTML, like Gecko) Chrome/107.0.0.0 Safari/537.36","WebKit","Chrome","107.0.0.0","Windows","6.3","1091","s","","wineglassS.jpg","4","Heavy-Contradictory","true",""
"","","","","","fixation","37968","html-keyboard-response","179","300125","0.0-6.0-0.36","75","4","2022-11-17 12:25:30","fd252370c17a9971d68c1d4354a03c2e","","Mozilla/5.0 (Windows NT 6.3; Win64; x64) AppleWebKit/537.36 (KHTML, like Gecko) Chrome/107.0.0.0 Safari/537.36","WebKit","Chrome","107.0.0.0","Windows","6.3","null","null","","<p style=""font-size: 48px;"">+</p>","4","Filler","",""
"","","","","","sentence","37968","html-keyboard-response","180","303922","0.0-6.0-1.36","75","4","2022-11-17 12:25:30","fd252370c17a9971d68c1d4354a03c2e","","Mozilla/5.0 (Windows NT 6.3; Win64; x64) AppleWebKit/537.36 (KHTML, like Gecko) Chrome/107.0.0.0 Safari/537.36","WebKit","Chrome","107.0.0.0","Windows","6.3","3786"," ","","A thermometer was placed on the box","4","Filler","",""
"","","","","","fixation","37968","html-keyboard-response","181","304438","0.0-6.0-2.36","75","4","2022-11-17 12:25:30","fd252370c17a9971d68c1d4354a03c2e","","Mozilla/5.0 (Windows NT 6.3; Win64; x64) AppleWebKit/537.36 (KHTML, like Gecko) Chrome/107.0.0.0 Safari/537.36","WebKit","Chrome","107.0.0.0","Windows","6.3","null","null","","<p style=""font-size: 48px;"">+</p>","4","Filler","",""
"","","","","","picture","37968","image-keyboard-response","182","305547","0.0-6.0-3.36","75","4","2022-11-17 12:25:30","fd252370c17a9971d68c1d4354a03c2e","","Mozilla/5.0 (Windows NT 6.3; Win64; x64) AppleWebKit/537.36 (KHTML, like Gecko) Chrome/107.0.0.0 Safari/537.36","WebKit","Chrome","107.0.0.0","Windows","6.3","1097","n","","button.jpg","4","Filler","true",""
"","","","","","fixation","37968","html-keyboard-response","183","306566","0.0-6.0-0.37","75","4","2022-11-17 12:25:30","fd252370c17a9971d68c1d4354a03c2e","","Mozilla/5.0 (Windows NT 6.3; Win64; x64) AppleWebKit/537.36 (KHTML, like Gecko) Chrome/107.0.0.0 Safari/537.36","WebKit","Chrome","107.0.0.0","Windows","6.3","null","null","","<p style=""font-size: 48px;"">+</p>","4","Filler","",""
"","","","","","sentence","37968","html-keyboard-response","184","308206","0.0-6.0-1.37","75","4","2022-11-17 12:25:30","fd252370c17a9971d68c1d4354a03c2e","","Mozilla/5.0 (Windows NT 6.3; Win64; x64) AppleWebKit/537.36 (KHTML, like Gecko) Chrome/107.0.0.0 Safari/537.36","WebKit","Chrome","107.0.0.0","Windows","6.3","1629"," ","","A fork was placed on the plate","4","Filler","",""
"","","","","","fixation","37968","html-keyboard-response","185","308733","0.0-6.0-2.37","75","4","2022-11-17 12:25:30","fd252370c17a9971d68c1d4354a03c2e","","Mozilla/5.0 (Windows NT 6.3; Win64; x64) AppleWebKit/537.36 (KHTML, like Gecko) Chrome/107.0.0.0 Safari/537.36","WebKit","Chrome","107.0.0.0","Windows","6.3","null","null","","<p style=""font-size: 48px;"">+</p>","4","Filler","",""
"","","","","","picture","37968","image-keyboard-response","186","309950","0.0-6.0-3.37","75","4","2022-11-17 12:25:30","fd252370c17a9971d68c1d4354a03c2e","","Mozilla/5.0 (Windows NT 6.3; Win64; x64) AppleWebKit/537.36 (KHTML, like Gecko) Chrome/107.0.0.0 Safari/537.36","WebKit","Chrome","107.0.0.0","Windows","6.3","1204","s","","plate.jpg","4","Filler","true",""
"","","","","","fixation","37968","html-keyboard-response","187","310966","0.0-6.0-0.38","75","4","2022-11-17 12:25:30","fd252370c17a9971d68c1d4354a03c2e","","Mozilla/5.0 (Windows NT 6.3; Win64; x64) AppleWebKit/537.36 (KHTML, like Gecko) Chrome/107.0.0.0 Safari/537.36","WebKit","Chrome","107.0.0.0","Windows","6.3","null","null","","<p style=""font-size: 48px;"">+</p>","4","Filler","",""
"","","","","","sentence","37968","html-keyboard-response","188","313754","0.0-6.0-1.38","75","4","2022-11-17 12:25:30","fd252370c17a9971d68c1d4354a03c2e","","Mozilla/5.0 (Windows NT 6.3; Win64; x64) AppleWebKit/537.36 (KHTML, like Gecko) Chrome/107.0.0.0 Safari/537.36","WebKit","Chrome","107.0.0.0","Windows","6.3","2779"," ","","A panda is resting on a tree","4","Filler","",""
"","","","","","fixation","37968","html-keyboard-response","189","314269","0.0-6.0-2.38","75","4","2022-11-17 12:25:30","fd252370c17a9971d68c1d4354a03c2e","","Mozilla/5.0 (Windows NT 6.3; Win64; x64) AppleWebKit/537.36 (KHTML, like Gecko) Chrome/107.0.0.0 Safari/537.36","WebKit","Chrome","107.0.0.0","Windows","6.3","null","null","","<p style=""font-size: 48px;"">+</p>","4","Filler","",""
"","","","","","picture","37968","image-keyboard-response","190","315626","0.0-6.0-3.38","75","4","2022-11-17 12:25:30","fd252370c17a9971d68c1d4354a03c2e","","Mozilla/5.0 (Windows NT 6.3; Win64; x64) AppleWebKit/537.36 (KHTML, like Gecko) Chrome/107.0.0.0 Safari/537.36","WebKit","Chrome","107.0.0.0","Windows","6.3","1345","n","","dollar.jpg","4","Filler","true",""
"","","","","","fixation","37968","html-keyboard-response","191","316645","0.0-6.0-0.39","75","4","2022-11-17 12:25:30","fd252370c17a9971d68c1d4354a03c2e","","Mozilla/5.0 (Windows NT 6.3; Win64; x64) AppleWebKit/537.36 (KHTML, like Gecko) Chrome/107.0.0.0 Safari/537.36","WebKit","Chrome","107.0.0.0","Windows","6.3","null","null","","<p style=""font-size: 48px;"">+</p>","4","Filler","",""
"","","","","","sentence","37968","html-keyboard-response","192","318471","0.0-6.0-1.39","75","4","2022-11-17 12:25:30","fd252370c17a9971d68c1d4354a03c2e","","Mozilla/5.0 (Windows NT 6.3; Win64; x64) AppleWebKit/537.36 (KHTML, like Gecko) Chrome/107.0.0.0 Safari/537.36","WebKit","Chrome","107.0.0.0","Windows","6.3","1814"," ","","A student is writing on a board","4","Filler","",""
"","","","","","fixation","37968","html-keyboard-response","193","318990","0.0-6.0-2.39","75","4","2022-11-17 12:25:30","fd252370c17a9971d68c1d4354a03c2e","","Mozilla/5.0 (Windows NT 6.3; Win64; x64) AppleWebKit/537.36 (KHTML, like Gecko) Chrome/107.0.0.0 Safari/537.36","WebKit","Chrome","107.0.0.0","Windows","6.3","null","null","","<p style=""font-size: 48px;"">+</p>","4","Filler","",""
"","","","","","picture","37968","image-keyboard-response","194","320061","0.0-6.0-3.39","75","4","2022-11-17 12:25:30","fd252370c17a9971d68c1d4354a03c2e","","Mozilla/5.0 (Windows NT 6.3; Win64; x64) AppleWebKit/537.36 (KHTML, like Gecko) Chrome/107.0.0.0 Safari/537.36","WebKit","Chrome","107.0.0.0","Windows","6.3","1058","n","","owl.jpg","4","Filler","true",""
"","","","","","fixation","37968","html-keyboard-response","195","321078","0.0-6.0-0.40","75","4","2022-11-17 12:25:30","fd252370c17a9971d68c1d4354a03c2e","","Mozilla/5.0 (Windows NT 6.3; Win64; x64) AppleWebKit/537.36 (KHTML, like Gecko) Chrome/107.0.0.0 Safari/537.36","WebKit","Chrome","107.0.0.0","Windows","6.3","null","null","","<p style=""font-size: 48px;"">+</p>","4","Filler","",""
"","","","","","sentence","37968","html-keyboard-response","196","322836","0.0-6.0-1.40","75","4","2022-11-17 12:25:30","fd252370c17a9971d68c1d4354a03c2e","","Mozilla/5.0 (Windows NT 6.3; Win64; x64) AppleWebKit/537.36 (KHTML, like Gecko) Chrome/107.0.0.0 Safari/537.36","WebKit","Chrome","107.0.0.0","Windows","6.3","1747"," ","","An elephant is eating a watermelon","4","Filler","",""
"","","","","","fixation","37968","html-keyboard-response","197","323349","0.0-6.0-2.40","75","4","2022-11-17 12:25:30","fd252370c17a9971d68c1d4354a03c2e","","Mozilla/5.0 (Windows NT 6.3; Win64; x64) AppleWebKit/537.36 (KHTML, like Gecko) Chrome/107.0.0.0 Safari/537.36","WebKit","Chrome","107.0.0.0","Windows","6.3","null","null","","<p style=""font-size: 48px;"">+</p>","4","Filler","",""
"","","","","","picture","37968","image-keyboard-response","198","324408","0.0-6.0-3.40","75","4","2022-11-17 12:25:30","fd252370c17a9971d68c1d4354a03c2e","","Mozilla/5.0 (Windows NT 6.3; Win64; x64) AppleWebKit/537.36 (KHTML, like Gecko) Chrome/107.0.0.0 Safari/537.36","WebKit","Chrome","107.0.0.0","Windows","6.3","1046","s","","watermelon.jpg","4","Filler","true",""
"","","","","","fixation","37968","html-keyboard-response","199","325430","0.0-6.0-0.41","75","4","2022-11-17 12:25:30","fd252370c17a9971d68c1d4354a03c2e","","Mozilla/5.0 (Windows NT 6.3; Win64; x64) AppleWebKit/537.36 (KHTML, like Gecko) Chrome/107.0.0.0 Safari/537.36","WebKit","Chrome","107.0.0.0","Windows","6.3","null","null","","<p style=""font-size: 48px;"">+</p>","4","Light-Contradictory","",""
"","","","","","sentence","37968","html-keyboard-response","200","328617","0.0-6.0-1.41","75","4","2022-11-17 12:25:30","fd252370c17a9971d68c1d4354a03c2e","","Mozilla/5.0 (Windows NT 6.3; Win64; x64) AppleWebKit/537.36 (KHTML, like Gecko) Chrome/107.0.0.0 Safari/537.36","WebKit","Chrome","107.0.0.0","Windows","6.3","3177"," ","","A balloon dropped and smashed a light bulb","4","Light-Contradictory","",""
"","","","","","fixation","37968","html-keyboard-response","201","329133","0.0-6.0-2.41","75","4","2022-11-17 12:25:30","fd252370c17a9971d68c1d4354a03c2e","","Mozilla/5.0 (Windows NT 6.3; Win64; x64) AppleWebKit/537.36 (KHTML, like Gecko) Chrome/107.0.0.0 Safari/537.36","WebKit","Chrome","107.0.0.0","Windows","6.3","null","null","","<p style=""font-size: 48px;"">+</p>","4","Light-Contradictory","",""
"","","","","","picture","37968","image-keyboard-response","202","330632","0.0-6.0-3.41","75","4","2022-11-17 12:25:30","fd252370c17a9971d68c1d4354a03c2e","","Mozilla/5.0 (Windows NT 6.3; Win64; x64) AppleWebKit/537.36 (KHTML, like Gecko) Chrome/107.0.0.0 Safari/537.36","WebKit","Chrome","107.0.0.0","Windows","6.3","1486","s","","lampS.jpg","4","Light-Contradictory","true",""
"","","","","","fixation","37968","html-keyboard-response","203","331646","0.0-6.0-0.42","75","4","2022-11-17 12:25:30","fd252370c17a9971d68c1d4354a03c2e","","Mozilla/5.0 (Windows NT 6.3; Win64; x64) AppleWebKit/537.36 (KHTML, like Gecko) Chrome/107.0.0.0 Safari/537.36","WebKit","Chrome","107.0.0.0","Windows","6.3","null","null","","<p style=""font-size: 48px;"">+</p>","4","Light-Matched","",""
"","","","","","sentence","37968","html-keyboard-response","204","332980","0.0-6.0-1.42","75","4","2022-11-17 12:25:30","fd252370c17a9971d68c1d4354a03c2e","","Mozilla/5.0 (Windows NT 6.3; Win64; x64) AppleWebKit/537.36 (KHTML, like Gecko) Chrome/107.0.0.0 Safari/537.36","WebKit","Chrome","107.0.0.0","Windows","6.3","1323"," ","","A balloon dropped and touched a banana","4","Light-Matched","",""
"","","","","","fixation","37968","html-keyboard-response","205","333494","0.0-6.0-2.42","75","4","2022-11-17 12:25:30","fd252370c17a9971d68c1d4354a03c2e","","Mozilla/5.0 (Windows NT 6.3; Win64; x64) AppleWebKit/537.36 (KHTML, like Gecko) Chrome/107.0.0.0 Safari/537.36","WebKit","Chrome","107.0.0.0","Windows","6.3","null","null","","<p style=""font-size: 48px;"">+</p>","4","Light-Matched","",""
"","","","","","picture","37968","image-keyboard-response","206","335048","0.0-6.0-3.42","75","4","2022-11-17 12:25:30","fd252370c17a9971d68c1d4354a03c2e","","Mozilla/5.0 (Windows NT 6.3; Win64; x64) AppleWebKit/537.36 (KHTML, like Gecko) Chrome/107.0.0.0 Safari/537.36","WebKit","Chrome","107.0.0.0","Windows","6.3","1541","s","","bananaS.jpg","4","Light-Matched","true",""
"","","","","","fixation","37968","html-keyboard-response","207","336062","0.0-6.0-0.43","75","4","2022-11-17 12:25:30","fd252370c17a9971d68c1d4354a03c2e","","Mozilla/5.0 (Windows NT 6.3; Win64; x64) AppleWebKit/537.36 (KHTML, like Gecko) Chrome/107.0.0.0 Safari/537.36","WebKit","Chrome","107.0.0.0","Windows","6.3","null","null","","<p style=""font-size: 48px;"">+</p>","4","Filler","",""
"","","","","","sentence","37968","html-keyboard-response","208","337475","0.0-6.0-1.43","75","4","2022-11-17 12:25:30","fd252370c17a9971d68c1d4354a03c2e","","Mozilla/5.0 (Windows NT 6.3; Win64; x64) AppleWebKit/537.36 (KHTML, like Gecko) Chrome/107.0.0.0 Safari/537.36","WebKit","Chrome","107.0.0.0","Windows","6.3","1403"," ","","A cat is drinking water from a bowl","4","Filler","",""
"","","","","","fixation","37968","html-keyboard-response","209","337990","0.0-6.0-2.43","75","4","2022-11-17 12:25:30","fd252370c17a9971d68c1d4354a03c2e","","Mozilla/5.0 (Windows NT 6.3; Win64; x64) AppleWebKit/537.36 (KHTML, like Gecko) Chrome/107.0.0.0 Safari/537.36","WebKit","Chrome","107.0.0.0","Windows","6.3","null","null","","<p style=""font-size: 48px;"">+</p>","4","Filler","",""
"","","","","","picture","37968","image-keyboard-response","210","338726","0.0-6.0-3.43","75","4","2022-11-17 12:25:30","fd252370c17a9971d68c1d4354a03c2e","","Mozilla/5.0 (Windows NT 6.3; Win64; x64) AppleWebKit/537.36 (KHTML, like Gecko) Chrome/107.0.0.0 Safari/537.36","WebKit","Chrome","107.0.0.0","Windows","6.3","725","s","","bowl.jpg","4","Filler","true",""
"","","","","","fixation","37968","html-keyboard-response","211","339742","0.0-6.0-0.44","75","4","2022-11-17 12:25:30","fd252370c17a9971d68c1d4354a03c2e","","Mozilla/5.0 (Windows NT 6.3; Win64; x64) AppleWebKit/537.36 (KHTML, like Gecko) Chrome/107.0.0.0 Safari/537.36","WebKit","Chrome","107.0.0.0","Windows","6.3","null","null","","<p style=""font-size: 48px;"">+</p>","4","Filler","",""
"","","","","","sentence","37968","html-keyboard-response","212","341614","0.0-6.0-1.44","75","4","2022-11-17 12:25:30","fd252370c17a9971d68c1d4354a03c2e","","Mozilla/5.0 (Windows NT 6.3; Win64; x64) AppleWebKit/537.36 (KHTML, like Gecko) Chrome/107.0.0.0 Safari/537.36","WebKit","Chrome","107.0.0.0","Windows","6.3","1861"," ","","A kitten is playing in the sandbox","4","Filler","",""
"","","","","","fixation","37968","html-keyboard-response","213","342134","0.0-6.0-2.44","75","4","2022-11-17 12:25:30","fd252370c17a9971d68c1d4354a03c2e","","Mozilla/5.0 (Windows NT 6.3; Win64; x64) AppleWebKit/537.36 (KHTML, like Gecko) Chrome/107.0.0.0 Safari/537.36","WebKit","Chrome","107.0.0.0","Windows","6.3","null","null","","<p style=""font-size: 48px;"">+</p>","4","Filler","",""
"","","","","","picture","37968","image-keyboard-response","214","343360","0.0-6.0-3.44","75","4","2022-11-17 12:25:30","fd252370c17a9971d68c1d4354a03c2e","","Mozilla/5.0 (Windows NT 6.3; Win64; x64) AppleWebKit/537.36 (KHTML, like Gecko) Chrome/107.0.0.0 Safari/537.36","WebKit","Chrome","107.0.0.0","Windows","6.3","1213","n","","dustbin.jpg","4","Filler","true",""
"","","","","","fixation","37968","html-keyboard-response","215","344373","0.0-6.0-0.45","75","4","2022-11-17 12:25:30","fd252370c17a9971d68c1d4354a03c2e","","Mozilla/5.0 (Windows NT 6.3; Win64; x64) AppleWebKit/537.36 (KHTML, like Gecko) Chrome/107.0.0.0 Safari/537.36","WebKit","Chrome","107.0.0.0","Windows","6.3","null","null","","<p style=""font-size: 48px;"">+</p>","4","Filler","",""
"","","","","","sentence","37968","html-keyboard-response","216","346391","0.0-6.0-1.45","75","4","2022-11-17 12:25:30","fd252370c17a9971d68c1d4354a03c2e","","Mozilla/5.0 (Windows NT 6.3; Win64; x64) AppleWebKit/537.36 (KHTML, like Gecko) Chrome/107.0.0.0 Safari/537.36","WebKit","Chrome","107.0.0.0","Windows","6.3","2005"," ","","A woman is taking money out of a wallet","4","Filler","",""
"","","","","","fixation","37968","html-keyboard-response","217","346917","0.0-6.0-2.45","75","4","2022-11-17 12:25:30","fd252370c17a9971d68c1d4354a03c2e","","Mozilla/5.0 (Windows NT 6.3; Win64; x64) AppleWebKit/537.36 (KHTML, like Gecko) Chrome/107.0.0.0 Safari/537.36","WebKit","Chrome","107.0.0.0","Windows","6.3","null","null","","<p style=""font-size: 48px;"">+</p>","4","Filler","",""
"","","","","","picture","37968","image-keyboard-response","218","347864","0.0-6.0-3.45","75","4","2022-11-17 12:25:30","fd252370c17a9971d68c1d4354a03c2e","","Mozilla/5.0 (Windows NT 6.3; Win64; x64) AppleWebKit/537.36 (KHTML, like Gecko) Chrome/107.0.0.0 Safari/537.36","WebKit","Chrome","107.0.0.0","Windows","6.3","932","n","","coconut.jpg","4","Filler","true",""
"","","","","","fixation","37968","html-keyboard-response","219","348885","0.0-6.0-0.46","75","4","2022-11-17 12:25:30","fd252370c17a9971d68c1d4354a03c2e","","Mozilla/5.0 (Windows NT 6.3; Win64; x64) AppleWebKit/537.36 (KHTML, like Gecko) Chrome/107.0.0.0 Safari/537.36","WebKit","Chrome","107.0.0.0","Windows","6.3","null","null","","<p style=""font-size: 48px;"">+</p>","4","Heavy-Contradictory","",""
"","","","","","sentence","37968","html-keyboard-response","220","350627","0.0-6.0-1.46","75","4","2022-11-17 12:25:30","fd252370c17a9971d68c1d4354a03c2e","","Mozilla/5.0 (Windows NT 6.3; Win64; x64) AppleWebKit/537.36 (KHTML, like Gecko) Chrome/107.0.0.0 Safari/537.36","WebKit","Chrome","107.0.0.0","Windows","6.3","1726"," ","","A bowling ball dropped and touched a piece of cake","4","Heavy-Contradictory","",""
"","","","","","fixation","37968","html-keyboard-response","221","351141","0.0-6.0-2.46","75","4","2022-11-17 12:25:30","fd252370c17a9971d68c1d4354a03c2e","","Mozilla/5.0 (Windows NT 6.3; Win64; x64) AppleWebKit/537.36 (KHTML, like Gecko) Chrome/107.0.0.0 Safari/537.36","WebKit","Chrome","107.0.0.0","Windows","6.3","null","null","","<p style=""font-size: 48px;"">+</p>","4","Heavy-Contradictory","",""
"","","","","","picture","37968","image-keyboard-response","222","352211","0.0-6.0-3.46","75","4","2022-11-17 12:25:30","fd252370c17a9971d68c1d4354a03c2e","","Mozilla/5.0 (Windows NT 6.3; Win64; x64) AppleWebKit/537.36 (KHTML, like Gecko) Chrome/107.0.0.0 Safari/537.36","WebKit","Chrome","107.0.0.0","Windows","6.3","1056","s","","cakeS.jpg","4","Heavy-Contradictory","true",""
"","","","","","fixation","37968","html-keyboard-response","223","353229","0.0-6.0-0.47","75","4","2022-11-17 12:25:30","fd252370c17a9971d68c1d4354a03c2e","","Mozilla/5.0 (Windows NT 6.3; Win64; x64) AppleWebKit/537.36 (KHTML, like Gecko) Chrome/107.0.0.0 Safari/537.36","WebKit","Chrome","107.0.0.0","Windows","6.3","null","null","","<p style=""font-size: 48px;"">+</p>","4","Filler","",""
"","","","","","sentence","37968","html-keyboard-response","224","354723","0.0-6.0-1.47","75","4","2022-11-17 12:25:30","fd252370c17a9971d68c1d4354a03c2e","","Mozilla/5.0 (Windows NT 6.3; Win64; x64) AppleWebKit/537.36 (KHTML, like Gecko) Chrome/107.0.0.0 Safari/537.36","WebKit","Chrome","107.0.0.0","Windows","6.3","1482"," ","","A man is shaving his beard","4","Filler","",""
"","","","","","fixation","37968","html-keyboard-response","225","355237","0.0-6.0-2.47","75","4","2022-11-17 12:25:30","fd252370c17a9971d68c1d4354a03c2e","","Mozilla/5.0 (Windows NT 6.3; Win64; x64) AppleWebKit/537.36 (KHTML, like Gecko) Chrome/107.0.0.0 Safari/537.36","WebKit","Chrome","107.0.0.0","Windows","6.3","null","null","","<p style=""font-size: 48px;"">+</p>","4","Filler","",""
"","","","","","picture","37968","image-keyboard-response","226","356158","0.0-6.0-3.47","75","4","2022-11-17 12:25:30","fd252370c17a9971d68c1d4354a03c2e","","Mozilla/5.0 (Windows NT 6.3; Win64; x64) AppleWebKit/537.36 (KHTML, like Gecko) Chrome/107.0.0.0 Safari/537.36","WebKit","Chrome","107.0.0.0","Windows","6.3","907","n","","clock.jpg","4","Filler","true",""
"","","","","","fixation","37968","html-keyboard-response","227","357173","0.0-6.0-0.48","75","4","2022-11-17 12:25:30","fd252370c17a9971d68c1d4354a03c2e","","Mozilla/5.0 (Windows NT 6.3; Win64; x64) AppleWebKit/537.36 (KHTML, like Gecko) Chrome/107.0.0.0 Safari/537.36","WebKit","Chrome","107.0.0.0","Windows","6.3","null","null","","<p style=""font-size: 48px;"">+</p>","4","Filler","",""
"","","","","","sentence","37968","html-keyboard-response","228","359716","0.0-6.0-1.48","75","4","2022-11-17 12:25:30","fd252370c17a9971d68c1d4354a03c2e","","Mozilla/5.0 (Windows NT 6.3; Win64; x64) AppleWebKit/537.36 (KHTML, like Gecko) Chrome/107.0.0.0 Safari/537.36","WebKit","Chrome","107.0.0.0","Windows","6.3","2531"," ","","A towel was placed on the TV","4","Filler","",""
"","","","","","fixation","37968","html-keyboard-response","229","360237","0.0-6.0-2.48","75","4","2022-11-17 12:25:30","fd252370c17a9971d68c1d4354a03c2e","","Mozilla/5.0 (Windows NT 6.3; Win64; x64) AppleWebKit/537.36 (KHTML, like Gecko) Chrome/107.0.0.0 Safari/537.36","WebKit","Chrome","107.0.0.0","Windows","6.3","null","null","","<p style=""font-size: 48px;"">+</p>","4","Filler","",""
"","","","","","picture","37968","image-keyboard-response","230","361270","0.0-6.0-3.48","75","4","2022-11-17 12:25:30","fd252370c17a9971d68c1d4354a03c2e","","Mozilla/5.0 (Windows NT 6.3; Win64; x64) AppleWebKit/537.36 (KHTML, like Gecko) Chrome/107.0.0.0 Safari/537.36","WebKit","Chrome","107.0.0.0","Windows","6.3","1019","n","","pencil.jpg","4","Filler","true",""
"","","","","","fixation","37968","html-keyboard-response","231","362293","0.0-6.0-0.49","75","4","2022-11-17 12:25:30","fd252370c17a9971d68c1d4354a03c2e","","Mozilla/5.0 (Windows NT 6.3; Win64; x64) AppleWebKit/537.36 (KHTML, like Gecko) Chrome/107.0.0.0 Safari/537.36","WebKit","Chrome","107.0.0.0","Windows","6.3","null","null","","<p style=""font-size: 48px;"">+</p>","4","Filler","",""
"","","","","","sentence","37968","html-keyboard-response","232","365166","0.0-6.0-1.49","75","4","2022-11-17 12:25:30","fd252370c17a9971d68c1d4354a03c2e","","Mozilla/5.0 (Windows NT 6.3; Win64; x64) AppleWebKit/537.36 (KHTML, like Gecko) Chrome/107.0.0.0 Safari/537.36","WebKit","Chrome","107.0.0.0","Windows","6.3","2859"," ","","A man is boiling potatoes.","4","Filler","",""
"","","","","","fixation","37968","html-keyboard-response","233","365685","0.0-6.0-2.49","75","4","2022-11-17 12:25:30","fd252370c17a9971d68c1d4354a03c2e","","Mozilla/5.0 (Windows NT 6.3; Win64; x64) AppleWebKit/537.36 (KHTML, like Gecko) Chrome/107.0.0.0 Safari/537.36","WebKit","Chrome","107.0.0.0","Windows","6.3","null","null","","<p style=""font-size: 48px;"">+</p>","4","Filler","",""
"","","","","","picture","37968","image-keyboard-response","234","367001","0.0-6.0-3.49","75","4","2022-11-17 12:25:30","fd252370c17a9971d68c1d4354a03c2e","","Mozilla/5.0 (Windows NT 6.3; Win64; x64) AppleWebKit/537.36 (KHTML, like Gecko) Chrome/107.0.0.0 Safari/537.36","WebKit","Chrome","107.0.0.0","Windows","6.3","1300","n","","cup.jpg","4","Filler","true",""
"","","","","","fixation","37968","html-keyboard-response","235","368022","0.0-6.0-0.50","75","4","2022-11-17 12:25:30","fd252370c17a9971d68c1d4354a03c2e","","Mozilla/5.0 (Windows NT 6.3; Win64; x64) AppleWebKit/537.36 (KHTML, like Gecko) Chrome/107.0.0.0 Safari/537.36","WebKit","Chrome","107.0.0.0","Windows","6.3","null","null","","<p style=""font-size: 48px;"">+</p>","4","Light-Contradictory","",""
"","","","","","sentence","37968","html-keyboard-response","236","372422","0.0-6.0-1.50","75","4","2022-11-17 12:25:30","fd252370c17a9971d68c1d4354a03c2e","","Mozilla/5.0 (Windows NT 6.3; Win64; x64) AppleWebKit/537.36 (KHTML, like Gecko) Chrome/107.0.0.0 Safari/537.36","WebKit","Chrome","107.0.0.0","Windows","6.3","4388"," ","","A balloon dropped and smashed a donut","4","Light-Contradictory","",""
"","","","","","fixation","37968","html-keyboard-response","237","372941","0.0-6.0-2.50","75","4","2022-11-17 12:25:30","fd252370c17a9971d68c1d4354a03c2e","","Mozilla/5.0 (Windows NT 6.3; Win64; x64) AppleWebKit/537.36 (KHTML, like Gecko) Chrome/107.0.0.0 Safari/537.36","WebKit","Chrome","107.0.0.0","Windows","6.3","null","null","","<p style=""font-size: 48px;"">+</p>","4","Light-Contradictory","",""
"","","","","","picture","37968","image-keyboard-response","238","373719","0.0-6.0-3.50","75","4","2022-11-17 12:25:30","fd252370c17a9971d68c1d4354a03c2e","","Mozilla/5.0 (Windows NT 6.3; Win64; x64) AppleWebKit/537.36 (KHTML, like Gecko) Chrome/107.0.0.0 Safari/537.36","WebKit","Chrome","107.0.0.0","Windows","6.3","761","s","","donutS.jpg","4","Light-Contradictory","true",""
"","","","","","fixation","37968","html-keyboard-response","239","374742","0.0-6.0-0.51","75","4","2022-11-17 12:25:30","fd252370c17a9971d68c1d4354a03c2e","","Mozilla/5.0 (Windows NT 6.3; Win64; x64) AppleWebKit/537.36 (KHTML, like Gecko) Chrome/107.0.0.0 Safari/537.36","WebKit","Chrome","107.0.0.0","Windows","6.3","null","null","","<p style=""font-size: 48px;"">+</p>","4","Filler","",""
"","","","","","sentence","37968","html-keyboard-response","240","376270","0.0-6.0-1.51","75","4","2022-11-17 12:25:30","fd252370c17a9971d68c1d4354a03c2e","","Mozilla/5.0 (Windows NT 6.3; Win64; x64) AppleWebKit/537.36 (KHTML, like Gecko) Chrome/107.0.0.0 Safari/537.36","WebKit","Chrome","107.0.0.0","Windows","6.3","1515"," ","","A nurse is taking a syringe","4","Filler","",""
"","","","","","fixation","37968","html-keyboard-response","241","376789","0.0-6.0-2.51","75","4","2022-11-17 12:25:30","fd252370c17a9971d68c1d4354a03c2e","","Mozilla/5.0 (Windows NT 6.3; Win64; x64) AppleWebKit/537.36 (KHTML, like Gecko) Chrome/107.0.0.0 Safari/537.36","WebKit","Chrome","107.0.0.0","Windows","6.3","null","null","","<p style=""font-size: 48px;"">+</p>","4","Filler","",""
"","","","","","picture","37968","image-keyboard-response","242","377444","0.0-6.0-3.51","75","4","2022-11-17 12:25:30","fd252370c17a9971d68c1d4354a03c2e","","Mozilla/5.0 (Windows NT 6.3; Win64; x64) AppleWebKit/537.36 (KHTML, like Gecko) Chrome/107.0.0.0 Safari/537.36","WebKit","Chrome","107.0.0.0","Windows","6.3","640","n","","headphones.jpg","4","Filler","true",""
"","","","","","fixation","37968","html-keyboard-response","243","378461","0.0-6.0-0.52","75","4","2022-11-17 12:25:30","fd252370c17a9971d68c1d4354a03c2e","","Mozilla/5.0 (Windows NT 6.3; Win64; x64) AppleWebKit/537.36 (KHTML, like Gecko) Chrome/107.0.0.0 Safari/537.36","WebKit","Chrome","107.0.0.0","Windows","6.3","null","null","","<p style=""font-size: 48px;"">+</p>","4","Filler","",""
"","","","","","sentence","37968","html-keyboard-response","244","380103","0.0-6.0-1.52","75","4","2022-11-17 12:25:30","fd252370c17a9971d68c1d4354a03c2e","","Mozilla/5.0 (Windows NT 6.3; Win64; x64) AppleWebKit/537.36 (KHTML, like Gecko) Chrome/107.0.0.0 Safari/537.36","WebKit","Chrome","107.0.0.0","Windows","6.3","1631"," ","","A remote was placed on the rug","4","Filler","",""
"","","","","","fixation","37968","html-keyboard-response","245","380620","0.0-6.0-2.52","75","4","2022-11-17 12:25:30","fd252370c17a9971d68c1d4354a03c2e","","Mozilla/5.0 (Windows NT 6.3; Win64; x64) AppleWebKit/537.36 (KHTML, like Gecko) Chrome/107.0.0.0 Safari/537.36","WebKit","Chrome","107.0.0.0","Windows","6.3","null","null","","<p style=""font-size: 48px;"">+</p>","4","Filler","",""
"","","","","","picture","37968","image-keyboard-response","246","381936","0.0-6.0-3.52","75","4","2022-11-17 12:25:30","fd252370c17a9971d68c1d4354a03c2e","","Mozilla/5.0 (Windows NT 6.3; Win64; x64) AppleWebKit/537.36 (KHTML, like Gecko) Chrome/107.0.0.0 Safari/537.36","WebKit","Chrome","107.0.0.0","Windows","6.3","1301","n","","CD.jpg","4","Filler","true",""
"","","","","","fixation","37968","html-keyboard-response","247","382949","0.0-6.0-0.53","75","4","2022-11-17 12:25:30","fd252370c17a9971d68c1d4354a03c2e","","Mozilla/5.0 (Windows NT 6.3; Win64; x64) AppleWebKit/537.36 (KHTML, like Gecko) Chrome/107.0.0.0 Safari/537.36","WebKit","Chrome","107.0.0.0","Windows","6.3","null","null","","<p style=""font-size: 48px;"">+</p>","4","Filler","",""
"","","","","","sentence","37968","html-keyboard-response","248","385973","0.0-6.0-1.53","75","4","2022-11-17 12:25:30","fd252370c17a9971d68c1d4354a03c2e","","Mozilla/5.0 (Windows NT 6.3; Win64; x64) AppleWebKit/537.36 (KHTML, like Gecko) Chrome/107.0.0.0 Safari/537.36","WebKit","Chrome","107.0.0.0","Windows","6.3","3010"," ","","A keyboard was placed on the bed","4","Filler","",""
"","","","","","fixation","37968","html-keyboard-response","249","386494","0.0-6.0-2.53","75","4","2022-11-17 12:25:30","fd252370c17a9971d68c1d4354a03c2e","","Mozilla/5.0 (Windows NT 6.3; Win64; x64) AppleWebKit/537.36 (KHTML, like Gecko) Chrome/107.0.0.0 Safari/537.36","WebKit","Chrome","107.0.0.0","Windows","6.3","null","null","","<p style=""font-size: 48px;"">+</p>","4","Filler","",""
"","","","","","picture","37968","image-keyboard-response","250","387317","0.0-6.0-3.53","75","4","2022-11-17 12:25:30","fd252370c17a9971d68c1d4354a03c2e","","Mozilla/5.0 (Windows NT 6.3; Win64; x64) AppleWebKit/537.36 (KHTML, like Gecko) Chrome/107.0.0.0 Safari/537.36","WebKit","Chrome","107.0.0.0","Windows","6.3","808","n","","bottlecap.jpg","4","Filler","true",""
