"success","timeout","failed_images","failed_audio","failed_video","typeoftrial","subject","trial_type","trial_index","time_elapsed","internal_node_id","run_id","condition","recorded_at","source_code_version","ip","user_agent","device","browser","browser_version","platform","platform_version","rt","response","Experiment","stimulus","list_number","trialcondition","correct","question_order"
"true","false","[]","[]","[]","preload","14703","preload","0","1881","0.0-0.0","105","4","2022-11-17 12:31:19","fd252370c17a9971d68c1d4354a03c2e","","Mozilla/5.0 (Windows NT 10.0; Win64; x64; rv:106.0) Gecko/20100101 Firefox/106.0","","Firefox","106.0","Windows","10.0","","","","","","","",""
"","","","","","ID","14703","survey-text","1","20749","0.0-1.0","105","4","2022-11-17 12:31:19","fd252370c17a9971d68c1d4354a03c2e","","Mozilla/5.0 (Windows NT 10.0; Win64; x64; rv:106.0) Gecko/20100101 Firefox/106.0","","Firefox","106.0","Windows","10.0","18856","{""ID"":""5dc368ce880a2927e264dbec""}","","","","","",""
"","","","","","instructions","14703","html-button-response","2","117677","0.0-2.0","105","4","2022-11-17 12:31:19","fd252370c17a9971d68c1d4354a03c2e","","Mozilla/5.0 (Windows NT 10.0; Win64; x64; rv:106.0) Gecko/20100101 Firefox/106.0","","Firefox","106.0","Windows","10.0","96923","0","","
                    <p style=""font-size:20px;""> Welcome to the experiment! </p>
                    <p style=""font-size:20px;""> In this experiment, you will be asked to make judgments about the content of different sentences.</p>
                    <p style=""font-size:20px;""> On each trial, you will read a sentence, and will be shown a picture immediately following the sentence. </p>
                    <p style=""font-size:20px;""> Your task is to decide whether the object displayed in the picture was mentioned in the sentence or not </p>
                    <p style=""font-size:20px;""> and respond as quickly as possible by pressing <strong>S</strong> for yes or <strong>N</strong> for no. </p>
                    <p style=""font-size:20px;""> You will now do a practice session with feedback and instructions. </p>
                    <p style=""font-size:20px;""> Click the button below to continue.</p>
                    ","","","",""
"","","","","","instructions","14703","html-button-response","3","131579","0.0-3.0","105","4","2022-11-17 12:31:19","fd252370c17a9971d68c1d4354a03c2e","","Mozilla/5.0 (Windows NT 10.0; Win64; x64; rv:106.0) Gecko/20100101 Firefox/106.0","","Firefox","106.0","Windows","10.0","13896","0","","
                    <p style=""font-size:20px;""> You are about to begin the practice test. </p>
                    <p style=""font-size:20px;""> On each trial, a sentence will appear on the screen. You should press SPACEBAR when you have read and understood the sentence.</p>
                    <p style=""font-size:20px;""> After you press SPACEBAR, a picture will appear on the screen. </p>
                    <p style=""font-size:20px;""> You need to indicate whether or not the pictured object was mentioned in the sentence. </p>
                    <p style=""font-size:20px;""> If the object WAS mentioned in the preceding sentence, you should press <strong>S</strong> </p>
                    <p style=""font-size:20px;""> If the object was NOT mentioned in the preceding sentence, you should press <strong>N</strong>. </p>
                    <p style=""font-size:20px;""> Click the button below to continue to the practice session.</p>
                    ","","","",""
"","","","","","fixation","14703","html-keyboard-response","4","132585","0.0-4.0-0.0","105","4","2022-11-17 12:31:19","fd252370c17a9971d68c1d4354a03c2e","","Mozilla/5.0 (Windows NT 10.0; Win64; x64; rv:106.0) Gecko/20100101 Firefox/106.0","","Firefox","106.0","Windows","10.0","null","null","","<p style=""font-size: 48px;"">+</p>","practice","practice_s","",""
"","","","","","sentence","14703","html-keyboard-response","5","137021","0.0-4.0-1.0","105","4","2022-11-17 12:31:19","fd252370c17a9971d68c1d4354a03c2e","","Mozilla/5.0 (Windows NT 10.0; Win64; x64; rv:106.0) Gecko/20100101 Firefox/106.0","","Firefox","106.0","Windows","10.0","4432"," ","","A bowling ball dropped and smashed a teacup","practice","practice_s","",""
"","","","","","fixation","14703","html-keyboard-response","6","137528","0.0-4.0-2.0","105","4","2022-11-17 12:31:19","fd252370c17a9971d68c1d4354a03c2e","","Mozilla/5.0 (Windows NT 10.0; Win64; x64; rv:106.0) Gecko/20100101 Firefox/106.0","","Firefox","106.0","Windows","10.0","null","null","","<p style=""font-size: 48px;"">+</p>","practice","practice_s","",""
"","","","","","picture","14703","image-keyboard-response","7","146009","0.0-4.0-3.0","105","4","2022-11-17 12:31:19","fd252370c17a9971d68c1d4354a03c2e","","Mozilla/5.0 (Windows NT 10.0; Win64; x64; rv:106.0) Gecko/20100101 Firefox/106.0","","Firefox","106.0","Windows","10.0","8471","s","","cupB.jpg","practice","practice_s","true",""
"","","","","","","","html-keyboard-response","8","148027","0.0-4.0-4.0","105","4","2022-11-17 12:31:19","fd252370c17a9971d68c1d4354a03c2e","","Mozilla/5.0 (Windows NT 10.0; Win64; x64; rv:106.0) Gecko/20100101 Firefox/106.0","","Firefox","106.0","Windows","10.0","null","null","","CORRECT!","","","",""
"","","","","","fixation","14703","html-keyboard-response","9","149041","0.0-4.0-0.1","105","4","2022-11-17 12:31:19","fd252370c17a9971d68c1d4354a03c2e","","Mozilla/5.0 (Windows NT 10.0; Win64; x64; rv:106.0) Gecko/20100101 Firefox/106.0","","Firefox","106.0","Windows","10.0","null","null","","<p style=""font-size: 48px;"">+</p>","practice","practice_s","",""
"","","","","","sentence","14703","html-keyboard-response","10","151762","0.0-4.0-1.1","105","4","2022-11-17 12:31:19","fd252370c17a9971d68c1d4354a03c2e","","Mozilla/5.0 (Windows NT 10.0; Win64; x64; rv:106.0) Gecko/20100101 Firefox/106.0","","Firefox","106.0","Windows","10.0","2718"," ","","A balloon dropped and touched a cigarette","practice","practice_s","",""
"","","","","","fixation","14703","html-keyboard-response","11","152264","0.0-4.0-2.1","105","4","2022-11-17 12:31:19","fd252370c17a9971d68c1d4354a03c2e","","Mozilla/5.0 (Windows NT 10.0; Win64; x64; rv:106.0) Gecko/20100101 Firefox/106.0","","Firefox","106.0","Windows","10.0","null","null","","<p style=""font-size: 48px;"">+</p>","practice","practice_s","",""
"","","","","","picture","14703","image-keyboard-response","12","153273","0.0-4.0-3.1","105","4","2022-11-17 12:31:19","fd252370c17a9971d68c1d4354a03c2e","","Mozilla/5.0 (Windows NT 10.0; Win64; x64; rv:106.0) Gecko/20100101 Firefox/106.0","","Firefox","106.0","Windows","10.0","1005","s","","cigaretteB.jpg","practice","practice_s","true",""
"","","","","","","","html-keyboard-response","13","155285","0.0-4.0-4.1","105","4","2022-11-17 12:31:19","fd252370c17a9971d68c1d4354a03c2e","","Mozilla/5.0 (Windows NT 10.0; Win64; x64; rv:106.0) Gecko/20100101 Firefox/106.0","","Firefox","106.0","Windows","10.0","null","null","","CORRECT!","","","",""
"","","","","","fixation","14703","html-keyboard-response","14","156298","0.0-4.0-0.2","105","4","2022-11-17 12:31:19","fd252370c17a9971d68c1d4354a03c2e","","Mozilla/5.0 (Windows NT 10.0; Win64; x64; rv:106.0) Gecko/20100101 Firefox/106.0","","Firefox","106.0","Windows","10.0","null","null","","<p style=""font-size: 48px;"">+</p>","practice","practice_n","",""
"","","","","","sentence","14703","html-keyboard-response","15","158487","0.0-4.0-1.2","105","4","2022-11-17 12:31:19","fd252370c17a9971d68c1d4354a03c2e","","Mozilla/5.0 (Windows NT 10.0; Win64; x64; rv:106.0) Gecko/20100101 Firefox/106.0","","Firefox","106.0","Windows","10.0","2185"," ","","A fork was placed on a stool","practice","practice_n","",""
"","","","","","fixation","14703","html-keyboard-response","16","159003","0.0-4.0-2.2","105","4","2022-11-17 12:31:19","fd252370c17a9971d68c1d4354a03c2e","","Mozilla/5.0 (Windows NT 10.0; Win64; x64; rv:106.0) Gecko/20100101 Firefox/106.0","","Firefox","106.0","Windows","10.0","null","null","","<p style=""font-size: 48px;"">+</p>","practice","practice_n","",""
"","","","","","picture","14703","image-keyboard-response","17","160633","0.0-4.0-3.2","105","4","2022-11-17 12:31:19","fd252370c17a9971d68c1d4354a03c2e","","Mozilla/5.0 (Windows NT 10.0; Win64; x64; rv:106.0) Gecko/20100101 Firefox/106.0","","Firefox","106.0","Windows","10.0","1625","s","","tableB.jpg","practice","practice_n","false",""
"","","","","","","","html-keyboard-response","18","162637","0.0-4.0-4.2","105","4","2022-11-17 12:31:19","fd252370c17a9971d68c1d4354a03c2e","","Mozilla/5.0 (Windows NT 10.0; Win64; x64; rv:106.0) Gecko/20100101 Firefox/106.0","","Firefox","106.0","Windows","10.0","null","null","","WRONG!","","","",""
"","","","","","fixation","14703","html-keyboard-response","19","163648","0.0-4.0-0.3","105","4","2022-11-17 12:31:19","fd252370c17a9971d68c1d4354a03c2e","","Mozilla/5.0 (Windows NT 10.0; Win64; x64; rv:106.0) Gecko/20100101 Firefox/106.0","","Firefox","106.0","Windows","10.0","null","null","","<p style=""font-size: 48px;"">+</p>","practice","practice_n","",""
"","","","","","sentence","14703","html-keyboard-response","20","165121","0.0-4.0-1.3","105","4","2022-11-17 12:31:19","fd252370c17a9971d68c1d4354a03c2e","","Mozilla/5.0 (Windows NT 10.0; Win64; x64; rv:106.0) Gecko/20100101 Firefox/106.0","","Firefox","106.0","Windows","10.0","1471"," ","","A balloon dropped and smashed a cup","practice","practice_n","",""
"","","","","","fixation","14703","html-keyboard-response","21","165623","0.0-4.0-2.3","105","4","2022-11-17 12:31:19","fd252370c17a9971d68c1d4354a03c2e","","Mozilla/5.0 (Windows NT 10.0; Win64; x64; rv:106.0) Gecko/20100101 Firefox/106.0","","Firefox","106.0","Windows","10.0","null","null","","<p style=""font-size: 48px;"">+</p>","practice","practice_n","",""
"","","","","","picture","14703","image-keyboard-response","22","166969","0.0-4.0-3.3","105","4","2022-11-17 12:31:19","fd252370c17a9971d68c1d4354a03c2e","","Mozilla/5.0 (Windows NT 10.0; Win64; x64; rv:106.0) Gecko/20100101 Firefox/106.0","","Firefox","106.0","Windows","10.0","1329","n","","bananaB.jpg","practice","practice_n","true",""
"","","","","","","","html-keyboard-response","23","168984","0.0-4.0-4.3","105","4","2022-11-17 12:31:19","fd252370c17a9971d68c1d4354a03c2e","","Mozilla/5.0 (Windows NT 10.0; Win64; x64; rv:106.0) Gecko/20100101 Firefox/106.0","","Firefox","106.0","Windows","10.0","null","null","","CORRECT!","","","",""
"","","","","","fixation","14703","html-keyboard-response","24","169993","0.0-4.0-0.4","105","4","2022-11-17 12:31:19","fd252370c17a9971d68c1d4354a03c2e","","Mozilla/5.0 (Windows NT 10.0; Win64; x64; rv:106.0) Gecko/20100101 Firefox/106.0","","Firefox","106.0","Windows","10.0","null","null","","<p style=""font-size: 48px;"">+</p>","practice","practice_n","",""
"","","","","","sentence","14703","html-keyboard-response","25","171953","0.0-4.0-1.4","105","4","2022-11-17 12:31:19","fd252370c17a9971d68c1d4354a03c2e","","Mozilla/5.0 (Windows NT 10.0; Win64; x64; rv:106.0) Gecko/20100101 Firefox/106.0","","Firefox","106.0","Windows","10.0","1954"," ","","A bowling ball dropped and touched a bottle","practice","practice_n","",""
"","","","","","fixation","14703","html-keyboard-response","26","172456","0.0-4.0-2.4","105","4","2022-11-17 12:31:19","fd252370c17a9971d68c1d4354a03c2e","","Mozilla/5.0 (Windows NT 10.0; Win64; x64; rv:106.0) Gecko/20100101 Firefox/106.0","","Firefox","106.0","Windows","10.0","null","null","","<p style=""font-size: 48px;"">+</p>","practice","practice_n","",""
"","","","","","picture","14703","image-keyboard-response","27","173330","0.0-4.0-3.4","105","4","2022-11-17 12:31:19","fd252370c17a9971d68c1d4354a03c2e","","Mozilla/5.0 (Windows NT 10.0; Win64; x64; rv:106.0) Gecko/20100101 Firefox/106.0","","Firefox","106.0","Windows","10.0","869","n","","bookB.jpg","practice","practice_n","true",""
"","","","","","","","html-keyboard-response","28","175333","0.0-4.0-4.4","105","4","2022-11-17 12:31:19","fd252370c17a9971d68c1d4354a03c2e","","Mozilla/5.0 (Windows NT 10.0; Win64; x64; rv:106.0) Gecko/20100101 Firefox/106.0","","Firefox","106.0","Windows","10.0","null","null","","CORRECT!","","","",""
"","","","","","fixation","14703","html-keyboard-response","29","176345","0.0-4.0-0.5","105","4","2022-11-17 12:31:19","fd252370c17a9971d68c1d4354a03c2e","","Mozilla/5.0 (Windows NT 10.0; Win64; x64; rv:106.0) Gecko/20100101 Firefox/106.0","","Firefox","106.0","Windows","10.0","null","null","","<p style=""font-size: 48px;"">+</p>","practice","practice_s","",""
"","","","","","sentence","14703","html-keyboard-response","30","177362","0.0-4.0-1.5","105","4","2022-11-17 12:31:19","fd252370c17a9971d68c1d4354a03c2e","","Mozilla/5.0 (Windows NT 10.0; Win64; x64; rv:106.0) Gecko/20100101 Firefox/106.0","","Firefox","106.0","Windows","10.0","1015"," ","","A knife was placed on a hammer","practice","practice_s","",""
"","","","","","fixation","14703","html-keyboard-response","31","177872","0.0-4.0-2.5","105","4","2022-11-17 12:31:19","fd252370c17a9971d68c1d4354a03c2e","","Mozilla/5.0 (Windows NT 10.0; Win64; x64; rv:106.0) Gecko/20100101 Firefox/106.0","","Firefox","106.0","Windows","10.0","null","null","","<p style=""font-size: 48px;"">+</p>","practice","practice_s","",""
"","","","","","picture","14703","image-keyboard-response","32","178985","0.0-4.0-3.5","105","4","2022-11-17 12:31:19","fd252370c17a9971d68c1d4354a03c2e","","Mozilla/5.0 (Windows NT 10.0; Win64; x64; rv:106.0) Gecko/20100101 Firefox/106.0","","Firefox","106.0","Windows","10.0","1107","s","","hammerB.jpg","practice","practice_s","true",""
"","","","","","","","html-keyboard-response","33","180998","0.0-4.0-4.5","105","4","2022-11-17 12:31:19","fd252370c17a9971d68c1d4354a03c2e","","Mozilla/5.0 (Windows NT 10.0; Win64; x64; rv:106.0) Gecko/20100101 Firefox/106.0","","Firefox","106.0","Windows","10.0","null","null","","CORRECT!","","","",""
"","","","","","movetoexp","14703","html-button-response","34","193865","0.0-5.0","105","4","2022-11-17 12:31:19","fd252370c17a9971d68c1d4354a03c2e","","Mozilla/5.0 (Windows NT 10.0; Win64; x64; rv:106.0) Gecko/20100101 Firefox/106.0","","Firefox","106.0","Windows","10.0","12865","0","","<p style=""font-size:20px;"">You have now completed the practice session! </p>
                    <p style=""font-size:20px;"">You will now move on to the main experiment, where you will not be provided any feedback. </p>
                    <p style=""font-size:20px;"">Remember, you should press <strong>S</strong> if the pictured object was mentioned in the preceding sentence<br> and <strong>N</strong> if the pictured object was not mentioned in the preceding sentence.</p>
                    <p style=""font-size:20px;"">Please click the button below to continue to the main experiment. </p>","","","",""
"","","","","","fixation","14703","html-keyboard-response","35","194880","0.0-6.0-0.0","105","4","2022-11-17 12:31:19","fd252370c17a9971d68c1d4354a03c2e","","Mozilla/5.0 (Windows NT 10.0; Win64; x64; rv:106.0) Gecko/20100101 Firefox/106.0","","Firefox","106.0","Windows","10.0","null","null","","<p style=""font-size: 48px;"">+</p>","4","Filler","",""
"","","","","","sentence","14703","html-keyboard-response","36","197267","0.0-6.0-1.0","105","4","2022-11-17 12:31:19","fd252370c17a9971d68c1d4354a03c2e","","Mozilla/5.0 (Windows NT 10.0; Win64; x64; rv:106.0) Gecko/20100101 Firefox/106.0","","Firefox","106.0","Windows","10.0","2383"," ","","A donkey is drinking water.","4","Filler","",""
"","","","","","fixation","14703","html-keyboard-response","37","197775","0.0-6.0-2.0","105","4","2022-11-17 12:31:19","fd252370c17a9971d68c1d4354a03c2e","","Mozilla/5.0 (Windows NT 10.0; Win64; x64; rv:106.0) Gecko/20100101 Firefox/106.0","","Firefox","106.0","Windows","10.0","null","null","","<p style=""font-size: 48px;"">+</p>","4","Filler","",""
"","","","","","picture","14703","image-keyboard-response","38","198898","0.0-6.0-3.0","105","4","2022-11-17 12:31:19","fd252370c17a9971d68c1d4354a03c2e","","Mozilla/5.0 (Windows NT 10.0; Win64; x64; rv:106.0) Gecko/20100101 Firefox/106.0","","Firefox","106.0","Windows","10.0","1116","n","","couch.jpg","4","Filler","true",""
"","","","","","fixation","14703","html-keyboard-response","39","199913","0.0-6.0-0.1","105","4","2022-11-17 12:31:19","fd252370c17a9971d68c1d4354a03c2e","","Mozilla/5.0 (Windows NT 10.0; Win64; x64; rv:106.0) Gecko/20100101 Firefox/106.0","","Firefox","106.0","Windows","10.0","null","null","","<p style=""font-size: 48px;"">+</p>","4","Filler","",""
"","","","","","sentence","14703","html-keyboard-response","40","200833","0.0-6.0-1.1","105","4","2022-11-17 12:31:19","fd252370c17a9971d68c1d4354a03c2e","","Mozilla/5.0 (Windows NT 10.0; Win64; x64; rv:106.0) Gecko/20100101 Firefox/106.0","","Firefox","106.0","Windows","10.0","917"," ","","A puppy is playing with a ball","4","Filler","",""
"","","","","","fixation","14703","html-keyboard-response","41","201342","0.0-6.0-2.1","105","4","2022-11-17 12:31:19","fd252370c17a9971d68c1d4354a03c2e","","Mozilla/5.0 (Windows NT 10.0; Win64; x64; rv:106.0) Gecko/20100101 Firefox/106.0","","Firefox","106.0","Windows","10.0","null","null","","<p style=""font-size: 48px;"">+</p>","4","Filler","",""
"","","","","","picture","14703","image-keyboard-response","42","202506","0.0-6.0-3.1","105","4","2022-11-17 12:31:19","fd252370c17a9971d68c1d4354a03c2e","","Mozilla/5.0 (Windows NT 10.0; Win64; x64; rv:106.0) Gecko/20100101 Firefox/106.0","","Firefox","106.0","Windows","10.0","1159","s","","tennisball.jpg","4","Filler","true",""
"","","","","","fixation","14703","html-keyboard-response","43","203517","0.0-6.0-0.2","105","4","2022-11-17 12:31:19","fd252370c17a9971d68c1d4354a03c2e","","Mozilla/5.0 (Windows NT 10.0; Win64; x64; rv:106.0) Gecko/20100101 Firefox/106.0","","Firefox","106.0","Windows","10.0","null","null","","<p style=""font-size: 48px;"">+</p>","4","Filler","",""
"","","","","","sentence","14703","html-keyboard-response","44","205233","0.0-6.0-1.2","105","4","2022-11-17 12:31:19","fd252370c17a9971d68c1d4354a03c2e","","Mozilla/5.0 (Windows NT 10.0; Win64; x64; rv:106.0) Gecko/20100101 Firefox/106.0","","Firefox","106.0","Windows","10.0","1713"," ","","A butterfly is sitting on a flower","4","Filler","",""
"","","","","","fixation","14703","html-keyboard-response","45","205739","0.0-6.0-2.2","105","4","2022-11-17 12:31:19","fd252370c17a9971d68c1d4354a03c2e","","Mozilla/5.0 (Windows NT 10.0; Win64; x64; rv:106.0) Gecko/20100101 Firefox/106.0","","Firefox","106.0","Windows","10.0","null","null","","<p style=""font-size: 48px;"">+</p>","4","Filler","",""
"","","","","","picture","14703","image-keyboard-response","46","206769","0.0-6.0-3.2","105","4","2022-11-17 12:31:19","fd252370c17a9971d68c1d4354a03c2e","","Mozilla/5.0 (Windows NT 10.0; Win64; x64; rv:106.0) Gecko/20100101 Firefox/106.0","","Firefox","106.0","Windows","10.0","1025","n","","soap.jpg","4","Filler","true",""
"","","","","","fixation","14703","html-keyboard-response","47","207776","0.0-6.0-0.3","105","4","2022-11-17 12:31:19","fd252370c17a9971d68c1d4354a03c2e","","Mozilla/5.0 (Windows NT 10.0; Win64; x64; rv:106.0) Gecko/20100101 Firefox/106.0","","Firefox","106.0","Windows","10.0","null","null","","<p style=""font-size: 48px;"">+</p>","4","Filler","",""
"","","","","","sentence","14703","html-keyboard-response","48","208753","0.0-6.0-1.3","105","4","2022-11-17 12:31:19","fd252370c17a9971d68c1d4354a03c2e","","Mozilla/5.0 (Windows NT 10.0; Win64; x64; rv:106.0) Gecko/20100101 Firefox/106.0","","Firefox","106.0","Windows","10.0","974"," ","","A president is writing in the notebook","4","Filler","",""
"","","","","","fixation","14703","html-keyboard-response","49","209257","0.0-6.0-2.3","105","4","2022-11-17 12:31:19","fd252370c17a9971d68c1d4354a03c2e","","Mozilla/5.0 (Windows NT 10.0; Win64; x64; rv:106.0) Gecko/20100101 Firefox/106.0","","Firefox","106.0","Windows","10.0","null","null","","<p style=""font-size: 48px;"">+</p>","4","Filler","",""
"","","","","","picture","14703","image-keyboard-response","50","210218","0.0-6.0-3.3","105","4","2022-11-17 12:31:19","fd252370c17a9971d68c1d4354a03c2e","","Mozilla/5.0 (Windows NT 10.0; Win64; x64; rv:106.0) Gecko/20100101 Firefox/106.0","","Firefox","106.0","Windows","10.0","951","n","","can.jpg","4","Filler","true",""
"","","","","","fixation","14703","html-keyboard-response","51","211227","0.0-6.0-0.4","105","4","2022-11-17 12:31:19","fd252370c17a9971d68c1d4354a03c2e","","Mozilla/5.0 (Windows NT 10.0; Win64; x64; rv:106.0) Gecko/20100101 Firefox/106.0","","Firefox","106.0","Windows","10.0","null","null","","<p style=""font-size: 48px;"">+</p>","4","Filler","",""
"","","","","","sentence","14703","html-keyboard-response","52","212352","0.0-6.0-1.4","105","4","2022-11-17 12:31:19","fd252370c17a9971d68c1d4354a03c2e","","Mozilla/5.0 (Windows NT 10.0; Win64; x64; rv:106.0) Gecko/20100101 Firefox/106.0","","Firefox","106.0","Windows","10.0","1121"," ","","A ring was placed on the newspaper","4","Filler","",""
"","","","","","fixation","14703","html-keyboard-response","53","212857","0.0-6.0-2.4","105","4","2022-11-17 12:31:19","fd252370c17a9971d68c1d4354a03c2e","","Mozilla/5.0 (Windows NT 10.0; Win64; x64; rv:106.0) Gecko/20100101 Firefox/106.0","","Firefox","106.0","Windows","10.0","null","null","","<p style=""font-size: 48px;"">+</p>","4","Filler","",""
"","","","","","picture","14703","image-keyboard-response","54","213649","0.0-6.0-3.4","105","4","2022-11-17 12:31:19","fd252370c17a9971d68c1d4354a03c2e","","Mozilla/5.0 (Windows NT 10.0; Win64; x64; rv:106.0) Gecko/20100101 Firefox/106.0","","Firefox","106.0","Windows","10.0","784","n","","cat.jpg","4","Filler","true",""
"","","","","","fixation","14703","html-keyboard-response","55","214662","0.0-6.0-0.5","105","4","2022-11-17 12:31:19","fd252370c17a9971d68c1d4354a03c2e","","Mozilla/5.0 (Windows NT 10.0; Win64; x64; rv:106.0) Gecko/20100101 Firefox/106.0","","Firefox","106.0","Windows","10.0","null","null","","<p style=""font-size: 48px;"">+</p>","4","Light-Matched","",""
"","","","","","sentence","14703","html-keyboard-response","56","215961","0.0-6.0-1.5","105","4","2022-11-17 12:31:19","fd252370c17a9971d68c1d4354a03c2e","","Mozilla/5.0 (Windows NT 10.0; Win64; x64; rv:106.0) Gecko/20100101 Firefox/106.0","","Firefox","106.0","Windows","10.0","1298"," ","","A balloon dropped and touched a banana","4","Light-Matched","",""
"","","","","","fixation","14703","html-keyboard-response","57","216467","0.0-6.0-2.5","105","4","2022-11-17 12:31:19","fd252370c17a9971d68c1d4354a03c2e","","Mozilla/5.0 (Windows NT 10.0; Win64; x64; rv:106.0) Gecko/20100101 Firefox/106.0","","Firefox","106.0","Windows","10.0","null","null","","<p style=""font-size: 48px;"">+</p>","4","Light-Matched","",""
"","","","","","picture","14703","image-keyboard-response","58","217506","0.0-6.0-3.5","105","4","2022-11-17 12:31:19","fd252370c17a9971d68c1d4354a03c2e","","Mozilla/5.0 (Windows NT 10.0; Win64; x64; rv:106.0) Gecko/20100101 Firefox/106.0","","Firefox","106.0","Windows","10.0","1030","s","","bananaS.jpg","4","Light-Matched","true",""
"","","","","","fixation","14703","html-keyboard-response","59","218514","0.0-6.0-0.6","105","4","2022-11-17 12:31:19","fd252370c17a9971d68c1d4354a03c2e","","Mozilla/5.0 (Windows NT 10.0; Win64; x64; rv:106.0) Gecko/20100101 Firefox/106.0","","Firefox","106.0","Windows","10.0","null","null","","<p style=""font-size: 48px;"">+</p>","4","Heavy-Matched","",""
"","","","","","sentence","14703","html-keyboard-response","60","219691","0.0-6.0-1.6","105","4","2022-11-17 12:31:19","fd252370c17a9971d68c1d4354a03c2e","","Mozilla/5.0 (Windows NT 10.0; Win64; x64; rv:106.0) Gecko/20100101 Firefox/106.0","","Firefox","106.0","Windows","10.0","1174"," ","","A bowling ball dropped and smashed a tile","4","Heavy-Matched","",""
"","","","","","fixation","14703","html-keyboard-response","61","220198","0.0-6.0-2.6","105","4","2022-11-17 12:31:19","fd252370c17a9971d68c1d4354a03c2e","","Mozilla/5.0 (Windows NT 10.0; Win64; x64; rv:106.0) Gecko/20100101 Firefox/106.0","","Firefox","106.0","Windows","10.0","null","null","","<p style=""font-size: 48px;"">+</p>","4","Heavy-Matched","",""
"","","","","","picture","14703","image-keyboard-response","62","221113","0.0-6.0-3.6","105","4","2022-11-17 12:31:19","fd252370c17a9971d68c1d4354a03c2e","","Mozilla/5.0 (Windows NT 10.0; Win64; x64; rv:106.0) Gecko/20100101 Firefox/106.0","","Firefox","106.0","Windows","10.0","907","s","","tileS.jpg","4","Heavy-Matched","true",""
"","","","","","fixation","14703","html-keyboard-response","63","222130","0.0-6.0-0.7","105","4","2022-11-17 12:31:19","fd252370c17a9971d68c1d4354a03c2e","","Mozilla/5.0 (Windows NT 10.0; Win64; x64; rv:106.0) Gecko/20100101 Firefox/106.0","","Firefox","106.0","Windows","10.0","null","null","","<p style=""font-size: 48px;"">+</p>","4","Light-Matched","",""
"","","","","","sentence","14703","html-keyboard-response","64","222985","0.0-6.0-1.7","105","4","2022-11-17 12:31:19","fd252370c17a9971d68c1d4354a03c2e","","Mozilla/5.0 (Windows NT 10.0; Win64; x64; rv:106.0) Gecko/20100101 Firefox/106.0","","Firefox","106.0","Windows","10.0","853"," ","","A balloon dropped and touched a blackberry","4","Light-Matched","",""
"","","","","","fixation","14703","html-keyboard-response","65","223501","0.0-6.0-2.7","105","4","2022-11-17 12:31:19","fd252370c17a9971d68c1d4354a03c2e","","Mozilla/5.0 (Windows NT 10.0; Win64; x64; rv:106.0) Gecko/20100101 Firefox/106.0","","Firefox","106.0","Windows","10.0","null","null","","<p style=""font-size: 48px;"">+</p>","4","Light-Matched","",""
"","","","","","picture","14703","image-keyboard-response","66","224304","0.0-6.0-3.7","105","4","2022-11-17 12:31:19","fd252370c17a9971d68c1d4354a03c2e","","Mozilla/5.0 (Windows NT 10.0; Win64; x64; rv:106.0) Gecko/20100101 Firefox/106.0","","Firefox","106.0","Windows","10.0","797","s","","blackberryS.jpg","4","Light-Matched","true",""
"","","","","","fixation","14703","html-keyboard-response","67","225319","0.0-6.0-0.8","105","4","2022-11-17 12:31:19","fd252370c17a9971d68c1d4354a03c2e","","Mozilla/5.0 (Windows NT 10.0; Win64; x64; rv:106.0) Gecko/20100101 Firefox/106.0","","Firefox","106.0","Windows","10.0","null","null","","<p style=""font-size: 48px;"">+</p>","4","Filler","",""
"","","","","","sentence","14703","html-keyboard-response","68","226049","0.0-6.0-1.8","105","4","2022-11-17 12:31:19","fd252370c17a9971d68c1d4354a03c2e","","Mozilla/5.0 (Windows NT 10.0; Win64; x64; rv:106.0) Gecko/20100101 Firefox/106.0","","Firefox","106.0","Windows","10.0","727"," ","","A man is playing with a cat","4","Filler","",""
"","","","","","fixation","14703","html-keyboard-response","69","226552","0.0-6.0-2.8","105","4","2022-11-17 12:31:19","fd252370c17a9971d68c1d4354a03c2e","","Mozilla/5.0 (Windows NT 10.0; Win64; x64; rv:106.0) Gecko/20100101 Firefox/106.0","","Firefox","106.0","Windows","10.0","null","null","","<p style=""font-size: 48px;"">+</p>","4","Filler","",""
"","","","","","picture","14703","image-keyboard-response","70","227394","0.0-6.0-3.8","105","4","2022-11-17 12:31:19","fd252370c17a9971d68c1d4354a03c2e","","Mozilla/5.0 (Windows NT 10.0; Win64; x64; rv:106.0) Gecko/20100101 Firefox/106.0","","Firefox","106.0","Windows","10.0","836","n","","ceramicplate.jpg","4","Filler","true",""
"","","","","","fixation","14703","html-keyboard-response","71","228399","0.0-6.0-0.9","105","4","2022-11-17 12:31:19","fd252370c17a9971d68c1d4354a03c2e","","Mozilla/5.0 (Windows NT 10.0; Win64; x64; rv:106.0) Gecko/20100101 Firefox/106.0","","Firefox","106.0","Windows","10.0","null","null","","<p style=""font-size: 48px;"">+</p>","4","Filler","",""
"","","","","","sentence","14703","html-keyboard-response","72","229274","0.0-6.0-1.9","105","4","2022-11-17 12:31:19","fd252370c17a9971d68c1d4354a03c2e","","Mozilla/5.0 (Windows NT 10.0; Win64; x64; rv:106.0) Gecko/20100101 Firefox/106.0","","Firefox","106.0","Windows","10.0","866"," ","","An old man is hammering a nail","4","Filler","",""
"","","","","","fixation","14703","html-keyboard-response","73","229787","0.0-6.0-2.9","105","4","2022-11-17 12:31:19","fd252370c17a9971d68c1d4354a03c2e","","Mozilla/5.0 (Windows NT 10.0; Win64; x64; rv:106.0) Gecko/20100101 Firefox/106.0","","Firefox","106.0","Windows","10.0","null","null","","<p style=""font-size: 48px;"">+</p>","4","Filler","",""
"","","","","","picture","14703","image-keyboard-response","74","230690","0.0-6.0-3.9","105","4","2022-11-17 12:31:19","fd252370c17a9971d68c1d4354a03c2e","","Mozilla/5.0 (Windows NT 10.0; Win64; x64; rv:106.0) Gecko/20100101 Firefox/106.0","","Firefox","106.0","Windows","10.0","889","s","","nail.jpg","4","Filler","true",""
"","","","","","fixation","14703","html-keyboard-response","75","231702","0.0-6.0-0.10","105","4","2022-11-17 12:31:19","fd252370c17a9971d68c1d4354a03c2e","","Mozilla/5.0 (Windows NT 10.0; Win64; x64; rv:106.0) Gecko/20100101 Firefox/106.0","","Firefox","106.0","Windows","10.0","null","null","","<p style=""font-size: 48px;"">+</p>","4","Filler","",""
"","","","","","sentence","14703","html-keyboard-response","76","232345","0.0-6.0-1.10","105","4","2022-11-17 12:31:19","fd252370c17a9971d68c1d4354a03c2e","","Mozilla/5.0 (Windows NT 10.0; Win64; x64; rv:106.0) Gecko/20100101 Firefox/106.0","","Firefox","106.0","Windows","10.0","641"," ","","A cook is taking a knife","4","Filler","",""
"","","","","","fixation","14703","html-keyboard-response","77","232857","0.0-6.0-2.10","105","4","2022-11-17 12:31:19","fd252370c17a9971d68c1d4354a03c2e","","Mozilla/5.0 (Windows NT 10.0; Win64; x64; rv:106.0) Gecko/20100101 Firefox/106.0","","Firefox","106.0","Windows","10.0","null","null","","<p style=""font-size: 48px;"">+</p>","4","Filler","",""
"","","","","","picture","14703","image-keyboard-response","78","233857","0.0-6.0-3.10","105","4","2022-11-17 12:31:19","fd252370c17a9971d68c1d4354a03c2e","","Mozilla/5.0 (Windows NT 10.0; Win64; x64; rv:106.0) Gecko/20100101 Firefox/106.0","","Firefox","106.0","Windows","10.0","987","s","","knife.jpg","4","Filler","true",""
"","","","","","fixation","14703","html-keyboard-response","79","234863","0.0-6.0-0.11","105","4","2022-11-17 12:31:19","fd252370c17a9971d68c1d4354a03c2e","","Mozilla/5.0 (Windows NT 10.0; Win64; x64; rv:106.0) Gecko/20100101 Firefox/106.0","","Firefox","106.0","Windows","10.0","null","null","","<p style=""font-size: 48px;"">+</p>","4","Filler","",""
"","","","","","sentence","14703","html-keyboard-response","80","235481","0.0-6.0-1.11","105","4","2022-11-17 12:31:19","fd252370c17a9971d68c1d4354a03c2e","","Mozilla/5.0 (Windows NT 10.0; Win64; x64; rv:106.0) Gecko/20100101 Firefox/106.0","","Firefox","106.0","Windows","10.0","615"," ","","A musician is playing a guitar","4","Filler","",""
"","","","","","fixation","14703","html-keyboard-response","81","235987","0.0-6.0-2.11","105","4","2022-11-17 12:31:19","fd252370c17a9971d68c1d4354a03c2e","","Mozilla/5.0 (Windows NT 10.0; Win64; x64; rv:106.0) Gecko/20100101 Firefox/106.0","","Firefox","106.0","Windows","10.0","null","null","","<p style=""font-size: 48px;"">+</p>","4","Filler","",""
"","","","","","picture","14703","image-keyboard-response","82","236802","0.0-6.0-3.11","105","4","2022-11-17 12:31:19","fd252370c17a9971d68c1d4354a03c2e","","Mozilla/5.0 (Windows NT 10.0; Win64; x64; rv:106.0) Gecko/20100101 Firefox/106.0","","Firefox","106.0","Windows","10.0","807","s","","guitar.jpg","4","Filler","true",""
"","","","","","fixation","14703","html-keyboard-response","83","237807","0.0-6.0-0.12","105","4","2022-11-17 12:31:19","fd252370c17a9971d68c1d4354a03c2e","","Mozilla/5.0 (Windows NT 10.0; Win64; x64; rv:106.0) Gecko/20100101 Firefox/106.0","","Firefox","106.0","Windows","10.0","null","null","","<p style=""font-size: 48px;"">+</p>","4","Filler","",""
"","","","","","sentence","14703","html-keyboard-response","84","238745","0.0-6.0-1.12","105","4","2022-11-17 12:31:19","fd252370c17a9971d68c1d4354a03c2e","","Mozilla/5.0 (Windows NT 10.0; Win64; x64; rv:106.0) Gecko/20100101 Firefox/106.0","","Firefox","106.0","Windows","10.0","933"," ","","A dentist is drinking a can of cola","4","Filler","",""
"","","","","","fixation","14703","html-keyboard-response","85","239252","0.0-6.0-2.12","105","4","2022-11-17 12:31:19","fd252370c17a9971d68c1d4354a03c2e","","Mozilla/5.0 (Windows NT 10.0; Win64; x64; rv:106.0) Gecko/20100101 Firefox/106.0","","Firefox","106.0","Windows","10.0","null","null","","<p style=""font-size: 48px;"">+</p>","4","Filler","",""
"","","","","","picture","14703","image-keyboard-response","86","239881","0.0-6.0-3.12","105","4","2022-11-17 12:31:19","fd252370c17a9971d68c1d4354a03c2e","","Mozilla/5.0 (Windows NT 10.0; Win64; x64; rv:106.0) Gecko/20100101 Firefox/106.0","","Firefox","106.0","Windows","10.0","621","n","","doll.jpg","4","Filler","true",""
"","","","","","fixation","14703","html-keyboard-response","87","240887","0.0-6.0-0.13","105","4","2022-11-17 12:31:19","fd252370c17a9971d68c1d4354a03c2e","","Mozilla/5.0 (Windows NT 10.0; Win64; x64; rv:106.0) Gecko/20100101 Firefox/106.0","","Firefox","106.0","Windows","10.0","null","null","","<p style=""font-size: 48px;"">+</p>","4","Filler","",""
"","","","","","sentence","14703","html-keyboard-response","88","242553","0.0-6.0-1.13","105","4","2022-11-17 12:31:19","fd252370c17a9971d68c1d4354a03c2e","","Mozilla/5.0 (Windows NT 10.0; Win64; x64; rv:106.0) Gecko/20100101 Firefox/106.0","","Firefox","106.0","Windows","10.0","1663"," ","","A fork was placed on the plate","4","Filler","",""
"","","","","","fixation","14703","html-keyboard-response","89","243073","0.0-6.0-2.13","105","4","2022-11-17 12:31:19","fd252370c17a9971d68c1d4354a03c2e","","Mozilla/5.0 (Windows NT 10.0; Win64; x64; rv:106.0) Gecko/20100101 Firefox/106.0","","Firefox","106.0","Windows","10.0","null","null","","<p style=""font-size: 48px;"">+</p>","4","Filler","",""
"","","","","","picture","14703","image-keyboard-response","90","243833","0.0-6.0-3.13","105","4","2022-11-17 12:31:19","fd252370c17a9971d68c1d4354a03c2e","","Mozilla/5.0 (Windows NT 10.0; Win64; x64; rv:106.0) Gecko/20100101 Firefox/106.0","","Firefox","106.0","Windows","10.0","753","s","","plate.jpg","4","Filler","true",""
"","","","","","fixation","14703","html-keyboard-response","91","244837","0.0-6.0-0.14","105","4","2022-11-17 12:31:19","fd252370c17a9971d68c1d4354a03c2e","","Mozilla/5.0 (Windows NT 10.0; Win64; x64; rv:106.0) Gecko/20100101 Firefox/106.0","","Firefox","106.0","Windows","10.0","null","null","","<p style=""font-size: 48px;"">+</p>","4","Filler","",""
"","","","","","sentence","14703","html-keyboard-response","92","245694","0.0-6.0-1.14","105","4","2022-11-17 12:31:19","fd252370c17a9971d68c1d4354a03c2e","","Mozilla/5.0 (Windows NT 10.0; Win64; x64; rv:106.0) Gecko/20100101 Firefox/106.0","","Firefox","106.0","Windows","10.0","854"," ","","A toothbrush was placed on the sponge","4","Filler","",""
"","","","","","fixation","14703","html-keyboard-response","93","246207","0.0-6.0-2.14","105","4","2022-11-17 12:31:19","fd252370c17a9971d68c1d4354a03c2e","","Mozilla/5.0 (Windows NT 10.0; Win64; x64; rv:106.0) Gecko/20100101 Firefox/106.0","","Firefox","106.0","Windows","10.0","null","null","","<p style=""font-size: 48px;"">+</p>","4","Filler","",""
"","","","","","picture","14703","image-keyboard-response","94","247019","0.0-6.0-3.14","105","4","2022-11-17 12:31:19","fd252370c17a9971d68c1d4354a03c2e","","Mozilla/5.0 (Windows NT 10.0; Win64; x64; rv:106.0) Gecko/20100101 Firefox/106.0","","Firefox","106.0","Windows","10.0","806","s","","sponge.jpg","4","Filler","true",""
"","","","","","fixation","14703","html-keyboard-response","95","248029","0.0-6.0-0.15","105","4","2022-11-17 12:31:19","fd252370c17a9971d68c1d4354a03c2e","","Mozilla/5.0 (Windows NT 10.0; Win64; x64; rv:106.0) Gecko/20100101 Firefox/106.0","","Firefox","106.0","Windows","10.0","null","null","","<p style=""font-size: 48px;"">+</p>","4","Filler","",""
"","","","","","sentence","14703","html-keyboard-response","96","248561","0.0-6.0-1.15","105","4","2022-11-17 12:31:19","fd252370c17a9971d68c1d4354a03c2e","","Mozilla/5.0 (Windows NT 10.0; Win64; x64; rv:106.0) Gecko/20100101 Firefox/106.0","","Firefox","106.0","Windows","10.0","520"," ","","A man is boiling potatoes.","4","Filler","",""
"","","","","","fixation","14703","html-keyboard-response","97","249070","0.0-6.0-2.15","105","4","2022-11-17 12:31:19","fd252370c17a9971d68c1d4354a03c2e","","Mozilla/5.0 (Windows NT 10.0; Win64; x64; rv:106.0) Gecko/20100101 Firefox/106.0","","Firefox","106.0","Windows","10.0","null","null","","<p style=""font-size: 48px;"">+</p>","4","Filler","",""
"","","","","","picture","14703","image-keyboard-response","98","249890","0.0-6.0-3.15","105","4","2022-11-17 12:31:19","fd252370c17a9971d68c1d4354a03c2e","","Mozilla/5.0 (Windows NT 10.0; Win64; x64; rv:106.0) Gecko/20100101 Firefox/106.0","","Firefox","106.0","Windows","10.0","812","n","","cup.jpg","4","Filler","true",""
"","","","","","fixation","14703","html-keyboard-response","99","250911","0.0-6.0-0.16","105","4","2022-11-17 12:31:19","fd252370c17a9971d68c1d4354a03c2e","","Mozilla/5.0 (Windows NT 10.0; Win64; x64; rv:106.0) Gecko/20100101 Firefox/106.0","","Firefox","106.0","Windows","10.0","null","null","","<p style=""font-size: 48px;"">+</p>","4","Filler","",""
"","","","","","sentence","14703","html-keyboard-response","100","252225","0.0-6.0-1.16","105","4","2022-11-17 12:31:19","fd252370c17a9971d68c1d4354a03c2e","","Mozilla/5.0 (Windows NT 10.0; Win64; x64; rv:106.0) Gecko/20100101 Firefox/106.0","","Firefox","106.0","Windows","10.0","1302"," ","","A horse is chewing hay","4","Filler","",""
"","","","","","fixation","14703","html-keyboard-response","101","252731","0.0-6.0-2.16","105","4","2022-11-17 12:31:19","fd252370c17a9971d68c1d4354a03c2e","","Mozilla/5.0 (Windows NT 10.0; Win64; x64; rv:106.0) Gecko/20100101 Firefox/106.0","","Firefox","106.0","Windows","10.0","null","null","","<p style=""font-size: 48px;"">+</p>","4","Filler","",""
"","","","","","picture","14703","image-keyboard-response","102","253465","0.0-6.0-3.16","105","4","2022-11-17 12:31:19","fd252370c17a9971d68c1d4354a03c2e","","Mozilla/5.0 (Windows NT 10.0; Win64; x64; rv:106.0) Gecko/20100101 Firefox/106.0","","Firefox","106.0","Windows","10.0","725","n","","purse.jpg","4","Filler","true",""
"","","","","","fixation","14703","html-keyboard-response","103","254477","0.0-6.0-0.17","105","4","2022-11-17 12:31:19","fd252370c17a9971d68c1d4354a03c2e","","Mozilla/5.0 (Windows NT 10.0; Win64; x64; rv:106.0) Gecko/20100101 Firefox/106.0","","Firefox","106.0","Windows","10.0","null","null","","<p style=""font-size: 48px;"">+</p>","4","Filler","",""
"","","","","","sentence","14703","html-keyboard-response","104","255017","0.0-6.0-1.17","105","4","2022-11-17 12:31:19","fd252370c17a9971d68c1d4354a03c2e","","Mozilla/5.0 (Windows NT 10.0; Win64; x64; rv:106.0) Gecko/20100101 Firefox/106.0","","Firefox","106.0","Windows","10.0","536"," ","","A kitten is playing in the sandbox","4","Filler","",""
"","","","","","fixation","14703","html-keyboard-response","105","255531","0.0-6.0-2.17","105","4","2022-11-17 12:31:19","fd252370c17a9971d68c1d4354a03c2e","","Mozilla/5.0 (Windows NT 10.0; Win64; x64; rv:106.0) Gecko/20100101 Firefox/106.0","","Firefox","106.0","Windows","10.0","null","null","","<p style=""font-size: 48px;"">+</p>","4","Filler","",""
"","","","","","picture","14703","image-keyboard-response","106","256537","0.0-6.0-3.17","105","4","2022-11-17 12:31:19","fd252370c17a9971d68c1d4354a03c2e","","Mozilla/5.0 (Windows NT 10.0; Win64; x64; rv:106.0) Gecko/20100101 Firefox/106.0","","Firefox","106.0","Windows","10.0","986","n","","dustbin.jpg","4","Filler","true",""
"","","","","","fixation","14703","html-keyboard-response","107","257556","0.0-6.0-0.18","105","4","2022-11-17 12:31:19","fd252370c17a9971d68c1d4354a03c2e","","Mozilla/5.0 (Windows NT 10.0; Win64; x64; rv:106.0) Gecko/20100101 Firefox/106.0","","Firefox","106.0","Windows","10.0","null","null","","<p style=""font-size: 48px;"">+</p>","4","Filler","",""
"","","","","","sentence","14703","html-keyboard-response","108","258022","0.0-6.0-1.18","105","4","2022-11-17 12:31:19","fd252370c17a9971d68c1d4354a03c2e","","Mozilla/5.0 (Windows NT 10.0; Win64; x64; rv:106.0) Gecko/20100101 Firefox/106.0","","Firefox","106.0","Windows","10.0","462"," ","","A giraffe is playing with a zebra","4","Filler","",""
"","","","","","fixation","14703","html-keyboard-response","109","258532","0.0-6.0-2.18","105","4","2022-11-17 12:31:19","fd252370c17a9971d68c1d4354a03c2e","","Mozilla/5.0 (Windows NT 10.0; Win64; x64; rv:106.0) Gecko/20100101 Firefox/106.0","","Firefox","106.0","Windows","10.0","null","null","","<p style=""font-size: 48px;"">+</p>","4","Filler","",""
"","","","","","picture","14703","image-keyboard-response","110","259203","0.0-6.0-3.18","105","4","2022-11-17 12:31:19","fd252370c17a9971d68c1d4354a03c2e","","Mozilla/5.0 (Windows NT 10.0; Win64; x64; rv:106.0) Gecko/20100101 Firefox/106.0","","Firefox","106.0","Windows","10.0","664","n","","wallet.jpg","4","Filler","true",""
"","","","","","fixation","14703","html-keyboard-response","111","260214","0.0-6.0-0.19","105","4","2022-11-17 12:31:19","fd252370c17a9971d68c1d4354a03c2e","","Mozilla/5.0 (Windows NT 10.0; Win64; x64; rv:106.0) Gecko/20100101 Firefox/106.0","","Firefox","106.0","Windows","10.0","null","null","","<p style=""font-size: 48px;"">+</p>","4","Light-Contradictory","",""
"","","","","","sentence","14703","html-keyboard-response","112","260920","0.0-6.0-1.19","105","4","2022-11-17 12:31:19","fd252370c17a9971d68c1d4354a03c2e","","Mozilla/5.0 (Windows NT 10.0; Win64; x64; rv:106.0) Gecko/20100101 Firefox/106.0","","Firefox","106.0","Windows","10.0","700"," ","","A balloon dropped and smashed a rice cake","4","Light-Contradictory","",""
"","","","","","fixation","14703","html-keyboard-response","113","261427","0.0-6.0-2.19","105","4","2022-11-17 12:31:19","fd252370c17a9971d68c1d4354a03c2e","","Mozilla/5.0 (Windows NT 10.0; Win64; x64; rv:106.0) Gecko/20100101 Firefox/106.0","","Firefox","106.0","Windows","10.0","null","null","","<p style=""font-size: 48px;"">+</p>","4","Light-Contradictory","",""
"","","","","","picture","14703","image-keyboard-response","114","262585","0.0-6.0-3.19","105","4","2022-11-17 12:31:19","fd252370c17a9971d68c1d4354a03c2e","","Mozilla/5.0 (Windows NT 10.0; Win64; x64; rv:106.0) Gecko/20100101 Firefox/106.0","","Firefox","106.0","Windows","10.0","1134","s","","tortitaS.jpg","4","Light-Contradictory","true",""
"","","","","","fixation","14703","html-keyboard-response","115","263592","0.0-6.0-0.20","105","4","2022-11-17 12:31:19","fd252370c17a9971d68c1d4354a03c2e","","Mozilla/5.0 (Windows NT 10.0; Win64; x64; rv:106.0) Gecko/20100101 Firefox/106.0","","Firefox","106.0","Windows","10.0","null","null","","<p style=""font-size: 48px;"">+</p>","4","Filler","",""
"","","","","","sentence","14703","html-keyboard-response","116","264218","0.0-6.0-1.20","105","4","2022-11-17 12:31:19","fd252370c17a9971d68c1d4354a03c2e","","Mozilla/5.0 (Windows NT 10.0; Win64; x64; rv:106.0) Gecko/20100101 Firefox/106.0","","Firefox","106.0","Windows","10.0","617"," ","","A zebra is playing with a horse","4","Filler","",""
"","","","","","fixation","14703","html-keyboard-response","117","264731","0.0-6.0-2.20","105","4","2022-11-17 12:31:19","fd252370c17a9971d68c1d4354a03c2e","","Mozilla/5.0 (Windows NT 10.0; Win64; x64; rv:106.0) Gecko/20100101 Firefox/106.0","","Firefox","106.0","Windows","10.0","null","null","","<p style=""font-size: 48px;"">+</p>","4","Filler","",""
"","","","","","picture","14703","image-keyboard-response","118","265697","0.0-6.0-3.20","105","4","2022-11-17 12:31:19","fd252370c17a9971d68c1d4354a03c2e","","Mozilla/5.0 (Windows NT 10.0; Win64; x64; rv:106.0) Gecko/20100101 Firefox/106.0","","Firefox","106.0","Windows","10.0","956","n","","watch.jpg","4","Filler","true",""
"","","","","","fixation","14703","html-keyboard-response","119","266707","0.0-6.0-0.21","105","4","2022-11-17 12:31:19","fd252370c17a9971d68c1d4354a03c2e","","Mozilla/5.0 (Windows NT 10.0; Win64; x64; rv:106.0) Gecko/20100101 Firefox/106.0","","Firefox","106.0","Windows","10.0","null","null","","<p style=""font-size: 48px;"">+</p>","4","Light-Contradictory","",""
"","","","","","sentence","14703","html-keyboard-response","120","267257","0.0-6.0-1.21","105","4","2022-11-17 12:31:19","fd252370c17a9971d68c1d4354a03c2e","","Mozilla/5.0 (Windows NT 10.0; Win64; x64; rv:106.0) Gecko/20100101 Firefox/106.0","","Firefox","106.0","Windows","10.0","545"," ","","A balloon dropped and smashed a mirror","4","Light-Contradictory","",""
"","","","","","fixation","14703","html-keyboard-response","121","267763","0.0-6.0-2.21","105","4","2022-11-17 12:31:19","fd252370c17a9971d68c1d4354a03c2e","","Mozilla/5.0 (Windows NT 10.0; Win64; x64; rv:106.0) Gecko/20100101 Firefox/106.0","","Firefox","106.0","Windows","10.0","null","null","","<p style=""font-size: 48px;"">+</p>","4","Light-Contradictory","",""
"","","","","","picture","14703","image-keyboard-response","122","268563","0.0-6.0-3.21","105","4","2022-11-17 12:31:19","fd252370c17a9971d68c1d4354a03c2e","","Mozilla/5.0 (Windows NT 10.0; Win64; x64; rv:106.0) Gecko/20100101 Firefox/106.0","","Firefox","106.0","Windows","10.0","792","s","","mirrorS.jpg","4","Light-Contradictory","true",""
"","","","","","fixation","14703","html-keyboard-response","123","269582","0.0-6.0-0.22","105","4","2022-11-17 12:31:19","fd252370c17a9971d68c1d4354a03c2e","","Mozilla/5.0 (Windows NT 10.0; Win64; x64; rv:106.0) Gecko/20100101 Firefox/106.0","","Firefox","106.0","Windows","10.0","null","null","","<p style=""font-size: 48px;"">+</p>","4","Heavy-Matched","",""
"","","","","","sentence","14703","html-keyboard-response","124","270257","0.0-6.0-1.22","105","4","2022-11-17 12:31:19","fd252370c17a9971d68c1d4354a03c2e","","Mozilla/5.0 (Windows NT 10.0; Win64; x64; rv:106.0) Gecko/20100101 Firefox/106.0","","Firefox","106.0","Windows","10.0","671"," ","","A bowling ball dropped and smashed a strawberry","4","Heavy-Matched","",""
"","","","","","fixation","14703","html-keyboard-response","125","270765","0.0-6.0-2.22","105","4","2022-11-17 12:31:19","fd252370c17a9971d68c1d4354a03c2e","","Mozilla/5.0 (Windows NT 10.0; Win64; x64; rv:106.0) Gecko/20100101 Firefox/106.0","","Firefox","106.0","Windows","10.0","null","null","","<p style=""font-size: 48px;"">+</p>","4","Heavy-Matched","",""
"","","","","","picture","14703","image-keyboard-response","126","271435","0.0-6.0-3.22","105","4","2022-11-17 12:31:19","fd252370c17a9971d68c1d4354a03c2e","","Mozilla/5.0 (Windows NT 10.0; Win64; x64; rv:106.0) Gecko/20100101 Firefox/106.0","","Firefox","106.0","Windows","10.0","659","s","","strawberryS.jpg","4","Heavy-Matched","true",""
"","","","","","fixation","14703","html-keyboard-response","127","272450","0.0-6.0-0.23","105","4","2022-11-17 12:31:19","fd252370c17a9971d68c1d4354a03c2e","","Mozilla/5.0 (Windows NT 10.0; Win64; x64; rv:106.0) Gecko/20100101 Firefox/106.0","","Firefox","106.0","Windows","10.0","null","null","","<p style=""font-size: 48px;"">+</p>","4","Filler","",""
"","","","","","sentence","14703","html-keyboard-response","128","272954","0.0-6.0-1.23","105","4","2022-11-17 12:31:19","fd252370c17a9971d68c1d4354a03c2e","","Mozilla/5.0 (Windows NT 10.0; Win64; x64; rv:106.0) Gecko/20100101 Firefox/106.0","","Firefox","106.0","Windows","10.0","500"," ","","A doctor is taking a stethoscope","4","Filler","",""
"","","","","","fixation","14703","html-keyboard-response","129","273475","0.0-6.0-2.23","105","4","2022-11-17 12:31:19","fd252370c17a9971d68c1d4354a03c2e","","Mozilla/5.0 (Windows NT 10.0; Win64; x64; rv:106.0) Gecko/20100101 Firefox/106.0","","Firefox","106.0","Windows","10.0","null","null","","<p style=""font-size: 48px;"">+</p>","4","Filler","",""
"","","","","","picture","14703","image-keyboard-response","130","274555","0.0-6.0-3.23","105","4","2022-11-17 12:31:19","fd252370c17a9971d68c1d4354a03c2e","","Mozilla/5.0 (Windows NT 10.0; Win64; x64; rv:106.0) Gecko/20100101 Firefox/106.0","","Firefox","106.0","Windows","10.0","1060","n","","matchesbox.jpg","4","Filler","true",""
"","","","","","fixation","14703","html-keyboard-response","131","275579","0.0-6.0-0.24","105","4","2022-11-17 12:31:19","fd252370c17a9971d68c1d4354a03c2e","","Mozilla/5.0 (Windows NT 10.0; Win64; x64; rv:106.0) Gecko/20100101 Firefox/106.0","","Firefox","106.0","Windows","10.0","null","null","","<p style=""font-size: 48px;"">+</p>","4","Filler","",""
"","","","","","sentence","14703","html-keyboard-response","132","276090","0.0-6.0-1.24","105","4","2022-11-17 12:31:19","fd252370c17a9971d68c1d4354a03c2e","","Mozilla/5.0 (Windows NT 10.0; Win64; x64; rv:106.0) Gecko/20100101 Firefox/106.0","","Firefox","106.0","Windows","10.0","505"," ","","A hairdresser is taking scissors","4","Filler","",""
"","","","","","fixation","14703","html-keyboard-response","133","276612","0.0-6.0-2.24","105","4","2022-11-17 12:31:19","fd252370c17a9971d68c1d4354a03c2e","","Mozilla/5.0 (Windows NT 10.0; Win64; x64; rv:106.0) Gecko/20100101 Firefox/106.0","","Firefox","106.0","Windows","10.0","null","null","","<p style=""font-size: 48px;"">+</p>","4","Filler","",""
"","","","","","picture","14703","image-keyboard-response","134","277297","0.0-6.0-3.24","105","4","2022-11-17 12:31:19","fd252370c17a9971d68c1d4354a03c2e","","Mozilla/5.0 (Windows NT 10.0; Win64; x64; rv:106.0) Gecko/20100101 Firefox/106.0","","Firefox","106.0","Windows","10.0","672","n","","sock.jpg","4","Filler","true",""
"","","","","","fixation","14703","html-keyboard-response","135","278304","0.0-6.0-0.25","105","4","2022-11-17 12:31:19","fd252370c17a9971d68c1d4354a03c2e","","Mozilla/5.0 (Windows NT 10.0; Win64; x64; rv:106.0) Gecko/20100101 Firefox/106.0","","Firefox","106.0","Windows","10.0","null","null","","<p style=""font-size: 48px;"">+</p>","4","Filler","",""
"","","","","","sentence","14703","html-keyboard-response","136","278883","0.0-6.0-1.25","105","4","2022-11-17 12:31:19","fd252370c17a9971d68c1d4354a03c2e","","Mozilla/5.0 (Windows NT 10.0; Win64; x64; rv:106.0) Gecko/20100101 Firefox/106.0","","Firefox","106.0","Windows","10.0","574"," ","","A parrot is eating an apple","4","Filler","",""
"","","","","","fixation","14703","html-keyboard-response","137","279394","0.0-6.0-2.25","105","4","2022-11-17 12:31:19","fd252370c17a9971d68c1d4354a03c2e","","Mozilla/5.0 (Windows NT 10.0; Win64; x64; rv:106.0) Gecko/20100101 Firefox/106.0","","Firefox","106.0","Windows","10.0","null","null","","<p style=""font-size: 48px;"">+</p>","4","Filler","",""
"","","","","","picture","14703","image-keyboard-response","138","279984","0.0-6.0-3.25","105","4","2022-11-17 12:31:19","fd252370c17a9971d68c1d4354a03c2e","","Mozilla/5.0 (Windows NT 10.0; Win64; x64; rv:106.0) Gecko/20100101 Firefox/106.0","","Firefox","106.0","Windows","10.0","581","n","","shirt.jpg","4","Filler","true",""
"","","","","","fixation","14703","html-keyboard-response","139","281000","0.0-6.0-0.26","105","4","2022-11-17 12:31:19","fd252370c17a9971d68c1d4354a03c2e","","Mozilla/5.0 (Windows NT 10.0; Win64; x64; rv:106.0) Gecko/20100101 Firefox/106.0","","Firefox","106.0","Windows","10.0","null","null","","<p style=""font-size: 48px;"">+</p>","4","Filler","",""
"","","","","","sentence","14703","html-keyboard-response","140","281409","0.0-6.0-1.26","105","4","2022-11-17 12:31:19","fd252370c17a9971d68c1d4354a03c2e","","Mozilla/5.0 (Windows NT 10.0; Win64; x64; rv:106.0) Gecko/20100101 Firefox/106.0","","Firefox","106.0","Windows","10.0","400"," ","","A woman is paying with a debit card","4","Filler","",""
"","","","","","fixation","14703","html-keyboard-response","141","281919","0.0-6.0-2.26","105","4","2022-11-17 12:31:19","fd252370c17a9971d68c1d4354a03c2e","","Mozilla/5.0 (Windows NT 10.0; Win64; x64; rv:106.0) Gecko/20100101 Firefox/106.0","","Firefox","106.0","Windows","10.0","null","null","","<p style=""font-size: 48px;"">+</p>","4","Filler","",""
"","","","","","picture","14703","image-keyboard-response","142","282585","0.0-6.0-3.26","105","4","2022-11-17 12:31:19","fd252370c17a9971d68c1d4354a03c2e","","Mozilla/5.0 (Windows NT 10.0; Win64; x64; rv:106.0) Gecko/20100101 Firefox/106.0","","Firefox","106.0","Windows","10.0","639","n","","papercup.jpg","4","Filler","true",""
"","","","","","fixation","14703","html-keyboard-response","143","283601","0.0-6.0-0.27","105","4","2022-11-17 12:31:19","fd252370c17a9971d68c1d4354a03c2e","","Mozilla/5.0 (Windows NT 10.0; Win64; x64; rv:106.0) Gecko/20100101 Firefox/106.0","","Firefox","106.0","Windows","10.0","null","null","","<p style=""font-size: 48px;"">+</p>","4","Light-Matched","",""
"","","","","","sentence","14703","html-keyboard-response","144","284250","0.0-6.0-1.27","105","4","2022-11-17 12:31:19","fd252370c17a9971d68c1d4354a03c2e","","Mozilla/5.0 (Windows NT 10.0; Win64; x64; rv:106.0) Gecko/20100101 Firefox/106.0","","Firefox","106.0","Windows","10.0","642"," ","","A balloon dropped and touched a chocolate ice-cream","4","Light-Matched","",""
"","","","","","fixation","14703","html-keyboard-response","145","284768","0.0-6.0-2.27","105","4","2022-11-17 12:31:19","fd252370c17a9971d68c1d4354a03c2e","","Mozilla/5.0 (Windows NT 10.0; Win64; x64; rv:106.0) Gecko/20100101 Firefox/106.0","","Firefox","106.0","Windows","10.0","null","null","","<p style=""font-size: 48px;"">+</p>","4","Light-Matched","",""
"","","","","","picture","14703","image-keyboard-response","146","285529","0.0-6.0-3.27","105","4","2022-11-17 12:31:19","fd252370c17a9971d68c1d4354a03c2e","","Mozilla/5.0 (Windows NT 10.0; Win64; x64; rv:106.0) Gecko/20100101 Firefox/106.0","","Firefox","106.0","Windows","10.0","750","s","","icecreamS.jpg","4","Light-Matched","true",""
"","","","","","fixation","14703","html-keyboard-response","147","286545","0.0-6.0-0.28","105","4","2022-11-17 12:31:19","fd252370c17a9971d68c1d4354a03c2e","","Mozilla/5.0 (Windows NT 10.0; Win64; x64; rv:106.0) Gecko/20100101 Firefox/106.0","","Firefox","106.0","Windows","10.0","null","null","","<p style=""font-size: 48px;"">+</p>","4","Filler","",""
"","","","","","sentence","14703","html-keyboard-response","148","287073","0.0-6.0-1.28","105","4","2022-11-17 12:31:19","fd252370c17a9971d68c1d4354a03c2e","","Mozilla/5.0 (Windows NT 10.0; Win64; x64; rv:106.0) Gecko/20100101 Firefox/106.0","","Firefox","106.0","Windows","10.0","522"," ","","A teenage girl is playing the piano","4","Filler","",""
"","","","","","fixation","14703","html-keyboard-response","149","287592","0.0-6.0-2.28","105","4","2022-11-17 12:31:19","fd252370c17a9971d68c1d4354a03c2e","","Mozilla/5.0 (Windows NT 10.0; Win64; x64; rv:106.0) Gecko/20100101 Firefox/106.0","","Firefox","106.0","Windows","10.0","null","null","","<p style=""font-size: 48px;"">+</p>","4","Filler","",""
"","","","","","picture","14703","image-keyboard-response","150","288281","0.0-6.0-3.28","105","4","2022-11-17 12:31:19","fd252370c17a9971d68c1d4354a03c2e","","Mozilla/5.0 (Windows NT 10.0; Win64; x64; rv:106.0) Gecko/20100101 Firefox/106.0","","Firefox","106.0","Windows","10.0","657","n","","pillow.jpg","4","Filler","true",""
"","","","","","fixation","14703","html-keyboard-response","151","289301","0.0-6.0-0.29","105","4","2022-11-17 12:31:19","fd252370c17a9971d68c1d4354a03c2e","","Mozilla/5.0 (Windows NT 10.0; Win64; x64; rv:106.0) Gecko/20100101 Firefox/106.0","","Firefox","106.0","Windows","10.0","null","null","","<p style=""font-size: 48px;"">+</p>","4","Light-Matched","",""
"","","","","","sentence","14703","html-keyboard-response","152","290108","0.0-6.0-1.29","105","4","2022-11-17 12:31:19","fd252370c17a9971d68c1d4354a03c2e","","Mozilla/5.0 (Windows NT 10.0; Win64; x64; rv:106.0) Gecko/20100101 Firefox/106.0","","Firefox","106.0","Windows","10.0","801"," ","","A balloon dropped and touched an egg flan","4","Light-Matched","",""
"","","","","","fixation","14703","html-keyboard-response","153","290624","0.0-6.0-2.29","105","4","2022-11-17 12:31:19","fd252370c17a9971d68c1d4354a03c2e","","Mozilla/5.0 (Windows NT 10.0; Win64; x64; rv:106.0) Gecko/20100101 Firefox/106.0","","Firefox","106.0","Windows","10.0","null","null","","<p style=""font-size: 48px;"">+</p>","4","Light-Matched","",""
"","","","","","picture","14703","image-keyboard-response","154","291257","0.0-6.0-3.29","105","4","2022-11-17 12:31:19","fd252370c17a9971d68c1d4354a03c2e","","Mozilla/5.0 (Windows NT 10.0; Win64; x64; rv:106.0) Gecko/20100101 Firefox/106.0","","Firefox","106.0","Windows","10.0","621","s","","eggflanS.jpg","4","Light-Matched","true",""
"","","","","","fixation","14703","html-keyboard-response","155","292273","0.0-6.0-0.30","105","4","2022-11-17 12:31:19","fd252370c17a9971d68c1d4354a03c2e","","Mozilla/5.0 (Windows NT 10.0; Win64; x64; rv:106.0) Gecko/20100101 Firefox/106.0","","Firefox","106.0","Windows","10.0","null","null","","<p style=""font-size: 48px;"">+</p>","4","Filler","",""
"","","","","","sentence","14703","html-keyboard-response","156","292810","0.0-6.0-1.30","105","4","2022-11-17 12:31:19","fd252370c17a9971d68c1d4354a03c2e","","Mozilla/5.0 (Windows NT 10.0; Win64; x64; rv:106.0) Gecko/20100101 Firefox/106.0","","Firefox","106.0","Windows","10.0","531"," ","","A panda is resting on a tree","4","Filler","",""
"","","","","","fixation","14703","html-keyboard-response","157","293323","0.0-6.0-2.30","105","4","2022-11-17 12:31:19","fd252370c17a9971d68c1d4354a03c2e","","Mozilla/5.0 (Windows NT 10.0; Win64; x64; rv:106.0) Gecko/20100101 Firefox/106.0","","Firefox","106.0","Windows","10.0","null","null","","<p style=""font-size: 48px;"">+</p>","4","Filler","",""
"","","","","","picture","14703","image-keyboard-response","158","294033","0.0-6.0-3.30","105","4","2022-11-17 12:31:19","fd252370c17a9971d68c1d4354a03c2e","","Mozilla/5.0 (Windows NT 10.0; Win64; x64; rv:106.0) Gecko/20100101 Firefox/106.0","","Firefox","106.0","Windows","10.0","687","n","","dollar.jpg","4","Filler","true",""
"","","","","","fixation","14703","html-keyboard-response","159","295049","0.0-6.0-0.31","105","4","2022-11-17 12:31:19","fd252370c17a9971d68c1d4354a03c2e","","Mozilla/5.0 (Windows NT 10.0; Win64; x64; rv:106.0) Gecko/20100101 Firefox/106.0","","Firefox","106.0","Windows","10.0","null","null","","<p style=""font-size: 48px;"">+</p>","4","Heavy-Contradictory","",""
"","","","","","sentence","14703","html-keyboard-response","160","295866","0.0-6.0-1.31","105","4","2022-11-17 12:31:19","fd252370c17a9971d68c1d4354a03c2e","","Mozilla/5.0 (Windows NT 10.0; Win64; x64; rv:106.0) Gecko/20100101 Firefox/106.0","","Firefox","106.0","Windows","10.0","811"," ","","A bowling ball dropped and touched a wineglass","4","Heavy-Contradictory","",""
"","","","","","fixation","14703","html-keyboard-response","161","296387","0.0-6.0-2.31","105","4","2022-11-17 12:31:19","fd252370c17a9971d68c1d4354a03c2e","","Mozilla/5.0 (Windows NT 10.0; Win64; x64; rv:106.0) Gecko/20100101 Firefox/106.0","","Firefox","106.0","Windows","10.0","null","null","","<p style=""font-size: 48px;"">+</p>","4","Heavy-Contradictory","",""
"","","","","","picture","14703","image-keyboard-response","162","297016","0.0-6.0-3.31","105","4","2022-11-17 12:31:19","fd252370c17a9971d68c1d4354a03c2e","","Mozilla/5.0 (Windows NT 10.0; Win64; x64; rv:106.0) Gecko/20100101 Firefox/106.0","","Firefox","106.0","Windows","10.0","606","s","","wineglassS.jpg","4","Heavy-Contradictory","true",""
"","","","","","fixation","14703","html-keyboard-response","163","298034","0.0-6.0-0.32","105","4","2022-11-17 12:31:19","fd252370c17a9971d68c1d4354a03c2e","","Mozilla/5.0 (Windows NT 10.0; Win64; x64; rv:106.0) Gecko/20100101 Firefox/106.0","","Firefox","106.0","Windows","10.0","null","null","","<p style=""font-size: 48px;"">+</p>","4","Filler","",""
"","","","","","sentence","14703","html-keyboard-response","164","298625","0.0-6.0-1.32","105","4","2022-11-17 12:31:19","fd252370c17a9971d68c1d4354a03c2e","","Mozilla/5.0 (Windows NT 10.0; Win64; x64; rv:106.0) Gecko/20100101 Firefox/106.0","","Firefox","106.0","Windows","10.0","586"," ","","A police officer is talking on the phone","4","Filler","",""
"","","","","","fixation","14703","html-keyboard-response","165","299141","0.0-6.0-2.32","105","4","2022-11-17 12:31:19","fd252370c17a9971d68c1d4354a03c2e","","Mozilla/5.0 (Windows NT 10.0; Win64; x64; rv:106.0) Gecko/20100101 Firefox/106.0","","Firefox","106.0","Windows","10.0","null","null","","<p style=""font-size: 48px;"">+</p>","4","Filler","",""
"","","","","","picture","14703","image-keyboard-response","166","299755","0.0-6.0-3.32","105","4","2022-11-17 12:31:19","fd252370c17a9971d68c1d4354a03c2e","","Mozilla/5.0 (Windows NT 10.0; Win64; x64; rv:106.0) Gecko/20100101 Firefox/106.0","","Firefox","106.0","Windows","10.0","607","n","","tissuebox.jpg","4","Filler","true",""
"","","","","","fixation","14703","html-keyboard-response","167","300776","0.0-6.0-0.33","105","4","2022-11-17 12:31:19","fd252370c17a9971d68c1d4354a03c2e","","Mozilla/5.0 (Windows NT 10.0; Win64; x64; rv:106.0) Gecko/20100101 Firefox/106.0","","Firefox","106.0","Windows","10.0","null","null","","<p style=""font-size: 48px;"">+</p>","4","Filler","",""
"","","","","","sentence","14703","html-keyboard-response","168","301361","0.0-6.0-1.33","105","4","2022-11-17 12:31:19","fd252370c17a9971d68c1d4354a03c2e","","Mozilla/5.0 (Windows NT 10.0; Win64; x64; rv:106.0) Gecko/20100101 Firefox/106.0","","Firefox","106.0","Windows","10.0","580"," ","","A remote was placed on the rug","4","Filler","",""
"","","","","","fixation","14703","html-keyboard-response","169","301879","0.0-6.0-2.33","105","4","2022-11-17 12:31:19","fd252370c17a9971d68c1d4354a03c2e","","Mozilla/5.0 (Windows NT 10.0; Win64; x64; rv:106.0) Gecko/20100101 Firefox/106.0","","Firefox","106.0","Windows","10.0","null","null","","<p style=""font-size: 48px;"">+</p>","4","Filler","",""
"","","","","","picture","14703","image-keyboard-response","170","302667","0.0-6.0-3.33","105","4","2022-11-17 12:31:19","fd252370c17a9971d68c1d4354a03c2e","","Mozilla/5.0 (Windows NT 10.0; Win64; x64; rv:106.0) Gecko/20100101 Firefox/106.0","","Firefox","106.0","Windows","10.0","776","n","","CD.jpg","4","Filler","true",""
"","","","","","fixation","14703","html-keyboard-response","171","303675","0.0-6.0-0.34","105","4","2022-11-17 12:31:19","fd252370c17a9971d68c1d4354a03c2e","","Mozilla/5.0 (Windows NT 10.0; Win64; x64; rv:106.0) Gecko/20100101 Firefox/106.0","","Firefox","106.0","Windows","10.0","null","null","","<p style=""font-size: 48px;"">+</p>","4","Light-Contradictory","",""
"","","","","","sentence","14703","html-keyboard-response","172","304388","0.0-6.0-1.34","105","4","2022-11-17 12:31:19","fd252370c17a9971d68c1d4354a03c2e","","Mozilla/5.0 (Windows NT 10.0; Win64; x64; rv:106.0) Gecko/20100101 Firefox/106.0","","Firefox","106.0","Windows","10.0","706"," ","","A balloon dropped and smashed an iPhone","4","Light-Contradictory","",""
"","","","","","fixation","14703","html-keyboard-response","173","304903","0.0-6.0-2.34","105","4","2022-11-17 12:31:19","fd252370c17a9971d68c1d4354a03c2e","","Mozilla/5.0 (Windows NT 10.0; Win64; x64; rv:106.0) Gecko/20100101 Firefox/106.0","","Firefox","106.0","Windows","10.0","null","null","","<p style=""font-size: 48px;"">+</p>","4","Light-Contradictory","",""
"","","","","","picture","14703","image-keyboard-response","174","305439","0.0-6.0-3.34","105","4","2022-11-17 12:31:19","fd252370c17a9971d68c1d4354a03c2e","","Mozilla/5.0 (Windows NT 10.0; Win64; x64; rv:106.0) Gecko/20100101 Firefox/106.0","","Firefox","106.0","Windows","10.0","524","s","","iphoneS.png","4","Light-Contradictory","true",""
"","","","","","fixation","14703","html-keyboard-response","175","306444","0.0-6.0-0.35","105","4","2022-11-17 12:31:19","fd252370c17a9971d68c1d4354a03c2e","","Mozilla/5.0 (Windows NT 10.0; Win64; x64; rv:106.0) Gecko/20100101 Firefox/106.0","","Firefox","106.0","Windows","10.0","null","null","","<p style=""font-size: 48px;"">+</p>","4","Filler","",""
"","","","","","sentence","14703","html-keyboard-response","176","306977","0.0-6.0-1.35","105","4","2022-11-17 12:31:19","fd252370c17a9971d68c1d4354a03c2e","","Mozilla/5.0 (Windows NT 10.0; Win64; x64; rv:106.0) Gecko/20100101 Firefox/106.0","","Firefox","106.0","Windows","10.0","528"," ","","A watch was placed on the laptop","4","Filler","",""
"","","","","","fixation","14703","html-keyboard-response","177","307489","0.0-6.0-2.35","105","4","2022-11-17 12:31:19","fd252370c17a9971d68c1d4354a03c2e","","Mozilla/5.0 (Windows NT 10.0; Win64; x64; rv:106.0) Gecko/20100101 Firefox/106.0","","Firefox","106.0","Windows","10.0","null","null","","<p style=""font-size: 48px;"">+</p>","4","Filler","",""
"","","","","","picture","14703","image-keyboard-response","178","308202","0.0-6.0-3.35","105","4","2022-11-17 12:31:19","fd252370c17a9971d68c1d4354a03c2e","","Mozilla/5.0 (Windows NT 10.0; Win64; x64; rv:106.0) Gecko/20100101 Firefox/106.0","","Firefox","106.0","Windows","10.0","704","n","","bow.jpg","4","Filler","true",""
"","","","","","fixation","14703","html-keyboard-response","179","309215","0.0-6.0-0.36","105","4","2022-11-17 12:31:19","fd252370c17a9971d68c1d4354a03c2e","","Mozilla/5.0 (Windows NT 10.0; Win64; x64; rv:106.0) Gecko/20100101 Firefox/106.0","","Firefox","106.0","Windows","10.0","null","null","","<p style=""font-size: 48px;"">+</p>","4","Filler","",""
"","","","","","sentence","14703","html-keyboard-response","180","309782","0.0-6.0-1.36","105","4","2022-11-17 12:31:19","fd252370c17a9971d68c1d4354a03c2e","","Mozilla/5.0 (Windows NT 10.0; Win64; x64; rv:106.0) Gecko/20100101 Firefox/106.0","","Firefox","106.0","Windows","10.0","558"," ","","An owl is sitting on the branch","4","Filler","",""
"","","","","","fixation","14703","html-keyboard-response","181","310302","0.0-6.0-2.36","105","4","2022-11-17 12:31:19","fd252370c17a9971d68c1d4354a03c2e","","Mozilla/5.0 (Windows NT 10.0; Win64; x64; rv:106.0) Gecko/20100101 Firefox/106.0","","Firefox","106.0","Windows","10.0","null","null","","<p style=""font-size: 48px;"">+</p>","4","Filler","",""
"","","","","","picture","14703","image-keyboard-response","182","311052","0.0-6.0-3.36","105","4","2022-11-17 12:31:19","fd252370c17a9971d68c1d4354a03c2e","","Mozilla/5.0 (Windows NT 10.0; Win64; x64; rv:106.0) Gecko/20100101 Firefox/106.0","","Firefox","106.0","Windows","10.0","730","n","","rubberduck.jpg","4","Filler","true",""
"","","","","","fixation","14703","html-keyboard-response","183","312060","0.0-6.0-0.37","105","4","2022-11-17 12:31:19","fd252370c17a9971d68c1d4354a03c2e","","Mozilla/5.0 (Windows NT 10.0; Win64; x64; rv:106.0) Gecko/20100101 Firefox/106.0","","Firefox","106.0","Windows","10.0","null","null","","<p style=""font-size: 48px;"">+</p>","4","Light-Contradictory","",""
"","","","","","sentence","14703","html-keyboard-response","184","313019","0.0-6.0-1.37","105","4","2022-11-17 12:31:19","fd252370c17a9971d68c1d4354a03c2e","","Mozilla/5.0 (Windows NT 10.0; Win64; x64; rv:106.0) Gecko/20100101 Firefox/106.0","","Firefox","106.0","Windows","10.0","952"," ","","A balloon dropped and smashed a chocolate muffin","4","Light-Contradictory","",""
"","","","","","fixation","14703","html-keyboard-response","185","313536","0.0-6.0-2.37","105","4","2022-11-17 12:31:19","fd252370c17a9971d68c1d4354a03c2e","","Mozilla/5.0 (Windows NT 10.0; Win64; x64; rv:106.0) Gecko/20100101 Firefox/106.0","","Firefox","106.0","Windows","10.0","null","null","","<p style=""font-size: 48px;"">+</p>","4","Light-Contradictory","",""
"","","","","","picture","14703","image-keyboard-response","186","314186","0.0-6.0-3.37","105","4","2022-11-17 12:31:19","fd252370c17a9971d68c1d4354a03c2e","","Mozilla/5.0 (Windows NT 10.0; Win64; x64; rv:106.0) Gecko/20100101 Firefox/106.0","","Firefox","106.0","Windows","10.0","631","s","","muffinS.jpg","4","Light-Contradictory","true",""
"","","","","","fixation","14703","html-keyboard-response","187","315216","0.0-6.0-0.38","105","4","2022-11-17 12:31:19","fd252370c17a9971d68c1d4354a03c2e","","Mozilla/5.0 (Windows NT 10.0; Win64; x64; rv:106.0) Gecko/20100101 Firefox/106.0","","Firefox","106.0","Windows","10.0","null","null","","<p style=""font-size: 48px;"">+</p>","4","Filler","",""
"","","","","","sentence","14703","html-keyboard-response","188","315319","0.0-6.0-1.38","105","4","2022-11-17 12:31:19","fd252370c17a9971d68c1d4354a03c2e","","Mozilla/5.0 (Windows NT 10.0; Win64; x64; rv:106.0) Gecko/20100101 Firefox/106.0","","Firefox","106.0","Windows","10.0","96"," ","","A keyboard was placed on the bed","4","Filler","",""
"","","","","","fixation","14703","html-keyboard-response","189","315834","0.0-6.0-2.38","105","4","2022-11-17 12:31:19","fd252370c17a9971d68c1d4354a03c2e","","Mozilla/5.0 (Windows NT 10.0; Win64; x64; rv:106.0) Gecko/20100101 Firefox/106.0","","Firefox","106.0","Windows","10.0","null","null","","<p style=""font-size: 48px;"">+</p>","4","Filler","",""
"","","","","","picture","14703","image-keyboard-response","190","317209","0.0-6.0-3.38","105","4","2022-11-17 12:31:19","fd252370c17a9971d68c1d4354a03c2e","","Mozilla/5.0 (Windows NT 10.0; Win64; x64; rv:106.0) Gecko/20100101 Firefox/106.0","","Firefox","106.0","Windows","10.0","1366","n","","bottlecap.jpg","4","Filler","true",""
"","","","","","fixation","14703","html-keyboard-response","191","318227","0.0-6.0-0.39","105","4","2022-11-17 12:31:19","fd252370c17a9971d68c1d4354a03c2e","","Mozilla/5.0 (Windows NT 10.0; Win64; x64; rv:106.0) Gecko/20100101 Firefox/106.0","","Firefox","106.0","Windows","10.0","null","null","","<p style=""font-size: 48px;"">+</p>","4","Heavy-Contradictory","",""
"","","","","","sentence","14703","html-keyboard-response","192","319313","0.0-6.0-1.39","105","4","2022-11-17 12:31:19","fd252370c17a9971d68c1d4354a03c2e","","Mozilla/5.0 (Windows NT 10.0; Win64; x64; rv:106.0) Gecko/20100101 Firefox/106.0","","Firefox","106.0","Windows","10.0","1079"," ","","A bowling ball dropped and touched a piece of cake","4","Heavy-Contradictory","",""
"","","","","","fixation","14703","html-keyboard-response","193","319829","0.0-6.0-2.39","105","4","2022-11-17 12:31:19","fd252370c17a9971d68c1d4354a03c2e","","Mozilla/5.0 (Windows NT 10.0; Win64; x64; rv:106.0) Gecko/20100101 Firefox/106.0","","Firefox","106.0","Windows","10.0","null","null","","<p style=""font-size: 48px;"">+</p>","4","Heavy-Contradictory","",""
"","","","","","picture","14703","image-keyboard-response","194","322449","0.0-6.0-3.39","105","4","2022-11-17 12:31:19","fd252370c17a9971d68c1d4354a03c2e","","Mozilla/5.0 (Windows NT 10.0; Win64; x64; rv:106.0) Gecko/20100101 Firefox/106.0","","Firefox","106.0","Windows","10.0","2609","s","","cakeS.jpg","4","Heavy-Contradictory","true",""
"","","","","","fixation","14703","html-keyboard-response","195","323472","0.0-6.0-0.40","105","4","2022-11-17 12:31:19","fd252370c17a9971d68c1d4354a03c2e","","Mozilla/5.0 (Windows NT 10.0; Win64; x64; rv:106.0) Gecko/20100101 Firefox/106.0","","Firefox","106.0","Windows","10.0","null","null","","<p style=""font-size: 48px;"">+</p>","4","Filler","",""
"","","","","","sentence","14703","html-keyboard-response","196","324193","0.0-6.0-1.40","105","4","2022-11-17 12:31:19","fd252370c17a9971d68c1d4354a03c2e","","Mozilla/5.0 (Windows NT 10.0; Win64; x64; rv:106.0) Gecko/20100101 Firefox/106.0","","Firefox","106.0","Windows","10.0","713"," ","","A mouse is eating cheese","4","Filler","",""
"","","","","","fixation","14703","html-keyboard-response","197","324702","0.0-6.0-2.40","105","4","2022-11-17 12:31:19","fd252370c17a9971d68c1d4354a03c2e","","Mozilla/5.0 (Windows NT 10.0; Win64; x64; rv:106.0) Gecko/20100101 Firefox/106.0","","Firefox","106.0","Windows","10.0","null","null","","<p style=""font-size: 48px;"">+</p>","4","Filler","",""
"","","","","","picture","14703","image-keyboard-response","198","325761","0.0-6.0-3.40","105","4","2022-11-17 12:31:19","fd252370c17a9971d68c1d4354a03c2e","","Mozilla/5.0 (Windows NT 10.0; Win64; x64; rv:106.0) Gecko/20100101 Firefox/106.0","","Firefox","106.0","Windows","10.0","1048","n","","ring.jpg","4","Filler","true",""
"","","","","","fixation","14703","html-keyboard-response","199","326777","0.0-6.0-0.41","105","4","2022-11-17 12:31:19","fd252370c17a9971d68c1d4354a03c2e","","Mozilla/5.0 (Windows NT 10.0; Win64; x64; rv:106.0) Gecko/20100101 Firefox/106.0","","Firefox","106.0","Windows","10.0","null","null","","<p style=""font-size: 48px;"">+</p>","4","Heavy-Contradictory","",""
"","","","","","sentence","14703","html-keyboard-response","200","327425","0.0-6.0-1.41","105","4","2022-11-17 12:31:19","fd252370c17a9971d68c1d4354a03c2e","","Mozilla/5.0 (Windows NT 10.0; Win64; x64; rv:106.0) Gecko/20100101 Firefox/106.0","","Firefox","106.0","Windows","10.0","640"," ","","A bowling ball dropped and touched a TV","4","Heavy-Contradictory","",""
"","","","","","fixation","14703","html-keyboard-response","201","327933","0.0-6.0-2.41","105","4","2022-11-17 12:31:19","fd252370c17a9971d68c1d4354a03c2e","","Mozilla/5.0 (Windows NT 10.0; Win64; x64; rv:106.0) Gecko/20100101 Firefox/106.0","","Firefox","106.0","Windows","10.0","null","null","","<p style=""font-size: 48px;"">+</p>","4","Heavy-Contradictory","",""
"","","","","","picture","14703","image-keyboard-response","202","328900","0.0-6.0-3.41","105","4","2022-11-17 12:31:19","fd252370c17a9971d68c1d4354a03c2e","","Mozilla/5.0 (Windows NT 10.0; Win64; x64; rv:106.0) Gecko/20100101 Firefox/106.0","","Firefox","106.0","Windows","10.0","946","s","","tvS.jpg","4","Heavy-Contradictory","true",""
"","","","","","fixation","14703","html-keyboard-response","203","329920","0.0-6.0-0.42","105","4","2022-11-17 12:31:19","fd252370c17a9971d68c1d4354a03c2e","","Mozilla/5.0 (Windows NT 10.0; Win64; x64; rv:106.0) Gecko/20100101 Firefox/106.0","","Firefox","106.0","Windows","10.0","null","null","","<p style=""font-size: 48px;"">+</p>","4","Filler","",""
"","","","","","sentence","14703","html-keyboard-response","204","330578","0.0-6.0-1.42","105","4","2022-11-17 12:31:19","fd252370c17a9971d68c1d4354a03c2e","","Mozilla/5.0 (Windows NT 10.0; Win64; x64; rv:106.0) Gecko/20100101 Firefox/106.0","","Firefox","106.0","Windows","10.0","651"," ","","A cat is drinking water from a bowl","4","Filler","",""
"","","","","","fixation","14703","html-keyboard-response","205","331089","0.0-6.0-2.42","105","4","2022-11-17 12:31:19","fd252370c17a9971d68c1d4354a03c2e","","Mozilla/5.0 (Windows NT 10.0; Win64; x64; rv:106.0) Gecko/20100101 Firefox/106.0","","Firefox","106.0","Windows","10.0","null","null","","<p style=""font-size: 48px;"">+</p>","4","Filler","",""
"","","","","","picture","14703","image-keyboard-response","206","331850","0.0-6.0-3.42","105","4","2022-11-17 12:31:19","fd252370c17a9971d68c1d4354a03c2e","","Mozilla/5.0 (Windows NT 10.0; Win64; x64; rv:106.0) Gecko/20100101 Firefox/106.0","","Firefox","106.0","Windows","10.0","753","s","","bowl.jpg","4","Filler","true",""
"","","","","","fixation","14703","html-keyboard-response","207","332863","0.0-6.0-0.43","105","4","2022-11-17 12:31:19","fd252370c17a9971d68c1d4354a03c2e","","Mozilla/5.0 (Windows NT 10.0; Win64; x64; rv:106.0) Gecko/20100101 Firefox/106.0","","Firefox","106.0","Windows","10.0","null","null","","<p style=""font-size: 48px;"">+</p>","4","Filler","",""
"","","","","","sentence","14703","html-keyboard-response","208","333401","0.0-6.0-1.43","105","4","2022-11-17 12:31:19","fd252370c17a9971d68c1d4354a03c2e","","Mozilla/5.0 (Windows NT 10.0; Win64; x64; rv:106.0) Gecko/20100101 Firefox/106.0","","Firefox","106.0","Windows","10.0","526"," ","","A nurse is taking a syringe","4","Filler","",""
"","","","","","fixation","14703","html-keyboard-response","209","333910","0.0-6.0-2.43","105","4","2022-11-17 12:31:19","fd252370c17a9971d68c1d4354a03c2e","","Mozilla/5.0 (Windows NT 10.0; Win64; x64; rv:106.0) Gecko/20100101 Firefox/106.0","","Firefox","106.0","Windows","10.0","null","null","","<p style=""font-size: 48px;"">+</p>","4","Filler","",""
"","","","","","picture","14703","image-keyboard-response","210","334665","0.0-6.0-3.43","105","4","2022-11-17 12:31:19","fd252370c17a9971d68c1d4354a03c2e","","Mozilla/5.0 (Windows NT 10.0; Win64; x64; rv:106.0) Gecko/20100101 Firefox/106.0","","Firefox","106.0","Windows","10.0","730","n","","headphones.jpg","4","Filler","true",""
"","","","","","fixation","14703","html-keyboard-response","211","335683","0.0-6.0-0.44","105","4","2022-11-17 12:31:19","fd252370c17a9971d68c1d4354a03c2e","","Mozilla/5.0 (Windows NT 10.0; Win64; x64; rv:106.0) Gecko/20100101 Firefox/106.0","","Firefox","106.0","Windows","10.0","null","null","","<p style=""font-size: 48px;"">+</p>","4","Filler","",""
"","","","","","sentence","14703","html-keyboard-response","212","336217","0.0-6.0-1.44","105","4","2022-11-17 12:31:19","fd252370c17a9971d68c1d4354a03c2e","","Mozilla/5.0 (Windows NT 10.0; Win64; x64; rv:106.0) Gecko/20100101 Firefox/106.0","","Firefox","106.0","Windows","10.0","527"," ","","A thief is stealing a wallet","4","Filler","",""
"","","","","","fixation","14703","html-keyboard-response","213","336725","0.0-6.0-2.44","105","4","2022-11-17 12:31:19","fd252370c17a9971d68c1d4354a03c2e","","Mozilla/5.0 (Windows NT 10.0; Win64; x64; rv:106.0) Gecko/20100101 Firefox/106.0","","Firefox","106.0","Windows","10.0","null","null","","<p style=""font-size: 48px;"">+</p>","4","Filler","",""
"","","","","","picture","14703","image-keyboard-response","214","337449","0.0-6.0-3.44","105","4","2022-11-17 12:31:19","fd252370c17a9971d68c1d4354a03c2e","","Mozilla/5.0 (Windows NT 10.0; Win64; x64; rv:106.0) Gecko/20100101 Firefox/106.0","","Firefox","106.0","Windows","10.0","709","n","","teddybear.jpg","4","Filler","true",""
"","","","","","fixation","14703","html-keyboard-response","215","338479","0.0-6.0-0.45","105","4","2022-11-17 12:31:19","fd252370c17a9971d68c1d4354a03c2e","","Mozilla/5.0 (Windows NT 10.0; Win64; x64; rv:106.0) Gecko/20100101 Firefox/106.0","","Firefox","106.0","Windows","10.0","null","null","","<p style=""font-size: 48px;"">+</p>","4","Filler","",""
"","","","","","sentence","14703","html-keyboard-response","216","338969","0.0-6.0-1.45","105","4","2022-11-17 12:31:19","fd252370c17a9971d68c1d4354a03c2e","","Mozilla/5.0 (Windows NT 10.0; Win64; x64; rv:106.0) Gecko/20100101 Firefox/106.0","","Firefox","106.0","Windows","10.0","483"," ","","A pencil was placed on the shoe","4","Filler","",""
"","","","","","fixation","14703","html-keyboard-response","217","339488","0.0-6.0-2.45","105","4","2022-11-17 12:31:19","fd252370c17a9971d68c1d4354a03c2e","","Mozilla/5.0 (Windows NT 10.0; Win64; x64; rv:106.0) Gecko/20100101 Firefox/106.0","","Firefox","106.0","Windows","10.0","null","null","","<p style=""font-size: 48px;"">+</p>","4","Filler","",""
"","","","","","picture","14703","image-keyboard-response","218","340569","0.0-6.0-3.45","105","4","2022-11-17 12:31:19","fd252370c17a9971d68c1d4354a03c2e","","Mozilla/5.0 (Windows NT 10.0; Win64; x64; rv:106.0) Gecko/20100101 Firefox/106.0","","Firefox","106.0","Windows","10.0","1045","n","","perfume.jpg","4","Filler","true",""
"","","","","","fixation","14703","html-keyboard-response","219","341576","0.0-6.0-0.46","105","4","2022-11-17 12:31:19","fd252370c17a9971d68c1d4354a03c2e","","Mozilla/5.0 (Windows NT 10.0; Win64; x64; rv:106.0) Gecko/20100101 Firefox/106.0","","Firefox","106.0","Windows","10.0","null","null","","<p style=""font-size: 48px;"">+</p>","4","Light-Matched","",""
"","","","","","sentence","14703","html-keyboard-response","220","342210","0.0-6.0-1.46","105","4","2022-11-17 12:31:19","fd252370c17a9971d68c1d4354a03c2e","","Mozilla/5.0 (Windows NT 10.0; Win64; x64; rv:106.0) Gecko/20100101 Firefox/106.0","","Firefox","106.0","Windows","10.0","624"," ","","A balloon dropped and touched an iPAD","4","Light-Matched","",""
"","","","","","fixation","14703","html-keyboard-response","221","342728","0.0-6.0-2.46","105","4","2022-11-17 12:31:19","fd252370c17a9971d68c1d4354a03c2e","","Mozilla/5.0 (Windows NT 10.0; Win64; x64; rv:106.0) Gecko/20100101 Firefox/106.0","","Firefox","106.0","Windows","10.0","null","null","","<p style=""font-size: 48px;"">+</p>","4","Light-Matched","",""
"","","","","","picture","14703","image-keyboard-response","222","343273","0.0-6.0-3.46","105","4","2022-11-17 12:31:19","fd252370c17a9971d68c1d4354a03c2e","","Mozilla/5.0 (Windows NT 10.0; Win64; x64; rv:106.0) Gecko/20100101 Firefox/106.0","","Firefox","106.0","Windows","10.0","535","s","","iPadS.jpg","4","Light-Matched","true",""
"","","","","","fixation","14703","html-keyboard-response","223","344284","0.0-6.0-0.47","105","4","2022-11-17 12:31:19","fd252370c17a9971d68c1d4354a03c2e","","Mozilla/5.0 (Windows NT 10.0; Win64; x64; rv:106.0) Gecko/20100101 Firefox/106.0","","Firefox","106.0","Windows","10.0","null","null","","<p style=""font-size: 48px;"">+</p>","4","Light-Contradictory","",""
"","","","","","sentence","14703","html-keyboard-response","224","344889","0.0-6.0-1.47","105","4","2022-11-17 12:31:19","fd252370c17a9971d68c1d4354a03c2e","","Mozilla/5.0 (Windows NT 10.0; Win64; x64; rv:106.0) Gecko/20100101 Firefox/106.0","","Firefox","106.0","Windows","10.0","596"," ","","A balloon dropped and smashed a donut","4","Light-Contradictory","",""
"","","","","","fixation","14703","html-keyboard-response","225","345400","0.0-6.0-2.47","105","4","2022-11-17 12:31:19","fd252370c17a9971d68c1d4354a03c2e","","Mozilla/5.0 (Windows NT 10.0; Win64; x64; rv:106.0) Gecko/20100101 Firefox/106.0","","Firefox","106.0","Windows","10.0","null","null","","<p style=""font-size: 48px;"">+</p>","4","Light-Contradictory","",""
"","","","","","picture","14703","image-keyboard-response","226","345897","0.0-6.0-3.47","105","4","2022-11-17 12:31:19","fd252370c17a9971d68c1d4354a03c2e","","Mozilla/5.0 (Windows NT 10.0; Win64; x64; rv:106.0) Gecko/20100101 Firefox/106.0","","Firefox","106.0","Windows","10.0","477","s","","donutS.jpg","4","Light-Contradictory","true",""
"","","","","","fixation","14703","html-keyboard-response","227","346913","0.0-6.0-0.48","105","4","2022-11-17 12:31:19","fd252370c17a9971d68c1d4354a03c2e","","Mozilla/5.0 (Windows NT 10.0; Win64; x64; rv:106.0) Gecko/20100101 Firefox/106.0","","Firefox","106.0","Windows","10.0","null","null","","<p style=""font-size: 48px;"">+</p>","4","Heavy-Matched","",""
"","","","","","sentence","14703","html-keyboard-response","228","347928","0.0-6.0-1.48","105","4","2022-11-17 12:31:19","fd252370c17a9971d68c1d4354a03c2e","","Mozilla/5.0 (Windows NT 10.0; Win64; x64; rv:106.0) Gecko/20100101 Firefox/106.0","","Firefox","106.0","Windows","10.0","1006"," ","","A bowling ball  dropped and smashed a tomato","4","Heavy-Matched","",""
"","","","","","fixation","14703","html-keyboard-response","229","348442","0.0-6.0-2.48","105","4","2022-11-17 12:31:19","fd252370c17a9971d68c1d4354a03c2e","","Mozilla/5.0 (Windows NT 10.0; Win64; x64; rv:106.0) Gecko/20100101 Firefox/106.0","","Firefox","106.0","Windows","10.0","null","null","","<p style=""font-size: 48px;"">+</p>","4","Heavy-Matched","",""
"","","","","","picture","14703","image-keyboard-response","230","348972","0.0-6.0-3.48","105","4","2022-11-17 12:31:19","fd252370c17a9971d68c1d4354a03c2e","","Mozilla/5.0 (Windows NT 10.0; Win64; x64; rv:106.0) Gecko/20100101 Firefox/106.0","","Firefox","106.0","Windows","10.0","515","s","","tomatoS.jpg","4","Heavy-Matched","true",""
"","","","","","fixation","14703","html-keyboard-response","231","349997","0.0-6.0-0.49","105","4","2022-11-17 12:31:19","fd252370c17a9971d68c1d4354a03c2e","","Mozilla/5.0 (Windows NT 10.0; Win64; x64; rv:106.0) Gecko/20100101 Firefox/106.0","","Firefox","106.0","Windows","10.0","null","null","","<p style=""font-size: 48px;"">+</p>","4","Heavy-Matched","",""
"","","","","","sentence","14703","html-keyboard-response","232","350587","0.0-6.0-1.49","105","4","2022-11-17 12:31:19","fd252370c17a9971d68c1d4354a03c2e","","Mozilla/5.0 (Windows NT 10.0; Win64; x64; rv:106.0) Gecko/20100101 Firefox/106.0","","Firefox","106.0","Windows","10.0","582"," ","","A bowling ball  dropped and smashed a vase","4","Heavy-Matched","",""
"","","","","","fixation","14703","html-keyboard-response","233","351118","0.0-6.0-2.49","105","4","2022-11-17 12:31:19","fd252370c17a9971d68c1d4354a03c2e","","Mozilla/5.0 (Windows NT 10.0; Win64; x64; rv:106.0) Gecko/20100101 Firefox/106.0","","Firefox","106.0","Windows","10.0","null","null","","<p style=""font-size: 48px;"">+</p>","4","Heavy-Matched","",""
"","","","","","picture","14703","image-keyboard-response","234","351833","0.0-6.0-3.49","105","4","2022-11-17 12:31:19","fd252370c17a9971d68c1d4354a03c2e","","Mozilla/5.0 (Windows NT 10.0; Win64; x64; rv:106.0) Gecko/20100101 Firefox/106.0","","Firefox","106.0","Windows","10.0","681","s","","vaseS.jpg","4","Heavy-Matched","true",""
"","","","","","fixation","14703","html-keyboard-response","235","352844","0.0-6.0-0.50","105","4","2022-11-17 12:31:19","fd252370c17a9971d68c1d4354a03c2e","","Mozilla/5.0 (Windows NT 10.0; Win64; x64; rv:106.0) Gecko/20100101 Firefox/106.0","","Firefox","106.0","Windows","10.0","null","null","","<p style=""font-size: 48px;"">+</p>","4","Heavy-Contradictory","",""
"","","","","","sentence","14703","html-keyboard-response","236","353281","0.0-6.0-1.50","105","4","2022-11-17 12:31:19","fd252370c17a9971d68c1d4354a03c2e","","Mozilla/5.0 (Windows NT 10.0; Win64; x64; rv:106.0) Gecko/20100101 Firefox/106.0","","Firefox","106.0","Windows","10.0","431"," ","","A bowling ball dropped and touched a porcelain figure","4","Heavy-Contradictory","",""
"","","","","","fixation","14703","html-keyboard-response","237","353803","0.0-6.0-2.50","105","4","2022-11-17 12:31:19","fd252370c17a9971d68c1d4354a03c2e","","Mozilla/5.0 (Windows NT 10.0; Win64; x64; rv:106.0) Gecko/20100101 Firefox/106.0","","Firefox","106.0","Windows","10.0","null","null","","<p style=""font-size: 48px;"">+</p>","4","Heavy-Contradictory","",""
"","","","","","picture","14703","image-keyboard-response","238","354400","0.0-6.0-3.50","105","4","2022-11-17 12:31:19","fd252370c17a9971d68c1d4354a03c2e","","Mozilla/5.0 (Windows NT 10.0; Win64; x64; rv:106.0) Gecko/20100101 Firefox/106.0","","Firefox","106.0","Windows","10.0","584","s","","figureS.jpg","4","Heavy-Contradictory","true",""
"","","","","","fixation","14703","html-keyboard-response","239","355422","0.0-6.0-0.51","105","4","2022-11-17 12:31:19","fd252370c17a9971d68c1d4354a03c2e","","Mozilla/5.0 (Windows NT 10.0; Win64; x64; rv:106.0) Gecko/20100101 Firefox/106.0","","Firefox","106.0","Windows","10.0","null","null","","<p style=""font-size: 48px;"">+</p>","4","Filler","",""
"","","","","","sentence","14703","html-keyboard-response","240","356066","0.0-6.0-1.51","105","4","2022-11-17 12:31:19","fd252370c17a9971d68c1d4354a03c2e","","Mozilla/5.0 (Windows NT 10.0; Win64; x64; rv:106.0) Gecko/20100101 Firefox/106.0","","Firefox","106.0","Windows","10.0","630"," ","","A pilot is reading a book","4","Filler","",""
"","","","","","fixation","14703","html-keyboard-response","241","356590","0.0-6.0-2.51","105","4","2022-11-17 12:31:19","fd252370c17a9971d68c1d4354a03c2e","","Mozilla/5.0 (Windows NT 10.0; Win64; x64; rv:106.0) Gecko/20100101 Firefox/106.0","","Firefox","106.0","Windows","10.0","null","null","","<p style=""font-size: 48px;"">+</p>","4","Filler","",""
"","","","","","picture","14703","image-keyboard-response","242","357497","0.0-6.0-3.51","105","4","2022-11-17 12:31:19","fd252370c17a9971d68c1d4354a03c2e","","Mozilla/5.0 (Windows NT 10.0; Win64; x64; rv:106.0) Gecko/20100101 Firefox/106.0","","Firefox","106.0","Windows","10.0","894","n","","spoon.jpg","4","Filler","true",""
"","","","","","fixation","14703","html-keyboard-response","243","358520","0.0-6.0-0.52","105","4","2022-11-17 12:31:19","fd252370c17a9971d68c1d4354a03c2e","","Mozilla/5.0 (Windows NT 10.0; Win64; x64; rv:106.0) Gecko/20100101 Firefox/106.0","","Firefox","106.0","Windows","10.0","null","null","","<p style=""font-size: 48px;"">+</p>","4","Filler","",""
"","","","","","sentence","14703","html-keyboard-response","244","359067","0.0-6.0-1.52","105","4","2022-11-17 12:31:19","fd252370c17a9971d68c1d4354a03c2e","","Mozilla/5.0 (Windows NT 10.0; Win64; x64; rv:106.0) Gecko/20100101 Firefox/106.0","","Firefox","106.0","Windows","10.0","531"," ","","An actress is taking a microphone","4","Filler","",""
"","","","","","fixation","14703","html-keyboard-response","245","359596","0.0-6.0-2.52","105","4","2022-11-17 12:31:19","fd252370c17a9971d68c1d4354a03c2e","","Mozilla/5.0 (Windows NT 10.0; Win64; x64; rv:106.0) Gecko/20100101 Firefox/106.0","","Firefox","106.0","Windows","10.0","null","null","","<p style=""font-size: 48px;"">+</p>","4","Filler","",""
"","","","","","picture","14703","image-keyboard-response","246","360193","0.0-6.0-3.52","105","4","2022-11-17 12:31:19","fd252370c17a9971d68c1d4354a03c2e","","Mozilla/5.0 (Windows NT 10.0; Win64; x64; rv:106.0) Gecko/20100101 Firefox/106.0","","Firefox","106.0","Windows","10.0","577","n","","pants.jpg","4","Filler","true",""
"","","","","","fixation","14703","html-keyboard-response","247","361201","0.0-6.0-0.53","105","4","2022-11-17 12:31:19","fd252370c17a9971d68c1d4354a03c2e","","Mozilla/5.0 (Windows NT 10.0; Win64; x64; rv:106.0) Gecko/20100101 Firefox/106.0","","Firefox","106.0","Windows","10.0","null","null","","<p style=""font-size: 48px;"">+</p>","4","Heavy-Matched","",""
"","","","","","sentence","14703","html-keyboard-response","248","361937","0.0-6.0-1.53","105","4","2022-11-17 12:31:19","fd252370c17a9971d68c1d4354a03c2e","","Mozilla/5.0 (Windows NT 10.0; Win64; x64; rv:106.0) Gecko/20100101 Firefox/106.0","","Firefox","106.0","Windows","10.0","726"," ","","A bowling ball dropped and smashed a piece of sushi","4","Heavy-Matched","",""
"","","","","","fixation","14703","html-keyboard-response","249","362450","0.0-6.0-2.53","105","4","2022-11-17 12:31:19","fd252370c17a9971d68c1d4354a03c2e","","Mozilla/5.0 (Windows NT 10.0; Win64; x64; rv:106.0) Gecko/20100101 Firefox/106.0","","Firefox","106.0","Windows","10.0","null","null","","<p style=""font-size: 48px;"">+</p>","4","Heavy-Matched","",""
"","","","","","picture","14703","image-keyboard-response","250","363266","0.0-6.0-3.53","105","4","2022-11-17 12:31:19","fd252370c17a9971d68c1d4354a03c2e","","Mozilla/5.0 (Windows NT 10.0; Win64; x64; rv:106.0) Gecko/20100101 Firefox/106.0","","Firefox","106.0","Windows","10.0","805","s","","sushiS.jpg","4","Heavy-Matched","true",""
"","","","","","fixation","14703","html-keyboard-response","251","364289","0.0-6.0-0.54","105","4","2022-11-17 12:31:19","fd252370c17a9971d68c1d4354a03c2e","","Mozilla/5.0 (Windows NT 10.0; Win64; x64; rv:106.0) Gecko/20100101 Firefox/106.0","","Firefox","106.0","Windows","10.0","null","null","","<p style=""font-size: 48px;"">+</p>","4","Filler","",""
"","","","","","sentence","14703","html-keyboard-response","252","364890","0.0-6.0-1.54","105","4","2022-11-17 12:31:19","fd252370c17a9971d68c1d4354a03c2e","","Mozilla/5.0 (Windows NT 10.0; Win64; x64; rv:106.0) Gecko/20100101 Firefox/106.0","","Firefox","106.0","Windows","10.0","595"," ","","A man is shaving his beard","4","Filler","",""
"","","","","","fixation","14703","html-keyboard-response","253","365410","0.0-6.0-2.54","105","4","2022-11-17 12:31:19","fd252370c17a9971d68c1d4354a03c2e","","Mozilla/5.0 (Windows NT 10.0; Win64; x64; rv:106.0) Gecko/20100101 Firefox/106.0","","Firefox","106.0","Windows","10.0","null","null","","<p style=""font-size: 48px;"">+</p>","4","Filler","",""
"","","","","","picture","14703","image-keyboard-response","254","366185","0.0-6.0-3.54","105","4","2022-11-17 12:31:19","fd252370c17a9971d68c1d4354a03c2e","","Mozilla/5.0 (Windows NT 10.0; Win64; x64; rv:106.0) Gecko/20100101 Firefox/106.0","","Firefox","106.0","Windows","10.0","744","n","","clock.jpg","4","Filler","true",""
"","","","","","fixation","14703","html-keyboard-response","255","367200","0.0-6.0-0.55","105","4","2022-11-17 12:31:19","fd252370c17a9971d68c1d4354a03c2e","","Mozilla/5.0 (Windows NT 10.0; Win64; x64; rv:106.0) Gecko/20100101 Firefox/106.0","","Firefox","106.0","Windows","10.0","null","null","","<p style=""font-size: 48px;"">+</p>","4","Filler","",""
"","","","","","sentence","14703","html-keyboard-response","256","367741","0.0-6.0-1.55","105","4","2022-11-17 12:31:19","fd252370c17a9971d68c1d4354a03c2e","","Mozilla/5.0 (Windows NT 10.0; Win64; x64; rv:106.0) Gecko/20100101 Firefox/106.0","","Firefox","106.0","Windows","10.0","534"," ","","A needle was placed on the mouse pad","4","Filler","",""
"","","","","","fixation","14703","html-keyboard-response","257","368257","0.0-6.0-2.55","105","4","2022-11-17 12:31:19","fd252370c17a9971d68c1d4354a03c2e","","Mozilla/5.0 (Windows NT 10.0; Win64; x64; rv:106.0) Gecko/20100101 Firefox/106.0","","Firefox","106.0","Windows","10.0","null","null","","<p style=""font-size: 48px;"">+</p>","4","Filler","",""
"","","","","","picture","14703","image-keyboard-response","258","369571","0.0-6.0-3.55","105","4","2022-11-17 12:31:19","fd252370c17a9971d68c1d4354a03c2e","","Mozilla/5.0 (Windows NT 10.0; Win64; x64; rv:106.0) Gecko/20100101 Firefox/106.0","","Firefox","106.0","Windows","10.0","1301","n","","chocolate.jpg","4","Filler","true",""
"","","","","","fixation","14703","html-keyboard-response","259","370594","0.0-6.0-0.56","105","4","2022-11-17 12:31:19","fd252370c17a9971d68c1d4354a03c2e","","Mozilla/5.0 (Windows NT 10.0; Win64; x64; rv:106.0) Gecko/20100101 Firefox/106.0","","Firefox","106.0","Windows","10.0","null","null","","<p style=""font-size: 48px;"">+</p>","4","Filler","",""
"","","","","","sentence","14703","html-keyboard-response","260","371179","0.0-6.0-1.56","105","4","2022-11-17 12:31:19","fd252370c17a9971d68c1d4354a03c2e","","Mozilla/5.0 (Windows NT 10.0; Win64; x64; rv:106.0) Gecko/20100101 Firefox/106.0","","Firefox","106.0","Windows","10.0","578"," ","","A cabbage was placed on the table","4","Filler","",""
"","","","","","fixation","14703","html-keyboard-response","261","371687","0.0-6.0-2.56","105","4","2022-11-17 12:31:19","fd252370c17a9971d68c1d4354a03c2e","","Mozilla/5.0 (Windows NT 10.0; Win64; x64; rv:106.0) Gecko/20100101 Firefox/106.0","","Firefox","106.0","Windows","10.0","null","null","","<p style=""font-size: 48px;"">+</p>","4","Filler","",""
"","","","","","picture","14703","image-keyboard-response","262","372377","0.0-6.0-3.56","105","4","2022-11-17 12:31:19","fd252370c17a9971d68c1d4354a03c2e","","Mozilla/5.0 (Windows NT 10.0; Win64; x64; rv:106.0) Gecko/20100101 Firefox/106.0","","Firefox","106.0","Windows","10.0","652","n","","ladder.jpg","4","Filler","true",""
"","","","","","fixation","14703","html-keyboard-response","263","373389","0.0-6.0-0.57","105","4","2022-11-17 12:31:19","fd252370c17a9971d68c1d4354a03c2e","","Mozilla/5.0 (Windows NT 10.0; Win64; x64; rv:106.0) Gecko/20100101 Firefox/106.0","","Firefox","106.0","Windows","10.0","null","null","","<p style=""font-size: 48px;"">+</p>","4","Filler","",""
"","","","","","sentence","14703","html-keyboard-response","264","373865","0.0-6.0-1.57","105","4","2022-11-17 12:31:19","fd252370c17a9971d68c1d4354a03c2e","","Mozilla/5.0 (Windows NT 10.0; Win64; x64; rv:106.0) Gecko/20100101 Firefox/106.0","","Firefox","106.0","Windows","10.0","458"," ","","A thermometer was placed on the box","4","Filler","",""
"","","","","","fixation","14703","html-keyboard-response","265","374383","0.0-6.0-2.57","105","4","2022-11-17 12:31:19","fd252370c17a9971d68c1d4354a03c2e","","Mozilla/5.0 (Windows NT 10.0; Win64; x64; rv:106.0) Gecko/20100101 Firefox/106.0","","Firefox","106.0","Windows","10.0","null","null","","<p style=""font-size: 48px;"">+</p>","4","Filler","",""
"","","","","","picture","14703","image-keyboard-response","266","375128","0.0-6.0-3.57","105","4","2022-11-17 12:31:19","fd252370c17a9971d68c1d4354a03c2e","","Mozilla/5.0 (Windows NT 10.0; Win64; x64; rv:106.0) Gecko/20100101 Firefox/106.0","","Firefox","106.0","Windows","10.0","733","n","","button.jpg","4","Filler","true",""
"","","","","","fixation","14703","html-keyboard-response","267","376142","0.0-6.0-0.58","105","4","2022-11-17 12:31:19","fd252370c17a9971d68c1d4354a03c2e","","Mozilla/5.0 (Windows NT 10.0; Win64; x64; rv:106.0) Gecko/20100101 Firefox/106.0","","Firefox","106.0","Windows","10.0","null","null","","<p style=""font-size: 48px;"">+</p>","4","Filler","",""
"","","","","","sentence","14703","html-keyboard-response","268","376859","0.0-6.0-1.58","105","4","2022-11-17 12:31:19","fd252370c17a9971d68c1d4354a03c2e","","Mozilla/5.0 (Windows NT 10.0; Win64; x64; rv:106.0) Gecko/20100101 Firefox/106.0","","Firefox","106.0","Windows","10.0","706"," ","","A photographer is taking a photo of a lion","4","Filler","",""
"","","","","","fixation","14703","html-keyboard-response","269","377374","0.0-6.0-2.58","105","4","2022-11-17 12:31:19","fd252370c17a9971d68c1d4354a03c2e","","Mozilla/5.0 (Windows NT 10.0; Win64; x64; rv:106.0) Gecko/20100101 Firefox/106.0","","Firefox","106.0","Windows","10.0","null","null","","<p style=""font-size: 48px;"">+</p>","4","Filler","",""
"","","","","","picture","14703","image-keyboard-response","270","378035","0.0-6.0-3.58","105","4","2022-11-17 12:31:19","fd252370c17a9971d68c1d4354a03c2e","","Mozilla/5.0 (Windows NT 10.0; Win64; x64; rv:106.0) Gecko/20100101 Firefox/106.0","","Firefox","106.0","Windows","10.0","644","s","","lion.jpg","4","Filler","true",""
"","","","","","fixation","14703","html-keyboard-response","271","379068","0.0-6.0-0.59","105","4","2022-11-17 12:31:19","fd252370c17a9971d68c1d4354a03c2e","","Mozilla/5.0 (Windows NT 10.0; Win64; x64; rv:106.0) Gecko/20100101 Firefox/106.0","","Firefox","106.0","Windows","10.0","null","null","","<p style=""font-size: 48px;"">+</p>","4","Filler","",""
"","","","","","sentence","14703","html-keyboard-response","272","379625","0.0-6.0-1.59","105","4","2022-11-17 12:31:19","fd252370c17a9971d68c1d4354a03c2e","","Mozilla/5.0 (Windows NT 10.0; Win64; x64; rv:106.0) Gecko/20100101 Firefox/106.0","","Firefox","106.0","Windows","10.0","543"," ","","An elephant is eating a watermelon","4","Filler","",""
"","","","","","fixation","14703","html-keyboard-response","273","380144","0.0-6.0-2.59","105","4","2022-11-17 12:31:19","fd252370c17a9971d68c1d4354a03c2e","","Mozilla/5.0 (Windows NT 10.0; Win64; x64; rv:106.0) Gecko/20100101 Firefox/106.0","","Firefox","106.0","Windows","10.0","null","null","","<p style=""font-size: 48px;"">+</p>","4","Filler","",""
"","","","","","picture","14703","image-keyboard-response","274","380859","0.0-6.0-3.59","105","4","2022-11-17 12:31:19","fd252370c17a9971d68c1d4354a03c2e","","Mozilla/5.0 (Windows NT 10.0; Win64; x64; rv:106.0) Gecko/20100101 Firefox/106.0","","Firefox","106.0","Windows","10.0","690","s","","watermelon.jpg","4","Filler","true",""
"","","","","","fixation","14703","html-keyboard-response","275","381883","0.0-6.0-0.60","105","4","2022-11-17 12:31:19","fd252370c17a9971d68c1d4354a03c2e","","Mozilla/5.0 (Windows NT 10.0; Win64; x64; rv:106.0) Gecko/20100101 Firefox/106.0","","Firefox","106.0","Windows","10.0","null","null","","<p style=""font-size: 48px;"">+</p>","4","Light-Matched","",""
"","","","","","sentence","14703","html-keyboard-response","276","382524","0.0-6.0-1.60","105","4","2022-11-17 12:31:19","fd252370c17a9971d68c1d4354a03c2e","","Mozilla/5.0 (Windows NT 10.0; Win64; x64; rv:106.0) Gecko/20100101 Firefox/106.0","","Firefox","106.0","Windows","10.0","631"," ","","A balloon dropped and touched glasses","4","Light-Matched","",""
