"success","timeout","failed_images","failed_audio","failed_video","typeoftrial","subject","trial_type","trial_index","time_elapsed","internal_node_id","run_id","condition","recorded_at","source_code_version","ip","user_agent","device","browser","browser_version","platform","platform_version","rt","response","Experiment","stimulus","list_number","trialcondition","correct","question_order"
"true","false","[]","[]","[]","preload","37717","preload","0","20","0.0-0.0","90","1","2022-11-17 12:27:10","fd252370c17a9971d68c1d4354a03c2e","","Mozilla/5.0 (Windows NT 6.3; Win64; x64) AppleWebKit/537.36 (KHTML, like Gecko) Chrome/107.0.0.0 Safari/537.36","WebKit","Chrome","107.0.0.0","Windows","6.3","","","","","","","",""
"","","","","","ID","37717","survey-text","1","2958","0.0-1.0","90","1","2022-11-17 12:27:10","fd252370c17a9971d68c1d4354a03c2e","","Mozilla/5.0 (Windows NT 6.3; Win64; x64) AppleWebKit/537.36 (KHTML, like Gecko) Chrome/107.0.0.0 Safari/537.36","WebKit","Chrome","107.0.0.0","Windows","6.3","2932","{""ID"":""60cf0f27d7afb87f35a94654""}","","","","","",""
"","","","","","instructions","37717","html-button-response","2","16109","0.0-2.0","90","1","2022-11-17 12:27:10","fd252370c17a9971d68c1d4354a03c2e","","Mozilla/5.0 (Windows NT 6.3; Win64; x64) AppleWebKit/537.36 (KHTML, like Gecko) Chrome/107.0.0.0 Safari/537.36","WebKit","Chrome","107.0.0.0","Windows","6.3","13150","0","","
                    <p style=""font-size:20px;""> Welcome to the experiment! </p>
                    <p style=""font-size:20px;""> In this experiment, you will be asked to make judgments about the content of different sentences.</p>
                    <p style=""font-size:20px;""> On each trial, you will read a sentence, and will be shown a picture immediately following the sentence. </p>
                    <p style=""font-size:20px;""> Your task is to decide whether the object displayed in the picture was mentioned in the sentence or not </p>
                    <p style=""font-size:20px;""> and respond as quickly as possible by pressing <strong>S</strong> for yes or <strong>N</strong> for no. </p>
                    <p style=""font-size:20px;""> You will now do a practice session with feedback and instructions. </p>
                    <p style=""font-size:20px;""> Click the button below to continue.</p>
                    ","","","",""
"","","","","","instructions","37717","html-button-response","3","29441","0.0-3.0","90","1","2022-11-17 12:27:10","fd252370c17a9971d68c1d4354a03c2e","","Mozilla/5.0 (Windows NT 6.3; Win64; x64) AppleWebKit/537.36 (KHTML, like Gecko) Chrome/107.0.0.0 Safari/537.36","WebKit","Chrome","107.0.0.0","Windows","6.3","13330","0","","
                    <p style=""font-size:20px;""> You are about to begin the practice test. </p>
                    <p style=""font-size:20px;""> On each trial, a sentence will appear on the screen. You should press SPACEBAR when you have read and understood the sentence.</p>
                    <p style=""font-size:20px;""> After you press SPACEBAR, a picture will appear on the screen. </p>
                    <p style=""font-size:20px;""> You need to indicate whether or not the pictured object was mentioned in the sentence. </p>
                    <p style=""font-size:20px;""> If the object WAS mentioned in the preceding sentence, you should press <strong>S</strong> </p>
                    <p style=""font-size:20px;""> If the object was NOT mentioned in the preceding sentence, you should press <strong>N</strong>. </p>
                    <p style=""font-size:20px;""> Click the button below to continue to the practice session.</p>
                    ","","","",""
"","","","","","fixation","37717","html-keyboard-response","4","30448","0.0-4.0-0.0","90","1","2022-11-17 12:27:10","fd252370c17a9971d68c1d4354a03c2e","","Mozilla/5.0 (Windows NT 6.3; Win64; x64) AppleWebKit/537.36 (KHTML, like Gecko) Chrome/107.0.0.0 Safari/537.36","WebKit","Chrome","107.0.0.0","Windows","6.3","null","null","","<p style=""font-size: 48px;"">+</p>","practice","practice_s","",""
"","","","","","sentence","37717","html-keyboard-response","5","33052","0.0-4.0-1.0","90","1","2022-11-17 12:27:10","fd252370c17a9971d68c1d4354a03c2e","","Mozilla/5.0 (Windows NT 6.3; Win64; x64) AppleWebKit/537.36 (KHTML, like Gecko) Chrome/107.0.0.0 Safari/537.36","WebKit","Chrome","107.0.0.0","Windows","6.3","2601"," ","","A knife was placed on a hammer","practice","practice_s","",""
"","","","","","fixation","37717","html-keyboard-response","6","33559","0.0-4.0-2.0","90","1","2022-11-17 12:27:10","fd252370c17a9971d68c1d4354a03c2e","","Mozilla/5.0 (Windows NT 6.3; Win64; x64) AppleWebKit/537.36 (KHTML, like Gecko) Chrome/107.0.0.0 Safari/537.36","WebKit","Chrome","107.0.0.0","Windows","6.3","null","null","","<p style=""font-size: 48px;"">+</p>","practice","practice_s","",""
"","","","","","picture","37717","image-keyboard-response","7","34870","0.0-4.0-3.0","90","1","2022-11-17 12:27:10","fd252370c17a9971d68c1d4354a03c2e","","Mozilla/5.0 (Windows NT 6.3; Win64; x64) AppleWebKit/537.36 (KHTML, like Gecko) Chrome/107.0.0.0 Safari/537.36","WebKit","Chrome","107.0.0.0","Windows","6.3","1220","n","","hammerB.jpg","practice","practice_s","false",""
"","","","","","","","html-keyboard-response","8","36880","0.0-4.0-4.0","90","1","2022-11-17 12:27:10","fd252370c17a9971d68c1d4354a03c2e","","Mozilla/5.0 (Windows NT 6.3; Win64; x64) AppleWebKit/537.36 (KHTML, like Gecko) Chrome/107.0.0.0 Safari/537.36","WebKit","Chrome","107.0.0.0","Windows","6.3","null","null","","WRONG!","","","",""
"","","","","","fixation","37717","html-keyboard-response","9","37888","0.0-4.0-0.1","90","1","2022-11-17 12:27:10","fd252370c17a9971d68c1d4354a03c2e","","Mozilla/5.0 (Windows NT 6.3; Win64; x64) AppleWebKit/537.36 (KHTML, like Gecko) Chrome/107.0.0.0 Safari/537.36","WebKit","Chrome","107.0.0.0","Windows","6.3","null","null","","<p style=""font-size: 48px;"">+</p>","practice","practice_s","",""
"","","","","","sentence","37717","html-keyboard-response","10","43308","0.0-4.0-1.1","90","1","2022-11-17 12:27:10","fd252370c17a9971d68c1d4354a03c2e","","Mozilla/5.0 (Windows NT 6.3; Win64; x64) AppleWebKit/537.36 (KHTML, like Gecko) Chrome/107.0.0.0 Safari/537.36","WebKit","Chrome","107.0.0.0","Windows","6.3","5419"," ","","A balloon dropped and touched a cigarette","practice","practice_s","",""
"","","","","","fixation","37717","html-keyboard-response","11","43816","0.0-4.0-2.1","90","1","2022-11-17 12:27:10","fd252370c17a9971d68c1d4354a03c2e","","Mozilla/5.0 (Windows NT 6.3; Win64; x64) AppleWebKit/537.36 (KHTML, like Gecko) Chrome/107.0.0.0 Safari/537.36","WebKit","Chrome","107.0.0.0","Windows","6.3","null","null","","<p style=""font-size: 48px;"">+</p>","practice","practice_s","",""
"","","","","","picture","37717","image-keyboard-response","12","44609","0.0-4.0-3.1","90","1","2022-11-17 12:27:10","fd252370c17a9971d68c1d4354a03c2e","","Mozilla/5.0 (Windows NT 6.3; Win64; x64) AppleWebKit/537.36 (KHTML, like Gecko) Chrome/107.0.0.0 Safari/537.36","WebKit","Chrome","107.0.0.0","Windows","6.3","790","s","","cigaretteB.jpg","practice","practice_s","true",""
"","","","","","","","html-keyboard-response","13","46616","0.0-4.0-4.1","90","1","2022-11-17 12:27:10","fd252370c17a9971d68c1d4354a03c2e","","Mozilla/5.0 (Windows NT 6.3; Win64; x64) AppleWebKit/537.36 (KHTML, like Gecko) Chrome/107.0.0.0 Safari/537.36","WebKit","Chrome","107.0.0.0","Windows","6.3","null","null","","CORRECT!","","","",""
"","","","","","fixation","37717","html-keyboard-response","14","47625","0.0-4.0-0.2","90","1","2022-11-17 12:27:10","fd252370c17a9971d68c1d4354a03c2e","","Mozilla/5.0 (Windows NT 6.3; Win64; x64) AppleWebKit/537.36 (KHTML, like Gecko) Chrome/107.0.0.0 Safari/537.36","WebKit","Chrome","107.0.0.0","Windows","6.3","null","null","","<p style=""font-size: 48px;"">+</p>","practice","practice_n","",""
"","","","","","sentence","37717","html-keyboard-response","15","49818","0.0-4.0-1.2","90","1","2022-11-17 12:27:10","fd252370c17a9971d68c1d4354a03c2e","","Mozilla/5.0 (Windows NT 6.3; Win64; x64) AppleWebKit/537.36 (KHTML, like Gecko) Chrome/107.0.0.0 Safari/537.36","WebKit","Chrome","107.0.0.0","Windows","6.3","2190"," ","","A bowling ball dropped and touched a bottle","practice","practice_n","",""
"","","","","","fixation","37717","html-keyboard-response","16","50321","0.0-4.0-2.2","90","1","2022-11-17 12:27:10","fd252370c17a9971d68c1d4354a03c2e","","Mozilla/5.0 (Windows NT 6.3; Win64; x64) AppleWebKit/537.36 (KHTML, like Gecko) Chrome/107.0.0.0 Safari/537.36","WebKit","Chrome","107.0.0.0","Windows","6.3","null","null","","<p style=""font-size: 48px;"">+</p>","practice","practice_n","",""
"","","","","","picture","37717","image-keyboard-response","17","51484","0.0-4.0-3.2","90","1","2022-11-17 12:27:10","fd252370c17a9971d68c1d4354a03c2e","","Mozilla/5.0 (Windows NT 6.3; Win64; x64) AppleWebKit/537.36 (KHTML, like Gecko) Chrome/107.0.0.0 Safari/537.36","WebKit","Chrome","107.0.0.0","Windows","6.3","1159","n","","bookB.jpg","practice","practice_n","true",""
"","","","","","","","html-keyboard-response","18","53489","0.0-4.0-4.2","90","1","2022-11-17 12:27:10","fd252370c17a9971d68c1d4354a03c2e","","Mozilla/5.0 (Windows NT 6.3; Win64; x64) AppleWebKit/537.36 (KHTML, like Gecko) Chrome/107.0.0.0 Safari/537.36","WebKit","Chrome","107.0.0.0","Windows","6.3","null","null","","CORRECT!","","","",""
"","","","","","fixation","37717","html-keyboard-response","19","54496","0.0-4.0-0.3","90","1","2022-11-17 12:27:10","fd252370c17a9971d68c1d4354a03c2e","","Mozilla/5.0 (Windows NT 6.3; Win64; x64) AppleWebKit/537.36 (KHTML, like Gecko) Chrome/107.0.0.0 Safari/537.36","WebKit","Chrome","107.0.0.0","Windows","6.3","null","null","","<p style=""font-size: 48px;"">+</p>","practice","practice_s","",""
"","","","","","sentence","37717","html-keyboard-response","20","57456","0.0-4.0-1.3","90","1","2022-11-17 12:27:10","fd252370c17a9971d68c1d4354a03c2e","","Mozilla/5.0 (Windows NT 6.3; Win64; x64) AppleWebKit/537.36 (KHTML, like Gecko) Chrome/107.0.0.0 Safari/537.36","WebKit","Chrome","107.0.0.0","Windows","6.3","2959"," ","","A bowling ball dropped and smashed a teacup","practice","practice_s","",""
"","","","","","fixation","37717","html-keyboard-response","21","57960","0.0-4.0-2.3","90","1","2022-11-17 12:27:10","fd252370c17a9971d68c1d4354a03c2e","","Mozilla/5.0 (Windows NT 6.3; Win64; x64) AppleWebKit/537.36 (KHTML, like Gecko) Chrome/107.0.0.0 Safari/537.36","WebKit","Chrome","107.0.0.0","Windows","6.3","null","null","","<p style=""font-size: 48px;"">+</p>","practice","practice_s","",""
"","","","","","picture","37717","image-keyboard-response","22","59517","0.0-4.0-3.3","90","1","2022-11-17 12:27:10","fd252370c17a9971d68c1d4354a03c2e","","Mozilla/5.0 (Windows NT 6.3; Win64; x64) AppleWebKit/537.36 (KHTML, like Gecko) Chrome/107.0.0.0 Safari/537.36","WebKit","Chrome","107.0.0.0","Windows","6.3","1554","s","","cupB.jpg","practice","practice_s","true",""
"","","","","","","","html-keyboard-response","23","61528","0.0-4.0-4.3","90","1","2022-11-17 12:27:10","fd252370c17a9971d68c1d4354a03c2e","","Mozilla/5.0 (Windows NT 6.3; Win64; x64) AppleWebKit/537.36 (KHTML, like Gecko) Chrome/107.0.0.0 Safari/537.36","WebKit","Chrome","107.0.0.0","Windows","6.3","null","null","","CORRECT!","","","",""
"","","","","","fixation","37717","html-keyboard-response","24","62536","0.0-4.0-0.4","90","1","2022-11-17 12:27:10","fd252370c17a9971d68c1d4354a03c2e","","Mozilla/5.0 (Windows NT 6.3; Win64; x64) AppleWebKit/537.36 (KHTML, like Gecko) Chrome/107.0.0.0 Safari/537.36","WebKit","Chrome","107.0.0.0","Windows","6.3","null","null","","<p style=""font-size: 48px;"">+</p>","practice","practice_n","",""
"","","","","","sentence","37717","html-keyboard-response","25","65548","0.0-4.0-1.4","90","1","2022-11-17 12:27:10","fd252370c17a9971d68c1d4354a03c2e","","Mozilla/5.0 (Windows NT 6.3; Win64; x64) AppleWebKit/537.36 (KHTML, like Gecko) Chrome/107.0.0.0 Safari/537.36","WebKit","Chrome","107.0.0.0","Windows","6.3","3009"," ","","A fork was placed on a stool","practice","practice_n","",""
"","","","","","fixation","37717","html-keyboard-response","26","66056","0.0-4.0-2.4","90","1","2022-11-17 12:27:10","fd252370c17a9971d68c1d4354a03c2e","","Mozilla/5.0 (Windows NT 6.3; Win64; x64) AppleWebKit/537.36 (KHTML, like Gecko) Chrome/107.0.0.0 Safari/537.36","WebKit","Chrome","107.0.0.0","Windows","6.3","null","null","","<p style=""font-size: 48px;"">+</p>","practice","practice_n","",""
"","","","","","picture","37717","image-keyboard-response","27","67365","0.0-4.0-3.4","90","1","2022-11-17 12:27:10","fd252370c17a9971d68c1d4354a03c2e","","Mozilla/5.0 (Windows NT 6.3; Win64; x64) AppleWebKit/537.36 (KHTML, like Gecko) Chrome/107.0.0.0 Safari/537.36","WebKit","Chrome","107.0.0.0","Windows","6.3","1304","n","","tableB.jpg","practice","practice_n","true",""
"","","","","","","","html-keyboard-response","28","69368","0.0-4.0-4.4","90","1","2022-11-17 12:27:10","fd252370c17a9971d68c1d4354a03c2e","","Mozilla/5.0 (Windows NT 6.3; Win64; x64) AppleWebKit/537.36 (KHTML, like Gecko) Chrome/107.0.0.0 Safari/537.36","WebKit","Chrome","107.0.0.0","Windows","6.3","null","null","","CORRECT!","","","",""
"","","","","","fixation","37717","html-keyboard-response","29","70376","0.0-4.0-0.5","90","1","2022-11-17 12:27:10","fd252370c17a9971d68c1d4354a03c2e","","Mozilla/5.0 (Windows NT 6.3; Win64; x64) AppleWebKit/537.36 (KHTML, like Gecko) Chrome/107.0.0.0 Safari/537.36","WebKit","Chrome","107.0.0.0","Windows","6.3","null","null","","<p style=""font-size: 48px;"">+</p>","practice","practice_n","",""
"","","","","","sentence","37717","html-keyboard-response","30","72182","0.0-4.0-1.5","90","1","2022-11-17 12:27:10","fd252370c17a9971d68c1d4354a03c2e","","Mozilla/5.0 (Windows NT 6.3; Win64; x64) AppleWebKit/537.36 (KHTML, like Gecko) Chrome/107.0.0.0 Safari/537.36","WebKit","Chrome","107.0.0.0","Windows","6.3","1803"," ","","A balloon dropped and smashed a cup","practice","practice_n","",""
"","","","","","fixation","37717","html-keyboard-response","31","72688","0.0-4.0-2.5","90","1","2022-11-17 12:27:10","fd252370c17a9971d68c1d4354a03c2e","","Mozilla/5.0 (Windows NT 6.3; Win64; x64) AppleWebKit/537.36 (KHTML, like Gecko) Chrome/107.0.0.0 Safari/537.36","WebKit","Chrome","107.0.0.0","Windows","6.3","null","null","","<p style=""font-size: 48px;"">+</p>","practice","practice_n","",""
"","","","","","picture","37717","image-keyboard-response","32","73367","0.0-4.0-3.5","90","1","2022-11-17 12:27:10","fd252370c17a9971d68c1d4354a03c2e","","Mozilla/5.0 (Windows NT 6.3; Win64; x64) AppleWebKit/537.36 (KHTML, like Gecko) Chrome/107.0.0.0 Safari/537.36","WebKit","Chrome","107.0.0.0","Windows","6.3","676","s","","bananaB.jpg","practice","practice_n","false",""
"","","","","","","","html-keyboard-response","33","75377","0.0-4.0-4.5","90","1","2022-11-17 12:27:10","fd252370c17a9971d68c1d4354a03c2e","","Mozilla/5.0 (Windows NT 6.3; Win64; x64) AppleWebKit/537.36 (KHTML, like Gecko) Chrome/107.0.0.0 Safari/537.36","WebKit","Chrome","107.0.0.0","Windows","6.3","null","null","","WRONG!","","","",""
"","","","","","movetoexp","37717","html-button-response","34","90514","0.0-5.0","90","1","2022-11-17 12:27:10","fd252370c17a9971d68c1d4354a03c2e","","Mozilla/5.0 (Windows NT 6.3; Win64; x64) AppleWebKit/537.36 (KHTML, like Gecko) Chrome/107.0.0.0 Safari/537.36","WebKit","Chrome","107.0.0.0","Windows","6.3","15134","0","","<p style=""font-size:20px;"">You have now completed the practice session! </p>
                    <p style=""font-size:20px;"">You will now move on to the main experiment, where you will not be provided any feedback. </p>
                    <p style=""font-size:20px;"">Remember, you should press <strong>S</strong> if the pictured object was mentioned in the preceding sentence<br> and <strong>N</strong> if the pictured object was not mentioned in the preceding sentence.</p>
                    <p style=""font-size:20px;"">Please click the button below to continue to the main experiment. </p>","","","",""
"","","","","","fixation","37717","html-keyboard-response","35","91520","0.0-6.0-0.0","90","1","2022-11-17 12:27:10","fd252370c17a9971d68c1d4354a03c2e","","Mozilla/5.0 (Windows NT 6.3; Win64; x64) AppleWebKit/537.36 (KHTML, like Gecko) Chrome/107.0.0.0 Safari/537.36","WebKit","Chrome","107.0.0.0","Windows","6.3","null","null","","<p style=""font-size: 48px;"">+</p>","1","Filler","",""
"","","","","","sentence","37717","html-keyboard-response","36","98455","0.0-6.0-1.0","90","1","2022-11-17 12:27:10","fd252370c17a9971d68c1d4354a03c2e","","Mozilla/5.0 (Windows NT 6.3; Win64; x64) AppleWebKit/537.36 (KHTML, like Gecko) Chrome/107.0.0.0 Safari/537.36","WebKit","Chrome","107.0.0.0","Windows","6.3","6932"," ","","A remote was placed on the rug","1","Filler","",""
"","","","","","fixation","37717","html-keyboard-response","37","98961","0.0-6.0-2.0","90","1","2022-11-17 12:27:10","fd252370c17a9971d68c1d4354a03c2e","","Mozilla/5.0 (Windows NT 6.3; Win64; x64) AppleWebKit/537.36 (KHTML, like Gecko) Chrome/107.0.0.0 Safari/537.36","WebKit","Chrome","107.0.0.0","Windows","6.3","null","null","","<p style=""font-size: 48px;"">+</p>","1","Filler","",""
"","","","","","picture","37717","image-keyboard-response","38","100046","0.0-6.0-3.0","90","1","2022-11-17 12:27:10","fd252370c17a9971d68c1d4354a03c2e","","Mozilla/5.0 (Windows NT 6.3; Win64; x64) AppleWebKit/537.36 (KHTML, like Gecko) Chrome/107.0.0.0 Safari/537.36","WebKit","Chrome","107.0.0.0","Windows","6.3","1080","n","","CD.jpg","1","Filler","true",""
"","","","","","fixation","37717","html-keyboard-response","39","101057","0.0-6.0-0.1","90","1","2022-11-17 12:27:10","fd252370c17a9971d68c1d4354a03c2e","","Mozilla/5.0 (Windows NT 6.3; Win64; x64) AppleWebKit/537.36 (KHTML, like Gecko) Chrome/107.0.0.0 Safari/537.36","WebKit","Chrome","107.0.0.0","Windows","6.3","null","null","","<p style=""font-size: 48px;"">+</p>","1","Filler","",""
"","","","","","sentence","37717","html-keyboard-response","40","106865","0.0-6.0-1.1","90","1","2022-11-17 12:27:10","fd252370c17a9971d68c1d4354a03c2e","","Mozilla/5.0 (Windows NT 6.3; Win64; x64) AppleWebKit/537.36 (KHTML, like Gecko) Chrome/107.0.0.0 Safari/537.36","WebKit","Chrome","107.0.0.0","Windows","6.3","5804"," ","","An old man is hammering a nail","1","Filler","",""
"","","","","","fixation","37717","html-keyboard-response","41","107369","0.0-6.0-2.1","90","1","2022-11-17 12:27:10","fd252370c17a9971d68c1d4354a03c2e","","Mozilla/5.0 (Windows NT 6.3; Win64; x64) AppleWebKit/537.36 (KHTML, like Gecko) Chrome/107.0.0.0 Safari/537.36","WebKit","Chrome","107.0.0.0","Windows","6.3","null","null","","<p style=""font-size: 48px;"">+</p>","1","Filler","",""
"","","","","","picture","37717","image-keyboard-response","42","108846","0.0-6.0-3.1","90","1","2022-11-17 12:27:10","fd252370c17a9971d68c1d4354a03c2e","","Mozilla/5.0 (Windows NT 6.3; Win64; x64) AppleWebKit/537.36 (KHTML, like Gecko) Chrome/107.0.0.0 Safari/537.36","WebKit","Chrome","107.0.0.0","Windows","6.3","1472","s","","nail.jpg","1","Filler","true",""
"","","","","","fixation","37717","html-keyboard-response","43","109857","0.0-6.0-0.2","90","1","2022-11-17 12:27:10","fd252370c17a9971d68c1d4354a03c2e","","Mozilla/5.0 (Windows NT 6.3; Win64; x64) AppleWebKit/537.36 (KHTML, like Gecko) Chrome/107.0.0.0 Safari/537.36","WebKit","Chrome","107.0.0.0","Windows","6.3","null","null","","<p style=""font-size: 48px;"">+</p>","1","Filler","",""
"","","","","","sentence","37717","html-keyboard-response","44","112913","0.0-6.0-1.2","90","1","2022-11-17 12:27:10","fd252370c17a9971d68c1d4354a03c2e","","Mozilla/5.0 (Windows NT 6.3; Win64; x64) AppleWebKit/537.36 (KHTML, like Gecko) Chrome/107.0.0.0 Safari/537.36","WebKit","Chrome","107.0.0.0","Windows","6.3","3054"," ","","A thief is stealing a wallet","1","Filler","",""
"","","","","","fixation","37717","html-keyboard-response","45","113425","0.0-6.0-2.2","90","1","2022-11-17 12:27:10","fd252370c17a9971d68c1d4354a03c2e","","Mozilla/5.0 (Windows NT 6.3; Win64; x64) AppleWebKit/537.36 (KHTML, like Gecko) Chrome/107.0.0.0 Safari/537.36","WebKit","Chrome","107.0.0.0","Windows","6.3","null","null","","<p style=""font-size: 48px;"">+</p>","1","Filler","",""
"","","","","","picture","37717","image-keyboard-response","46","115136","0.0-6.0-3.2","90","1","2022-11-17 12:27:10","fd252370c17a9971d68c1d4354a03c2e","","Mozilla/5.0 (Windows NT 6.3; Win64; x64) AppleWebKit/537.36 (KHTML, like Gecko) Chrome/107.0.0.0 Safari/537.36","WebKit","Chrome","107.0.0.0","Windows","6.3","1707","n","","teddybear.jpg","1","Filler","true",""
"","","","","","fixation","37717","html-keyboard-response","47","116145","0.0-6.0-0.3","90","1","2022-11-17 12:27:10","fd252370c17a9971d68c1d4354a03c2e","","Mozilla/5.0 (Windows NT 6.3; Win64; x64) AppleWebKit/537.36 (KHTML, like Gecko) Chrome/107.0.0.0 Safari/537.36","WebKit","Chrome","107.0.0.0","Windows","6.3","null","null","","<p style=""font-size: 48px;"">+</p>","1","Filler","",""
"","","","","","sentence","37717","html-keyboard-response","48","118000","0.0-6.0-1.3","90","1","2022-11-17 12:27:10","fd252370c17a9971d68c1d4354a03c2e","","Mozilla/5.0 (Windows NT 6.3; Win64; x64) AppleWebKit/537.36 (KHTML, like Gecko) Chrome/107.0.0.0 Safari/537.36","WebKit","Chrome","107.0.0.0","Windows","6.3","1852"," ","","A panda is resting on a tree","1","Filler","",""
"","","","","","fixation","37717","html-keyboard-response","49","118504","0.0-6.0-2.3","90","1","2022-11-17 12:27:10","fd252370c17a9971d68c1d4354a03c2e","","Mozilla/5.0 (Windows NT 6.3; Win64; x64) AppleWebKit/537.36 (KHTML, like Gecko) Chrome/107.0.0.0 Safari/537.36","WebKit","Chrome","107.0.0.0","Windows","6.3","null","null","","<p style=""font-size: 48px;"">+</p>","1","Filler","",""
"","","","","","picture","37717","image-keyboard-response","50","120350","0.0-6.0-3.3","90","1","2022-11-17 12:27:10","fd252370c17a9971d68c1d4354a03c2e","","Mozilla/5.0 (Windows NT 6.3; Win64; x64) AppleWebKit/537.36 (KHTML, like Gecko) Chrome/107.0.0.0 Safari/537.36","WebKit","Chrome","107.0.0.0","Windows","6.3","1842","n","","dollar.jpg","1","Filler","true",""
"","","","","","fixation","37717","html-keyboard-response","51","121361","0.0-6.0-0.4","90","1","2022-11-17 12:27:10","fd252370c17a9971d68c1d4354a03c2e","","Mozilla/5.0 (Windows NT 6.3; Win64; x64) AppleWebKit/537.36 (KHTML, like Gecko) Chrome/107.0.0.0 Safari/537.36","WebKit","Chrome","107.0.0.0","Windows","6.3","null","null","","<p style=""font-size: 48px;"">+</p>","1","Filler","",""
"","","","","","sentence","37717","html-keyboard-response","52","124089","0.0-6.0-1.4","90","1","2022-11-17 12:27:10","fd252370c17a9971d68c1d4354a03c2e","","Mozilla/5.0 (Windows NT 6.3; Win64; x64) AppleWebKit/537.36 (KHTML, like Gecko) Chrome/107.0.0.0 Safari/537.36","WebKit","Chrome","107.0.0.0","Windows","6.3","2724"," ","","An owl is sitting on the branch","1","Filler","",""
"","","","","","fixation","37717","html-keyboard-response","53","124593","0.0-6.0-2.4","90","1","2022-11-17 12:27:10","fd252370c17a9971d68c1d4354a03c2e","","Mozilla/5.0 (Windows NT 6.3; Win64; x64) AppleWebKit/537.36 (KHTML, like Gecko) Chrome/107.0.0.0 Safari/537.36","WebKit","Chrome","107.0.0.0","Windows","6.3","null","null","","<p style=""font-size: 48px;"">+</p>","1","Filler","",""
"","","","","","picture","37717","image-keyboard-response","54","125663","0.0-6.0-3.4","90","1","2022-11-17 12:27:10","fd252370c17a9971d68c1d4354a03c2e","","Mozilla/5.0 (Windows NT 6.3; Win64; x64) AppleWebKit/537.36 (KHTML, like Gecko) Chrome/107.0.0.0 Safari/537.36","WebKit","Chrome","107.0.0.0","Windows","6.3","1065","n","","rubberduck.jpg","1","Filler","true",""
"","","","","","fixation","37717","html-keyboard-response","55","126673","0.0-6.0-0.5","90","1","2022-11-17 12:27:10","fd252370c17a9971d68c1d4354a03c2e","","Mozilla/5.0 (Windows NT 6.3; Win64; x64) AppleWebKit/537.36 (KHTML, like Gecko) Chrome/107.0.0.0 Safari/537.36","WebKit","Chrome","107.0.0.0","Windows","6.3","null","null","","<p style=""font-size: 48px;"">+</p>","1","Filler","",""
"","","","","","sentence","37717","html-keyboard-response","56","128950","0.0-6.0-1.5","90","1","2022-11-17 12:27:10","fd252370c17a9971d68c1d4354a03c2e","","Mozilla/5.0 (Windows NT 6.3; Win64; x64) AppleWebKit/537.36 (KHTML, like Gecko) Chrome/107.0.0.0 Safari/537.36","WebKit","Chrome","107.0.0.0","Windows","6.3","2272"," ","","A cabbage was placed on the table","1","Filler","",""
"","","","","","fixation","37717","html-keyboard-response","57","129456","0.0-6.0-2.5","90","1","2022-11-17 12:27:10","fd252370c17a9971d68c1d4354a03c2e","","Mozilla/5.0 (Windows NT 6.3; Win64; x64) AppleWebKit/537.36 (KHTML, like Gecko) Chrome/107.0.0.0 Safari/537.36","WebKit","Chrome","107.0.0.0","Windows","6.3","null","null","","<p style=""font-size: 48px;"">+</p>","1","Filler","",""
"","","","","","picture","37717","image-keyboard-response","58","130610","0.0-6.0-3.5","90","1","2022-11-17 12:27:10","fd252370c17a9971d68c1d4354a03c2e","","Mozilla/5.0 (Windows NT 6.3; Win64; x64) AppleWebKit/537.36 (KHTML, like Gecko) Chrome/107.0.0.0 Safari/537.36","WebKit","Chrome","107.0.0.0","Windows","6.3","1149","n","","ladder.jpg","1","Filler","true",""
"","","","","","fixation","37717","html-keyboard-response","59","131616","0.0-6.0-0.6","90","1","2022-11-17 12:27:10","fd252370c17a9971d68c1d4354a03c2e","","Mozilla/5.0 (Windows NT 6.3; Win64; x64) AppleWebKit/537.36 (KHTML, like Gecko) Chrome/107.0.0.0 Safari/537.36","WebKit","Chrome","107.0.0.0","Windows","6.3","null","null","","<p style=""font-size: 48px;"">+</p>","1","Heavy_Matched","",""
"","","","","","sentence","37717","html-keyboard-response","60","133788","0.0-6.0-1.6","90","1","2022-11-17 12:27:10","fd252370c17a9971d68c1d4354a03c2e","","Mozilla/5.0 (Windows NT 6.3; Win64; x64) AppleWebKit/537.36 (KHTML, like Gecko) Chrome/107.0.0.0 Safari/537.36","WebKit","Chrome","107.0.0.0","Windows","6.3","2166"," ","","A bowling ball dropped and smashed a wineglass","1","Heavy_Matched","",""
"","","","","","fixation","37717","html-keyboard-response","61","134297","0.0-6.0-2.6","90","1","2022-11-17 12:27:10","fd252370c17a9971d68c1d4354a03c2e","","Mozilla/5.0 (Windows NT 6.3; Win64; x64) AppleWebKit/537.36 (KHTML, like Gecko) Chrome/107.0.0.0 Safari/537.36","WebKit","Chrome","107.0.0.0","Windows","6.3","null","null","","<p style=""font-size: 48px;"">+</p>","1","Heavy_Matched","",""
"","","","","","picture","37717","image-keyboard-response","62","135054","0.0-6.0-3.6","90","1","2022-11-17 12:27:10","fd252370c17a9971d68c1d4354a03c2e","","Mozilla/5.0 (Windows NT 6.3; Win64; x64) AppleWebKit/537.36 (KHTML, like Gecko) Chrome/107.0.0.0 Safari/537.36","WebKit","Chrome","107.0.0.0","Windows","6.3","751","s","","wineglassS.jpg","1","Heavy_Matched","true",""
"","","","","","fixation","37717","html-keyboard-response","63","136064","0.0-6.0-0.7","90","1","2022-11-17 12:27:10","fd252370c17a9971d68c1d4354a03c2e","","Mozilla/5.0 (Windows NT 6.3; Win64; x64) AppleWebKit/537.36 (KHTML, like Gecko) Chrome/107.0.0.0 Safari/537.36","WebKit","Chrome","107.0.0.0","Windows","6.3","null","null","","<p style=""font-size: 48px;"">+</p>","1","Filler","",""
"","","","","","sentence","37717","html-keyboard-response","64","138461","0.0-6.0-1.7","90","1","2022-11-17 12:27:10","fd252370c17a9971d68c1d4354a03c2e","","Mozilla/5.0 (Windows NT 6.3; Win64; x64) AppleWebKit/537.36 (KHTML, like Gecko) Chrome/107.0.0.0 Safari/537.36","WebKit","Chrome","107.0.0.0","Windows","6.3","2390"," ","","A needle was placed on the mouse pad","1","Filler","",""
"","","","","","fixation","37717","html-keyboard-response","65","138968","0.0-6.0-2.7","90","1","2022-11-17 12:27:10","fd252370c17a9971d68c1d4354a03c2e","","Mozilla/5.0 (Windows NT 6.3; Win64; x64) AppleWebKit/537.36 (KHTML, like Gecko) Chrome/107.0.0.0 Safari/537.36","WebKit","Chrome","107.0.0.0","Windows","6.3","null","null","","<p style=""font-size: 48px;"">+</p>","1","Filler","",""
"","","","","","picture","37717","image-keyboard-response","66","140292","0.0-6.0-3.7","90","1","2022-11-17 12:27:10","fd252370c17a9971d68c1d4354a03c2e","","Mozilla/5.0 (Windows NT 6.3; Win64; x64) AppleWebKit/537.36 (KHTML, like Gecko) Chrome/107.0.0.0 Safari/537.36","WebKit","Chrome","107.0.0.0","Windows","6.3","1319","n","","chocolate.jpg","1","Filler","true",""
"","","","","","fixation","37717","html-keyboard-response","67","141305","0.0-6.0-0.8","90","1","2022-11-17 12:27:10","fd252370c17a9971d68c1d4354a03c2e","","Mozilla/5.0 (Windows NT 6.3; Win64; x64) AppleWebKit/537.36 (KHTML, like Gecko) Chrome/107.0.0.0 Safari/537.36","WebKit","Chrome","107.0.0.0","Windows","6.3","null","null","","<p style=""font-size: 48px;"">+</p>","1","Filler","",""
"","","","","","sentence","37717","html-keyboard-response","68","144993","0.0-6.0-1.8","90","1","2022-11-17 12:27:10","fd252370c17a9971d68c1d4354a03c2e","","Mozilla/5.0 (Windows NT 6.3; Win64; x64) AppleWebKit/537.36 (KHTML, like Gecko) Chrome/107.0.0.0 Safari/537.36","WebKit","Chrome","107.0.0.0","Windows","6.3","3683"," ","","A hairdresser is taking scissors","1","Filler","",""
"","","","","","fixation","37717","html-keyboard-response","69","145504","0.0-6.0-2.8","90","1","2022-11-17 12:27:10","fd252370c17a9971d68c1d4354a03c2e","","Mozilla/5.0 (Windows NT 6.3; Win64; x64) AppleWebKit/537.36 (KHTML, like Gecko) Chrome/107.0.0.0 Safari/537.36","WebKit","Chrome","107.0.0.0","Windows","6.3","null","null","","<p style=""font-size: 48px;"">+</p>","1","Filler","",""
"","","","","","picture","37717","image-keyboard-response","70","146205","0.0-6.0-3.8","90","1","2022-11-17 12:27:10","fd252370c17a9971d68c1d4354a03c2e","","Mozilla/5.0 (Windows NT 6.3; Win64; x64) AppleWebKit/537.36 (KHTML, like Gecko) Chrome/107.0.0.0 Safari/537.36","WebKit","Chrome","107.0.0.0","Windows","6.3","695","n","","sock.jpg","1","Filler","true",""
"","","","","","fixation","37717","html-keyboard-response","71","147217","0.0-6.0-0.9","90","1","2022-11-17 12:27:10","fd252370c17a9971d68c1d4354a03c2e","","Mozilla/5.0 (Windows NT 6.3; Win64; x64) AppleWebKit/537.36 (KHTML, like Gecko) Chrome/107.0.0.0 Safari/537.36","WebKit","Chrome","107.0.0.0","Windows","6.3","null","null","","<p style=""font-size: 48px;"">+</p>","1","Filler","",""
"","","","","","sentence","37717","html-keyboard-response","72","147515","0.0-6.0-1.9","90","1","2022-11-17 12:27:10","fd252370c17a9971d68c1d4354a03c2e","","Mozilla/5.0 (Windows NT 6.3; Win64; x64) AppleWebKit/537.36 (KHTML, like Gecko) Chrome/107.0.0.0 Safari/537.36","WebKit","Chrome","107.0.0.0","Windows","6.3","290"," ","","An elephant is eating a watermelon","1","Filler","",""
"","","","","","fixation","37717","html-keyboard-response","73","148024","0.0-6.0-2.9","90","1","2022-11-17 12:27:10","fd252370c17a9971d68c1d4354a03c2e","","Mozilla/5.0 (Windows NT 6.3; Win64; x64) AppleWebKit/537.36 (KHTML, like Gecko) Chrome/107.0.0.0 Safari/537.36","WebKit","Chrome","107.0.0.0","Windows","6.3","null","null","","<p style=""font-size: 48px;"">+</p>","1","Filler","",""
"","","","","","picture","37717","image-keyboard-response","74","149822","0.0-6.0-3.9","90","1","2022-11-17 12:27:10","fd252370c17a9971d68c1d4354a03c2e","","Mozilla/5.0 (Windows NT 6.3; Win64; x64) AppleWebKit/537.36 (KHTML, like Gecko) Chrome/107.0.0.0 Safari/537.36","WebKit","Chrome","107.0.0.0","Windows","6.3","1793","n","","watermelon.jpg","1","Filler","false",""
"","","","","","fixation","37717","html-keyboard-response","75","150832","0.0-6.0-0.10","90","1","2022-11-17 12:27:10","fd252370c17a9971d68c1d4354a03c2e","","Mozilla/5.0 (Windows NT 6.3; Win64; x64) AppleWebKit/537.36 (KHTML, like Gecko) Chrome/107.0.0.0 Safari/537.36","WebKit","Chrome","107.0.0.0","Windows","6.3","null","null","","<p style=""font-size: 48px;"">+</p>","1","Filler","",""
"","","","","","sentence","37717","html-keyboard-response","76","152941","0.0-6.0-1.10","90","1","2022-11-17 12:27:10","fd252370c17a9971d68c1d4354a03c2e","","Mozilla/5.0 (Windows NT 6.3; Win64; x64) AppleWebKit/537.36 (KHTML, like Gecko) Chrome/107.0.0.0 Safari/537.36","WebKit","Chrome","107.0.0.0","Windows","6.3","2106"," ","","A fork was placed on the plate","1","Filler","",""
"","","","","","fixation","37717","html-keyboard-response","77","153449","0.0-6.0-2.10","90","1","2022-11-17 12:27:10","fd252370c17a9971d68c1d4354a03c2e","","Mozilla/5.0 (Windows NT 6.3; Win64; x64) AppleWebKit/537.36 (KHTML, like Gecko) Chrome/107.0.0.0 Safari/537.36","WebKit","Chrome","107.0.0.0","Windows","6.3","null","null","","<p style=""font-size: 48px;"">+</p>","1","Filler","",""
"","","","","","picture","37717","image-keyboard-response","78","154408","0.0-6.0-3.10","90","1","2022-11-17 12:27:10","fd252370c17a9971d68c1d4354a03c2e","","Mozilla/5.0 (Windows NT 6.3; Win64; x64) AppleWebKit/537.36 (KHTML, like Gecko) Chrome/107.0.0.0 Safari/537.36","WebKit","Chrome","107.0.0.0","Windows","6.3","951","s","","plate.jpg","1","Filler","true",""
"","","","","","fixation","37717","html-keyboard-response","79","155416","0.0-6.0-0.11","90","1","2022-11-17 12:27:10","fd252370c17a9971d68c1d4354a03c2e","","Mozilla/5.0 (Windows NT 6.3; Win64; x64) AppleWebKit/537.36 (KHTML, like Gecko) Chrome/107.0.0.0 Safari/537.36","WebKit","Chrome","107.0.0.0","Windows","6.3","null","null","","<p style=""font-size: 48px;"">+</p>","1","Filler","",""
"","","","","","sentence","37717","html-keyboard-response","80","156721","0.0-6.0-1.11","90","1","2022-11-17 12:27:10","fd252370c17a9971d68c1d4354a03c2e","","Mozilla/5.0 (Windows NT 6.3; Win64; x64) AppleWebKit/537.36 (KHTML, like Gecko) Chrome/107.0.0.0 Safari/537.36","WebKit","Chrome","107.0.0.0","Windows","6.3","1299"," ","","A donkey is drinking water.","1","Filler","",""
"","","","","","fixation","37717","html-keyboard-response","81","157232","0.0-6.0-2.11","90","1","2022-11-17 12:27:10","fd252370c17a9971d68c1d4354a03c2e","","Mozilla/5.0 (Windows NT 6.3; Win64; x64) AppleWebKit/537.36 (KHTML, like Gecko) Chrome/107.0.0.0 Safari/537.36","WebKit","Chrome","107.0.0.0","Windows","6.3","null","null","","<p style=""font-size: 48px;"">+</p>","1","Filler","",""
"","","","","","picture","37717","image-keyboard-response","82","158095","0.0-6.0-3.11","90","1","2022-11-17 12:27:10","fd252370c17a9971d68c1d4354a03c2e","","Mozilla/5.0 (Windows NT 6.3; Win64; x64) AppleWebKit/537.36 (KHTML, like Gecko) Chrome/107.0.0.0 Safari/537.36","WebKit","Chrome","107.0.0.0","Windows","6.3","857","n","","couch.jpg","1","Filler","true",""
"","","","","","fixation","37717","html-keyboard-response","83","159104","0.0-6.0-0.12","90","1","2022-11-17 12:27:10","fd252370c17a9971d68c1d4354a03c2e","","Mozilla/5.0 (Windows NT 6.3; Win64; x64) AppleWebKit/537.36 (KHTML, like Gecko) Chrome/107.0.0.0 Safari/537.36","WebKit","Chrome","107.0.0.0","Windows","6.3","null","null","","<p style=""font-size: 48px;"">+</p>","1","Filler","",""
"","","","","","sentence","37717","html-keyboard-response","84","160451","0.0-6.0-1.12","90","1","2022-11-17 12:27:10","fd252370c17a9971d68c1d4354a03c2e","","Mozilla/5.0 (Windows NT 6.3; Win64; x64) AppleWebKit/537.36 (KHTML, like Gecko) Chrome/107.0.0.0 Safari/537.36","WebKit","Chrome","107.0.0.0","Windows","6.3","1342"," ","","A zebra is playing with a horse","1","Filler","",""
"","","","","","fixation","37717","html-keyboard-response","85","160960","0.0-6.0-2.12","90","1","2022-11-17 12:27:10","fd252370c17a9971d68c1d4354a03c2e","","Mozilla/5.0 (Windows NT 6.3; Win64; x64) AppleWebKit/537.36 (KHTML, like Gecko) Chrome/107.0.0.0 Safari/537.36","WebKit","Chrome","107.0.0.0","Windows","6.3","null","null","","<p style=""font-size: 48px;"">+</p>","1","Filler","",""
"","","","","","picture","37717","image-keyboard-response","86","161843","0.0-6.0-3.12","90","1","2022-11-17 12:27:10","fd252370c17a9971d68c1d4354a03c2e","","Mozilla/5.0 (Windows NT 6.3; Win64; x64) AppleWebKit/537.36 (KHTML, like Gecko) Chrome/107.0.0.0 Safari/537.36","WebKit","Chrome","107.0.0.0","Windows","6.3","876","n","","watch.jpg","1","Filler","true",""
"","","","","","fixation","37717","html-keyboard-response","87","162856","0.0-6.0-0.13","90","1","2022-11-17 12:27:10","fd252370c17a9971d68c1d4354a03c2e","","Mozilla/5.0 (Windows NT 6.3; Win64; x64) AppleWebKit/537.36 (KHTML, like Gecko) Chrome/107.0.0.0 Safari/537.36","WebKit","Chrome","107.0.0.0","Windows","6.3","null","null","","<p style=""font-size: 48px;"">+</p>","1","Light_Matched","",""
"","","","","","sentence","37717","html-keyboard-response","88","164623","0.0-6.0-1.13","90","1","2022-11-17 12:27:10","fd252370c17a9971d68c1d4354a03c2e","","Mozilla/5.0 (Windows NT 6.3; Win64; x64) AppleWebKit/537.36 (KHTML, like Gecko) Chrome/107.0.0.0 Safari/537.36","WebKit","Chrome","107.0.0.0","Windows","6.3","1760"," ","","A balloon dropped and touched a rice cake","1","Light_Matched","",""
"","","","","","fixation","37717","html-keyboard-response","89","165129","0.0-6.0-2.13","90","1","2022-11-17 12:27:10","fd252370c17a9971d68c1d4354a03c2e","","Mozilla/5.0 (Windows NT 6.3; Win64; x64) AppleWebKit/537.36 (KHTML, like Gecko) Chrome/107.0.0.0 Safari/537.36","WebKit","Chrome","107.0.0.0","Windows","6.3","null","null","","<p style=""font-size: 48px;"">+</p>","1","Light_Matched","",""
"","","","","","picture","37717","image-keyboard-response","90","166025","0.0-6.0-3.13","90","1","2022-11-17 12:27:10","fd252370c17a9971d68c1d4354a03c2e","","Mozilla/5.0 (Windows NT 6.3; Win64; x64) AppleWebKit/537.36 (KHTML, like Gecko) Chrome/107.0.0.0 Safari/537.36","WebKit","Chrome","107.0.0.0","Windows","6.3","889","s","","tortitaS.jpg","1","Light_Matched","true",""
"","","","","","fixation","37717","html-keyboard-response","91","167032","0.0-6.0-0.14","90","1","2022-11-17 12:27:10","fd252370c17a9971d68c1d4354a03c2e","","Mozilla/5.0 (Windows NT 6.3; Win64; x64) AppleWebKit/537.36 (KHTML, like Gecko) Chrome/107.0.0.0 Safari/537.36","WebKit","Chrome","107.0.0.0","Windows","6.3","null","null","","<p style=""font-size: 48px;"">+</p>","1","Light_Matched","",""
"","","","","","sentence","37717","html-keyboard-response","92","168575","0.0-6.0-1.14","90","1","2022-11-17 12:27:10","fd252370c17a9971d68c1d4354a03c2e","","Mozilla/5.0 (Windows NT 6.3; Win64; x64) AppleWebKit/537.36 (KHTML, like Gecko) Chrome/107.0.0.0 Safari/537.36","WebKit","Chrome","107.0.0.0","Windows","6.3","1540"," ","","A balloon dropped and touched a mirror","1","Light_Matched","",""
"","","","","","fixation","37717","html-keyboard-response","93","169080","0.0-6.0-2.14","90","1","2022-11-17 12:27:10","fd252370c17a9971d68c1d4354a03c2e","","Mozilla/5.0 (Windows NT 6.3; Win64; x64) AppleWebKit/537.36 (KHTML, like Gecko) Chrome/107.0.0.0 Safari/537.36","WebKit","Chrome","107.0.0.0","Windows","6.3","null","null","","<p style=""font-size: 48px;"">+</p>","1","Light_Matched","",""
"","","","","","picture","37717","image-keyboard-response","94","169791","0.0-6.0-3.14","90","1","2022-11-17 12:27:10","fd252370c17a9971d68c1d4354a03c2e","","Mozilla/5.0 (Windows NT 6.3; Win64; x64) AppleWebKit/537.36 (KHTML, like Gecko) Chrome/107.0.0.0 Safari/537.36","WebKit","Chrome","107.0.0.0","Windows","6.3","707","s","","mirrorS.jpg","1","Light_Matched","true",""
"","","","","","fixation","37717","html-keyboard-response","95","170801","0.0-6.0-0.15","90","1","2022-11-17 12:27:10","fd252370c17a9971d68c1d4354a03c2e","","Mozilla/5.0 (Windows NT 6.3; Win64; x64) AppleWebKit/537.36 (KHTML, like Gecko) Chrome/107.0.0.0 Safari/537.36","WebKit","Chrome","107.0.0.0","Windows","6.3","null","null","","<p style=""font-size: 48px;"">+</p>","1","Heavy_Contradictory","",""
"","","","","","sentence","37717","html-keyboard-response","96","172682","0.0-6.0-1.15","90","1","2022-11-17 12:27:10","fd252370c17a9971d68c1d4354a03c2e","","Mozilla/5.0 (Windows NT 6.3; Win64; x64) AppleWebKit/537.36 (KHTML, like Gecko) Chrome/107.0.0.0 Safari/537.36","WebKit","Chrome","107.0.0.0","Windows","6.3","1878"," ","","A bowling ball dropped and touched an iPAD","1","Heavy_Contradictory","",""
"","","","","","fixation","37717","html-keyboard-response","97","173192","0.0-6.0-2.15","90","1","2022-11-17 12:27:10","fd252370c17a9971d68c1d4354a03c2e","","Mozilla/5.0 (Windows NT 6.3; Win64; x64) AppleWebKit/537.36 (KHTML, like Gecko) Chrome/107.0.0.0 Safari/537.36","WebKit","Chrome","107.0.0.0","Windows","6.3","null","null","","<p style=""font-size: 48px;"">+</p>","1","Heavy_Contradictory","",""
"","","","","","picture","37717","image-keyboard-response","98","174209","0.0-6.0-3.15","90","1","2022-11-17 12:27:10","fd252370c17a9971d68c1d4354a03c2e","","Mozilla/5.0 (Windows NT 6.3; Win64; x64) AppleWebKit/537.36 (KHTML, like Gecko) Chrome/107.0.0.0 Safari/537.36","WebKit","Chrome","107.0.0.0","Windows","6.3","1013","s","","iPadS.jpg","1","Heavy_Contradictory","true",""
"","","","","","fixation","37717","html-keyboard-response","99","175225","0.0-6.0-0.16","90","1","2022-11-17 12:27:10","fd252370c17a9971d68c1d4354a03c2e","","Mozilla/5.0 (Windows NT 6.3; Win64; x64) AppleWebKit/537.36 (KHTML, like Gecko) Chrome/107.0.0.0 Safari/537.36","WebKit","Chrome","107.0.0.0","Windows","6.3","null","null","","<p style=""font-size: 48px;"">+</p>","1","Filler","",""
"","","","","","sentence","37717","html-keyboard-response","100","176790","0.0-6.0-1.16","90","1","2022-11-17 12:27:10","fd252370c17a9971d68c1d4354a03c2e","","Mozilla/5.0 (Windows NT 6.3; Win64; x64) AppleWebKit/537.36 (KHTML, like Gecko) Chrome/107.0.0.0 Safari/537.36","WebKit","Chrome","107.0.0.0","Windows","6.3","1563"," ","","A dentist is drinking a can of cola","1","Filler","",""
"","","","","","fixation","37717","html-keyboard-response","101","177296","0.0-6.0-2.16","90","1","2022-11-17 12:27:10","fd252370c17a9971d68c1d4354a03c2e","","Mozilla/5.0 (Windows NT 6.3; Win64; x64) AppleWebKit/537.36 (KHTML, like Gecko) Chrome/107.0.0.0 Safari/537.36","WebKit","Chrome","107.0.0.0","Windows","6.3","null","null","","<p style=""font-size: 48px;"">+</p>","1","Filler","",""
"","","","","","picture","37717","image-keyboard-response","102","178172","0.0-6.0-3.16","90","1","2022-11-17 12:27:10","fd252370c17a9971d68c1d4354a03c2e","","Mozilla/5.0 (Windows NT 6.3; Win64; x64) AppleWebKit/537.36 (KHTML, like Gecko) Chrome/107.0.0.0 Safari/537.36","WebKit","Chrome","107.0.0.0","Windows","6.3","872","n","","doll.jpg","1","Filler","true",""
"","","","","","fixation","37717","html-keyboard-response","103","179185","0.0-6.0-0.17","90","1","2022-11-17 12:27:10","fd252370c17a9971d68c1d4354a03c2e","","Mozilla/5.0 (Windows NT 6.3; Win64; x64) AppleWebKit/537.36 (KHTML, like Gecko) Chrome/107.0.0.0 Safari/537.36","WebKit","Chrome","107.0.0.0","Windows","6.3","null","null","","<p style=""font-size: 48px;"">+</p>","1","Light_Matched","",""
"","","","","","sentence","37717","html-keyboard-response","104","182525","0.0-6.0-1.17","90","1","2022-11-17 12:27:10","fd252370c17a9971d68c1d4354a03c2e","","Mozilla/5.0 (Windows NT 6.3; Win64; x64) AppleWebKit/537.36 (KHTML, like Gecko) Chrome/107.0.0.0 Safari/537.36","WebKit","Chrome","107.0.0.0","Windows","6.3","3336"," ","","A balloon dropped and touched a light bulb","1","Light_Matched","",""
"","","","","","fixation","37717","html-keyboard-response","105","183033","0.0-6.0-2.17","90","1","2022-11-17 12:27:10","fd252370c17a9971d68c1d4354a03c2e","","Mozilla/5.0 (Windows NT 6.3; Win64; x64) AppleWebKit/537.36 (KHTML, like Gecko) Chrome/107.0.0.0 Safari/537.36","WebKit","Chrome","107.0.0.0","Windows","6.3","null","null","","<p style=""font-size: 48px;"">+</p>","1","Light_Matched","",""
"","","","","","picture","37717","image-keyboard-response","106","183941","0.0-6.0-3.17","90","1","2022-11-17 12:27:10","fd252370c17a9971d68c1d4354a03c2e","","Mozilla/5.0 (Windows NT 6.3; Win64; x64) AppleWebKit/537.36 (KHTML, like Gecko) Chrome/107.0.0.0 Safari/537.36","WebKit","Chrome","107.0.0.0","Windows","6.3","901","s","","lampS.jpg","1","Light_Matched","true",""
"","","","","","fixation","37717","html-keyboard-response","107","184952","0.0-6.0-0.18","90","1","2022-11-17 12:27:10","fd252370c17a9971d68c1d4354a03c2e","","Mozilla/5.0 (Windows NT 6.3; Win64; x64) AppleWebKit/537.36 (KHTML, like Gecko) Chrome/107.0.0.0 Safari/537.36","WebKit","Chrome","107.0.0.0","Windows","6.3","null","null","","<p style=""font-size: 48px;"">+</p>","1","Heavy_Contradictory","",""
"","","","","","sentence","37717","html-keyboard-response","108","186733","0.0-6.0-1.18","90","1","2022-11-17 12:27:10","fd252370c17a9971d68c1d4354a03c2e","","Mozilla/5.0 (Windows NT 6.3; Win64; x64) AppleWebKit/537.36 (KHTML, like Gecko) Chrome/107.0.0.0 Safari/537.36","WebKit","Chrome","107.0.0.0","Windows","6.3","1774"," ","","A bowling ball dropped and touched glasses","1","Heavy_Contradictory","",""
"","","","","","fixation","37717","html-keyboard-response","109","187240","0.0-6.0-2.18","90","1","2022-11-17 12:27:10","fd252370c17a9971d68c1d4354a03c2e","","Mozilla/5.0 (Windows NT 6.3; Win64; x64) AppleWebKit/537.36 (KHTML, like Gecko) Chrome/107.0.0.0 Safari/537.36","WebKit","Chrome","107.0.0.0","Windows","6.3","null","null","","<p style=""font-size: 48px;"">+</p>","1","Heavy_Contradictory","",""
"","","","","","picture","37717","image-keyboard-response","110","187958","0.0-6.0-3.18","90","1","2022-11-17 12:27:10","fd252370c17a9971d68c1d4354a03c2e","","Mozilla/5.0 (Windows NT 6.3; Win64; x64) AppleWebKit/537.36 (KHTML, like Gecko) Chrome/107.0.0.0 Safari/537.36","WebKit","Chrome","107.0.0.0","Windows","6.3","711","s","","glassesS.jpg","1","Heavy_Contradictory","true",""
"","","","","","fixation","37717","html-keyboard-response","111","188968","0.0-6.0-0.19","90","1","2022-11-17 12:27:10","fd252370c17a9971d68c1d4354a03c2e","","Mozilla/5.0 (Windows NT 6.3; Win64; x64) AppleWebKit/537.36 (KHTML, like Gecko) Chrome/107.0.0.0 Safari/537.36","WebKit","Chrome","107.0.0.0","Windows","6.3","null","null","","<p style=""font-size: 48px;"">+</p>","1","Heavy_Contradictory","",""
"","","","","","sentence","37717","html-keyboard-response","112","192300","0.0-6.0-1.19","90","1","2022-11-17 12:27:10","fd252370c17a9971d68c1d4354a03c2e","","Mozilla/5.0 (Windows NT 6.3; Win64; x64) AppleWebKit/537.36 (KHTML, like Gecko) Chrome/107.0.0.0 Safari/537.36","WebKit","Chrome","107.0.0.0","Windows","6.3","3325"," ","","A bowling ball dropped and touched a banana","1","Heavy_Contradictory","",""
"","","","","","fixation","37717","html-keyboard-response","113","192809","0.0-6.0-2.19","90","1","2022-11-17 12:27:10","fd252370c17a9971d68c1d4354a03c2e","","Mozilla/5.0 (Windows NT 6.3; Win64; x64) AppleWebKit/537.36 (KHTML, like Gecko) Chrome/107.0.0.0 Safari/537.36","WebKit","Chrome","107.0.0.0","Windows","6.3","null","null","","<p style=""font-size: 48px;"">+</p>","1","Heavy_Contradictory","",""
"","","","","","picture","37717","image-keyboard-response","114","193437","0.0-6.0-3.19","90","1","2022-11-17 12:27:10","fd252370c17a9971d68c1d4354a03c2e","","Mozilla/5.0 (Windows NT 6.3; Win64; x64) AppleWebKit/537.36 (KHTML, like Gecko) Chrome/107.0.0.0 Safari/537.36","WebKit","Chrome","107.0.0.0","Windows","6.3","620","s","","bananaS.jpg","1","Heavy_Contradictory","true",""
"","","","","","fixation","37717","html-keyboard-response","115","194449","0.0-6.0-0.20","90","1","2022-11-17 12:27:10","fd252370c17a9971d68c1d4354a03c2e","","Mozilla/5.0 (Windows NT 6.3; Win64; x64) AppleWebKit/537.36 (KHTML, like Gecko) Chrome/107.0.0.0 Safari/537.36","WebKit","Chrome","107.0.0.0","Windows","6.3","null","null","","<p style=""font-size: 48px;"">+</p>","1","Filler","",""
"","","","","","sentence","37717","html-keyboard-response","116","195602","0.0-6.0-1.20","90","1","2022-11-17 12:27:10","fd252370c17a9971d68c1d4354a03c2e","","Mozilla/5.0 (Windows NT 6.3; Win64; x64) AppleWebKit/537.36 (KHTML, like Gecko) Chrome/107.0.0.0 Safari/537.36","WebKit","Chrome","107.0.0.0","Windows","6.3","1147"," ","","A police officer is talking on the phone","1","Filler","",""
"","","","","","fixation","37717","html-keyboard-response","117","196112","0.0-6.0-2.20","90","1","2022-11-17 12:27:10","fd252370c17a9971d68c1d4354a03c2e","","Mozilla/5.0 (Windows NT 6.3; Win64; x64) AppleWebKit/537.36 (KHTML, like Gecko) Chrome/107.0.0.0 Safari/537.36","WebKit","Chrome","107.0.0.0","Windows","6.3","null","null","","<p style=""font-size: 48px;"">+</p>","1","Filler","",""
"","","","","","picture","37717","image-keyboard-response","118","196843","0.0-6.0-3.20","90","1","2022-11-17 12:27:10","fd252370c17a9971d68c1d4354a03c2e","","Mozilla/5.0 (Windows NT 6.3; Win64; x64) AppleWebKit/537.36 (KHTML, like Gecko) Chrome/107.0.0.0 Safari/537.36","WebKit","Chrome","107.0.0.0","Windows","6.3","724","n","","tissuebox.jpg","1","Filler","true",""
"","","","","","fixation","37717","html-keyboard-response","119","197857","0.0-6.0-0.21","90","1","2022-11-17 12:27:10","fd252370c17a9971d68c1d4354a03c2e","","Mozilla/5.0 (Windows NT 6.3; Win64; x64) AppleWebKit/537.36 (KHTML, like Gecko) Chrome/107.0.0.0 Safari/537.36","WebKit","Chrome","107.0.0.0","Windows","6.3","null","null","","<p style=""font-size: 48px;"">+</p>","1","Light_Matched","",""
"","","","","","sentence","37717","html-keyboard-response","120","200000","0.0-6.0-1.21","90","1","2022-11-17 12:27:10","fd252370c17a9971d68c1d4354a03c2e","","Mozilla/5.0 (Windows NT 6.3; Win64; x64) AppleWebKit/537.36 (KHTML, like Gecko) Chrome/107.0.0.0 Safari/537.36","WebKit","Chrome","107.0.0.0","Windows","6.3","2137"," ","","A balloon dropped and touched a donut","1","Light_Matched","",""
"","","","","","fixation","37717","html-keyboard-response","121","200512","0.0-6.0-2.21","90","1","2022-11-17 12:27:10","fd252370c17a9971d68c1d4354a03c2e","","Mozilla/5.0 (Windows NT 6.3; Win64; x64) AppleWebKit/537.36 (KHTML, like Gecko) Chrome/107.0.0.0 Safari/537.36","WebKit","Chrome","107.0.0.0","Windows","6.3","null","null","","<p style=""font-size: 48px;"">+</p>","1","Light_Matched","",""
"","","","","","picture","37717","image-keyboard-response","122","201171","0.0-6.0-3.21","90","1","2022-11-17 12:27:10","fd252370c17a9971d68c1d4354a03c2e","","Mozilla/5.0 (Windows NT 6.3; Win64; x64) AppleWebKit/537.36 (KHTML, like Gecko) Chrome/107.0.0.0 Safari/537.36","WebKit","Chrome","107.0.0.0","Windows","6.3","649","s","","donutS.jpg","1","Light_Matched","true",""
"","","","","","fixation","37717","html-keyboard-response","123","202184","0.0-6.0-0.22","90","1","2022-11-17 12:27:10","fd252370c17a9971d68c1d4354a03c2e","","Mozilla/5.0 (Windows NT 6.3; Win64; x64) AppleWebKit/537.36 (KHTML, like Gecko) Chrome/107.0.0.0 Safari/537.36","WebKit","Chrome","107.0.0.0","Windows","6.3","null","null","","<p style=""font-size: 48px;"">+</p>","1","Heavy_Contradictory","",""
"","","","","","sentence","37717","html-keyboard-response","124","203643","0.0-6.0-1.22","90","1","2022-11-17 12:27:10","fd252370c17a9971d68c1d4354a03c2e","","Mozilla/5.0 (Windows NT 6.3; Win64; x64) AppleWebKit/537.36 (KHTML, like Gecko) Chrome/107.0.0.0 Safari/537.36","WebKit","Chrome","107.0.0.0","Windows","6.3","1452"," ","","A bowling ball dropped and touched an egg flan","1","Heavy_Contradictory","",""
"","","","","","fixation","37717","html-keyboard-response","125","204153","0.0-6.0-2.22","90","1","2022-11-17 12:27:10","fd252370c17a9971d68c1d4354a03c2e","","Mozilla/5.0 (Windows NT 6.3; Win64; x64) AppleWebKit/537.36 (KHTML, like Gecko) Chrome/107.0.0.0 Safari/537.36","WebKit","Chrome","107.0.0.0","Windows","6.3","null","null","","<p style=""font-size: 48px;"">+</p>","1","Heavy_Contradictory","",""
"","","","","","picture","37717","image-keyboard-response","126","206353","0.0-6.0-3.22","90","1","2022-11-17 12:27:10","fd252370c17a9971d68c1d4354a03c2e","","Mozilla/5.0 (Windows NT 6.3; Win64; x64) AppleWebKit/537.36 (KHTML, like Gecko) Chrome/107.0.0.0 Safari/537.36","WebKit","Chrome","107.0.0.0","Windows","6.3","2191","s","","eggflanS.jpg","1","Heavy_Contradictory","true",""
"","","","","","fixation","37717","html-keyboard-response","127","207368","0.0-6.0-0.23","90","1","2022-11-17 12:27:10","fd252370c17a9971d68c1d4354a03c2e","","Mozilla/5.0 (Windows NT 6.3; Win64; x64) AppleWebKit/537.36 (KHTML, like Gecko) Chrome/107.0.0.0 Safari/537.36","WebKit","Chrome","107.0.0.0","Windows","6.3","null","null","","<p style=""font-size: 48px;"">+</p>","1","Filler","",""
"","","","","","sentence","37717","html-keyboard-response","128","209669","0.0-6.0-1.23","90","1","2022-11-17 12:27:10","fd252370c17a9971d68c1d4354a03c2e","","Mozilla/5.0 (Windows NT 6.3; Win64; x64) AppleWebKit/537.36 (KHTML, like Gecko) Chrome/107.0.0.0 Safari/537.36","WebKit","Chrome","107.0.0.0","Windows","6.3","2294"," ","","A horse is chewing hay","1","Filler","",""
"","","","","","fixation","37717","html-keyboard-response","129","210177","0.0-6.0-2.23","90","1","2022-11-17 12:27:10","fd252370c17a9971d68c1d4354a03c2e","","Mozilla/5.0 (Windows NT 6.3; Win64; x64) AppleWebKit/537.36 (KHTML, like Gecko) Chrome/107.0.0.0 Safari/537.36","WebKit","Chrome","107.0.0.0","Windows","6.3","null","null","","<p style=""font-size: 48px;"">+</p>","1","Filler","",""
"","","","","","picture","37717","image-keyboard-response","130","210901","0.0-6.0-3.23","90","1","2022-11-17 12:27:10","fd252370c17a9971d68c1d4354a03c2e","","Mozilla/5.0 (Windows NT 6.3; Win64; x64) AppleWebKit/537.36 (KHTML, like Gecko) Chrome/107.0.0.0 Safari/537.36","WebKit","Chrome","107.0.0.0","Windows","6.3","715","n","","purse.jpg","1","Filler","true",""
"","","","","","fixation","37717","html-keyboard-response","131","211913","0.0-6.0-0.24","90","1","2022-11-17 12:27:10","fd252370c17a9971d68c1d4354a03c2e","","Mozilla/5.0 (Windows NT 6.3; Win64; x64) AppleWebKit/537.36 (KHTML, like Gecko) Chrome/107.0.0.0 Safari/537.36","WebKit","Chrome","107.0.0.0","Windows","6.3","null","null","","<p style=""font-size: 48px;"">+</p>","1","Filler","",""
"","","","","","sentence","37717","html-keyboard-response","132","212847","0.0-6.0-1.24","90","1","2022-11-17 12:27:10","fd252370c17a9971d68c1d4354a03c2e","","Mozilla/5.0 (Windows NT 6.3; Win64; x64) AppleWebKit/537.36 (KHTML, like Gecko) Chrome/107.0.0.0 Safari/537.36","WebKit","Chrome","107.0.0.0","Windows","6.3","926"," ","","A musician is playing a guitar","1","Filler","",""
"","","","","","fixation","37717","html-keyboard-response","133","213360","0.0-6.0-2.24","90","1","2022-11-17 12:27:10","fd252370c17a9971d68c1d4354a03c2e","","Mozilla/5.0 (Windows NT 6.3; Win64; x64) AppleWebKit/537.36 (KHTML, like Gecko) Chrome/107.0.0.0 Safari/537.36","WebKit","Chrome","107.0.0.0","Windows","6.3","null","null","","<p style=""font-size: 48px;"">+</p>","1","Filler","",""
"","","","","","picture","37717","image-keyboard-response","134","214079","0.0-6.0-3.24","90","1","2022-11-17 12:27:10","fd252370c17a9971d68c1d4354a03c2e","","Mozilla/5.0 (Windows NT 6.3; Win64; x64) AppleWebKit/537.36 (KHTML, like Gecko) Chrome/107.0.0.0 Safari/537.36","WebKit","Chrome","107.0.0.0","Windows","6.3","710","s","","guitar.jpg","1","Filler","true",""
"","","","","","fixation","37717","html-keyboard-response","135","215088","0.0-6.0-0.25","90","1","2022-11-17 12:27:10","fd252370c17a9971d68c1d4354a03c2e","","Mozilla/5.0 (Windows NT 6.3; Win64; x64) AppleWebKit/537.36 (KHTML, like Gecko) Chrome/107.0.0.0 Safari/537.36","WebKit","Chrome","107.0.0.0","Windows","6.3","null","null","","<p style=""font-size: 48px;"">+</p>","1","Filler","",""
"","","","","","sentence","37717","html-keyboard-response","136","216389","0.0-6.0-1.25","90","1","2022-11-17 12:27:10","fd252370c17a9971d68c1d4354a03c2e","","Mozilla/5.0 (Windows NT 6.3; Win64; x64) AppleWebKit/537.36 (KHTML, like Gecko) Chrome/107.0.0.0 Safari/537.36","WebKit","Chrome","107.0.0.0","Windows","6.3","1293"," ","","A cushion was placed on the magazine","1","Filler","",""
"","","","","","fixation","37717","html-keyboard-response","137","216904","0.0-6.0-2.25","90","1","2022-11-17 12:27:10","fd252370c17a9971d68c1d4354a03c2e","","Mozilla/5.0 (Windows NT 6.3; Win64; x64) AppleWebKit/537.36 (KHTML, like Gecko) Chrome/107.0.0.0 Safari/537.36","WebKit","Chrome","107.0.0.0","Windows","6.3","null","null","","<p style=""font-size: 48px;"">+</p>","1","Filler","",""
"","","","","","picture","37717","image-keyboard-response","138","218106","0.0-6.0-3.25","90","1","2022-11-17 12:27:10","fd252370c17a9971d68c1d4354a03c2e","","Mozilla/5.0 (Windows NT 6.3; Win64; x64) AppleWebKit/537.36 (KHTML, like Gecko) Chrome/107.0.0.0 Safari/537.36","WebKit","Chrome","107.0.0.0","Windows","6.3","1194","n","","box.jpg","1","Filler","true",""
"","","","","","fixation","37717","html-keyboard-response","139","219120","0.0-6.0-0.26","90","1","2022-11-17 12:27:10","fd252370c17a9971d68c1d4354a03c2e","","Mozilla/5.0 (Windows NT 6.3; Win64; x64) AppleWebKit/537.36 (KHTML, like Gecko) Chrome/107.0.0.0 Safari/537.36","WebKit","Chrome","107.0.0.0","Windows","6.3","null","null","","<p style=""font-size: 48px;"">+</p>","1","Filler","",""
"","","","","","sentence","37717","html-keyboard-response","140","220046","0.0-6.0-1.26","90","1","2022-11-17 12:27:10","fd252370c17a9971d68c1d4354a03c2e","","Mozilla/5.0 (Windows NT 6.3; Win64; x64) AppleWebKit/537.36 (KHTML, like Gecko) Chrome/107.0.0.0 Safari/537.36","WebKit","Chrome","107.0.0.0","Windows","6.3","918"," ","","A student is writing on a board","1","Filler","",""
"","","","","","fixation","37717","html-keyboard-response","141","220561","0.0-6.0-2.26","90","1","2022-11-17 12:27:10","fd252370c17a9971d68c1d4354a03c2e","","Mozilla/5.0 (Windows NT 6.3; Win64; x64) AppleWebKit/537.36 (KHTML, like Gecko) Chrome/107.0.0.0 Safari/537.36","WebKit","Chrome","107.0.0.0","Windows","6.3","null","null","","<p style=""font-size: 48px;"">+</p>","1","Filler","",""
"","","","","","picture","37717","image-keyboard-response","142","221172","0.0-6.0-3.26","90","1","2022-11-17 12:27:10","fd252370c17a9971d68c1d4354a03c2e","","Mozilla/5.0 (Windows NT 6.3; Win64; x64) AppleWebKit/537.36 (KHTML, like Gecko) Chrome/107.0.0.0 Safari/537.36","WebKit","Chrome","107.0.0.0","Windows","6.3","601","n","","owl.jpg","1","Filler","true",""
"","","","","","fixation","37717","html-keyboard-response","143","222183","0.0-6.0-0.27","90","1","2022-11-17 12:27:10","fd252370c17a9971d68c1d4354a03c2e","","Mozilla/5.0 (Windows NT 6.3; Win64; x64) AppleWebKit/537.36 (KHTML, like Gecko) Chrome/107.0.0.0 Safari/537.36","WebKit","Chrome","107.0.0.0","Windows","6.3","null","null","","<p style=""font-size: 48px;"">+</p>","1","Filler","",""
"","","","","","sentence","37717","html-keyboard-response","144","223407","0.0-6.0-1.27","90","1","2022-11-17 12:27:10","fd252370c17a9971d68c1d4354a03c2e","","Mozilla/5.0 (Windows NT 6.3; Win64; x64) AppleWebKit/537.36 (KHTML, like Gecko) Chrome/107.0.0.0 Safari/537.36","WebKit","Chrome","107.0.0.0","Windows","6.3","1217"," ","","A woman is taking money out of a wallet","1","Filler","",""
"","","","","","fixation","37717","html-keyboard-response","145","223921","0.0-6.0-2.27","90","1","2022-11-17 12:27:10","fd252370c17a9971d68c1d4354a03c2e","","Mozilla/5.0 (Windows NT 6.3; Win64; x64) AppleWebKit/537.36 (KHTML, like Gecko) Chrome/107.0.0.0 Safari/537.36","WebKit","Chrome","107.0.0.0","Windows","6.3","null","null","","<p style=""font-size: 48px;"">+</p>","1","Filler","",""
"","","","","","picture","37717","image-keyboard-response","146","224634","0.0-6.0-3.27","90","1","2022-11-17 12:27:10","fd252370c17a9971d68c1d4354a03c2e","","Mozilla/5.0 (Windows NT 6.3; Win64; x64) AppleWebKit/537.36 (KHTML, like Gecko) Chrome/107.0.0.0 Safari/537.36","WebKit","Chrome","107.0.0.0","Windows","6.3","706","n","","coconut.jpg","1","Filler","true",""
"","","","","","fixation","37717","html-keyboard-response","147","225648","0.0-6.0-0.28","90","1","2022-11-17 12:27:10","fd252370c17a9971d68c1d4354a03c2e","","Mozilla/5.0 (Windows NT 6.3; Win64; x64) AppleWebKit/537.36 (KHTML, like Gecko) Chrome/107.0.0.0 Safari/537.36","WebKit","Chrome","107.0.0.0","Windows","6.3","null","null","","<p style=""font-size: 48px;"">+</p>","1","Filler","",""
"","","","","","sentence","37717","html-keyboard-response","148","226655","0.0-6.0-1.28","90","1","2022-11-17 12:27:10","fd252370c17a9971d68c1d4354a03c2e","","Mozilla/5.0 (Windows NT 6.3; Win64; x64) AppleWebKit/537.36 (KHTML, like Gecko) Chrome/107.0.0.0 Safari/537.36","WebKit","Chrome","107.0.0.0","Windows","6.3","1000"," ","","A giraffe is playing with a zebra","1","Filler","",""
"","","","","","fixation","37717","html-keyboard-response","149","227169","0.0-6.0-2.28","90","1","2022-11-17 12:27:10","fd252370c17a9971d68c1d4354a03c2e","","Mozilla/5.0 (Windows NT 6.3; Win64; x64) AppleWebKit/537.36 (KHTML, like Gecko) Chrome/107.0.0.0 Safari/537.36","WebKit","Chrome","107.0.0.0","Windows","6.3","null","null","","<p style=""font-size: 48px;"">+</p>","1","Filler","",""
"","","","","","picture","37717","image-keyboard-response","150","227836","0.0-6.0-3.28","90","1","2022-11-17 12:27:10","fd252370c17a9971d68c1d4354a03c2e","","Mozilla/5.0 (Windows NT 6.3; Win64; x64) AppleWebKit/537.36 (KHTML, like Gecko) Chrome/107.0.0.0 Safari/537.36","WebKit","Chrome","107.0.0.0","Windows","6.3","658","n","","wallet.jpg","1","Filler","true",""
"","","","","","fixation","37717","html-keyboard-response","151","228847","0.0-6.0-0.29","90","1","2022-11-17 12:27:10","fd252370c17a9971d68c1d4354a03c2e","","Mozilla/5.0 (Windows NT 6.3; Win64; x64) AppleWebKit/537.36 (KHTML, like Gecko) Chrome/107.0.0.0 Safari/537.36","WebKit","Chrome","107.0.0.0","Windows","6.3","null","null","","<p style=""font-size: 48px;"">+</p>","1","Heavy_Matched","",""
"","","","","","sentence","37717","html-keyboard-response","152","231059","0.0-6.0-1.29","90","1","2022-11-17 12:27:10","fd252370c17a9971d68c1d4354a03c2e","","Mozilla/5.0 (Windows NT 6.3; Win64; x64) AppleWebKit/537.36 (KHTML, like Gecko) Chrome/107.0.0.0 Safari/537.36","WebKit","Chrome","107.0.0.0","Windows","6.3","2202"," ","","A bowling ball dropped and smashed a piece of cake","1","Heavy_Matched","",""
"","","","","","fixation","37717","html-keyboard-response","153","231576","0.0-6.0-2.29","90","1","2022-11-17 12:27:10","fd252370c17a9971d68c1d4354a03c2e","","Mozilla/5.0 (Windows NT 6.3; Win64; x64) AppleWebKit/537.36 (KHTML, like Gecko) Chrome/107.0.0.0 Safari/537.36","WebKit","Chrome","107.0.0.0","Windows","6.3","null","null","","<p style=""font-size: 48px;"">+</p>","1","Heavy_Matched","",""
"","","","","","picture","37717","image-keyboard-response","154","232479","0.0-6.0-3.29","90","1","2022-11-17 12:27:10","fd252370c17a9971d68c1d4354a03c2e","","Mozilla/5.0 (Windows NT 6.3; Win64; x64) AppleWebKit/537.36 (KHTML, like Gecko) Chrome/107.0.0.0 Safari/537.36","WebKit","Chrome","107.0.0.0","Windows","6.3","893","s","","cakeS.jpg","1","Heavy_Matched","true",""
"","","","","","fixation","37717","html-keyboard-response","155","233496","0.0-6.0-0.30","90","1","2022-11-17 12:27:10","fd252370c17a9971d68c1d4354a03c2e","","Mozilla/5.0 (Windows NT 6.3; Win64; x64) AppleWebKit/537.36 (KHTML, like Gecko) Chrome/107.0.0.0 Safari/537.36","WebKit","Chrome","107.0.0.0","Windows","6.3","null","null","","<p style=""font-size: 48px;"">+</p>","1","Light_Matched","",""
"","","","","","sentence","37717","html-keyboard-response","156","234614","0.0-6.0-1.30","90","1","2022-11-17 12:27:10","fd252370c17a9971d68c1d4354a03c2e","","Mozilla/5.0 (Windows NT 6.3; Win64; x64) AppleWebKit/537.36 (KHTML, like Gecko) Chrome/107.0.0.0 Safari/537.36","WebKit","Chrome","107.0.0.0","Windows","6.3","1109"," ","","A balloon dropped and touched an iPhone","1","Light_Matched","",""
"","","","","","fixation","37717","html-keyboard-response","157","235128","0.0-6.0-2.30","90","1","2022-11-17 12:27:10","fd252370c17a9971d68c1d4354a03c2e","","Mozilla/5.0 (Windows NT 6.3; Win64; x64) AppleWebKit/537.36 (KHTML, like Gecko) Chrome/107.0.0.0 Safari/537.36","WebKit","Chrome","107.0.0.0","Windows","6.3","null","null","","<p style=""font-size: 48px;"">+</p>","1","Light_Matched","",""
"","","","","","picture","37717","image-keyboard-response","158","235815","0.0-6.0-3.30","90","1","2022-11-17 12:27:10","fd252370c17a9971d68c1d4354a03c2e","","Mozilla/5.0 (Windows NT 6.3; Win64; x64) AppleWebKit/537.36 (KHTML, like Gecko) Chrome/107.0.0.0 Safari/537.36","WebKit","Chrome","107.0.0.0","Windows","6.3","677","s","","iphoneS.png","1","Light_Matched","true",""
"","","","","","fixation","37717","html-keyboard-response","159","236825","0.0-6.0-0.31","90","1","2022-11-17 12:27:10","fd252370c17a9971d68c1d4354a03c2e","","Mozilla/5.0 (Windows NT 6.3; Win64; x64) AppleWebKit/537.36 (KHTML, like Gecko) Chrome/107.0.0.0 Safari/537.36","WebKit","Chrome","107.0.0.0","Windows","6.3","null","null","","<p style=""font-size: 48px;"">+</p>","1","Filler","",""
"","","","","","sentence","37717","html-keyboard-response","160","237976","0.0-6.0-1.31","90","1","2022-11-17 12:27:10","fd252370c17a9971d68c1d4354a03c2e","","Mozilla/5.0 (Windows NT 6.3; Win64; x64) AppleWebKit/537.36 (KHTML, like Gecko) Chrome/107.0.0.0 Safari/537.36","WebKit","Chrome","107.0.0.0","Windows","6.3","1143"," ","","A keyboard was placed on the bed","1","Filler","",""
"","","","","","fixation","37717","html-keyboard-response","161","238488","0.0-6.0-2.31","90","1","2022-11-17 12:27:10","fd252370c17a9971d68c1d4354a03c2e","","Mozilla/5.0 (Windows NT 6.3; Win64; x64) AppleWebKit/537.36 (KHTML, like Gecko) Chrome/107.0.0.0 Safari/537.36","WebKit","Chrome","107.0.0.0","Windows","6.3","null","null","","<p style=""font-size: 48px;"">+</p>","1","Filler","",""
"","","","","","picture","37717","image-keyboard-response","162","239408","0.0-6.0-3.31","90","1","2022-11-17 12:27:10","fd252370c17a9971d68c1d4354a03c2e","","Mozilla/5.0 (Windows NT 6.3; Win64; x64) AppleWebKit/537.36 (KHTML, like Gecko) Chrome/107.0.0.0 Safari/537.36","WebKit","Chrome","107.0.0.0","Windows","6.3","911","n","","bottlecap.jpg","1","Filler","true",""
"","","","","","fixation","37717","html-keyboard-response","163","240424","0.0-6.0-0.32","90","1","2022-11-17 12:27:10","fd252370c17a9971d68c1d4354a03c2e","","Mozilla/5.0 (Windows NT 6.3; Win64; x64) AppleWebKit/537.36 (KHTML, like Gecko) Chrome/107.0.0.0 Safari/537.36","WebKit","Chrome","107.0.0.0","Windows","6.3","null","null","","<p style=""font-size: 48px;"">+</p>","1","Filler","",""
"","","","","","sentence","37717","html-keyboard-response","164","241693","0.0-6.0-1.32","90","1","2022-11-17 12:27:10","fd252370c17a9971d68c1d4354a03c2e","","Mozilla/5.0 (Windows NT 6.3; Win64; x64) AppleWebKit/537.36 (KHTML, like Gecko) Chrome/107.0.0.0 Safari/537.36","WebKit","Chrome","107.0.0.0","Windows","6.3","1262"," ","","A man is playing with a cat","1","Filler","",""
"","","","","","fixation","37717","html-keyboard-response","165","242200","0.0-6.0-2.32","90","1","2022-11-17 12:27:10","fd252370c17a9971d68c1d4354a03c2e","","Mozilla/5.0 (Windows NT 6.3; Win64; x64) AppleWebKit/537.36 (KHTML, like Gecko) Chrome/107.0.0.0 Safari/537.36","WebKit","Chrome","107.0.0.0","Windows","6.3","null","null","","<p style=""font-size: 48px;"">+</p>","1","Filler","",""
"","","","","","picture","37717","image-keyboard-response","166","243281","0.0-6.0-3.32","90","1","2022-11-17 12:27:10","fd252370c17a9971d68c1d4354a03c2e","","Mozilla/5.0 (Windows NT 6.3; Win64; x64) AppleWebKit/537.36 (KHTML, like Gecko) Chrome/107.0.0.0 Safari/537.36","WebKit","Chrome","107.0.0.0","Windows","6.3","1068","n","","ceramicplate.jpg","1","Filler","true",""
"","","","","","fixation","37717","html-keyboard-response","167","244296","0.0-6.0-0.33","90","1","2022-11-17 12:27:10","fd252370c17a9971d68c1d4354a03c2e","","Mozilla/5.0 (Windows NT 6.3; Win64; x64) AppleWebKit/537.36 (KHTML, like Gecko) Chrome/107.0.0.0 Safari/537.36","WebKit","Chrome","107.0.0.0","Windows","6.3","null","null","","<p style=""font-size: 48px;"">+</p>","1","Filler","",""
"","","","","","sentence","37717","html-keyboard-response","168","245263","0.0-6.0-1.33","90","1","2022-11-17 12:27:10","fd252370c17a9971d68c1d4354a03c2e","","Mozilla/5.0 (Windows NT 6.3; Win64; x64) AppleWebKit/537.36 (KHTML, like Gecko) Chrome/107.0.0.0 Safari/537.36","WebKit","Chrome","107.0.0.0","Windows","6.3","960"," ","","A towel was placed on the TV","1","Filler","",""
"","","","","","fixation","37717","html-keyboard-response","169","245776","0.0-6.0-2.33","90","1","2022-11-17 12:27:10","fd252370c17a9971d68c1d4354a03c2e","","Mozilla/5.0 (Windows NT 6.3; Win64; x64) AppleWebKit/537.36 (KHTML, like Gecko) Chrome/107.0.0.0 Safari/537.36","WebKit","Chrome","107.0.0.0","Windows","6.3","null","null","","<p style=""font-size: 48px;"">+</p>","1","Filler","",""
"","","","","","picture","37717","image-keyboard-response","170","246492","0.0-6.0-3.33","90","1","2022-11-17 12:27:10","fd252370c17a9971d68c1d4354a03c2e","","Mozilla/5.0 (Windows NT 6.3; Win64; x64) AppleWebKit/537.36 (KHTML, like Gecko) Chrome/107.0.0.0 Safari/537.36","WebKit","Chrome","107.0.0.0","Windows","6.3","707","n","","pencil.jpg","1","Filler","true",""
"","","","","","fixation","37717","html-keyboard-response","171","247503","0.0-6.0-0.34","90","1","2022-11-17 12:27:10","fd252370c17a9971d68c1d4354a03c2e","","Mozilla/5.0 (Windows NT 6.3; Win64; x64) AppleWebKit/537.36 (KHTML, like Gecko) Chrome/107.0.0.0 Safari/537.36","WebKit","Chrome","107.0.0.0","Windows","6.3","null","null","","<p style=""font-size: 48px;"">+</p>","1","Filler","",""
"","","","","","sentence","37717","html-keyboard-response","172","248310","0.0-6.0-1.34","90","1","2022-11-17 12:27:10","fd252370c17a9971d68c1d4354a03c2e","","Mozilla/5.0 (Windows NT 6.3; Win64; x64) AppleWebKit/537.36 (KHTML, like Gecko) Chrome/107.0.0.0 Safari/537.36","WebKit","Chrome","107.0.0.0","Windows","6.3","799"," ","","A man is shaving his beard","1","Filler","",""
"","","","","","fixation","37717","html-keyboard-response","173","248824","0.0-6.0-2.34","90","1","2022-11-17 12:27:10","fd252370c17a9971d68c1d4354a03c2e","","Mozilla/5.0 (Windows NT 6.3; Win64; x64) AppleWebKit/537.36 (KHTML, like Gecko) Chrome/107.0.0.0 Safari/537.36","WebKit","Chrome","107.0.0.0","Windows","6.3","null","null","","<p style=""font-size: 48px;"">+</p>","1","Filler","",""
"","","","","","picture","37717","image-keyboard-response","174","249731","0.0-6.0-3.34","90","1","2022-11-17 12:27:10","fd252370c17a9971d68c1d4354a03c2e","","Mozilla/5.0 (Windows NT 6.3; Win64; x64) AppleWebKit/537.36 (KHTML, like Gecko) Chrome/107.0.0.0 Safari/537.36","WebKit","Chrome","107.0.0.0","Windows","6.3","899","n","","clock.jpg","1","Filler","true",""
"","","","","","fixation","37717","html-keyboard-response","175","250744","0.0-6.0-0.35","90","1","2022-11-17 12:27:10","fd252370c17a9971d68c1d4354a03c2e","","Mozilla/5.0 (Windows NT 6.3; Win64; x64) AppleWebKit/537.36 (KHTML, like Gecko) Chrome/107.0.0.0 Safari/537.36","WebKit","Chrome","107.0.0.0","Windows","6.3","null","null","","<p style=""font-size: 48px;"">+</p>","1","Heavy_Contradictory","",""
"","","","","","sentence","37717","html-keyboard-response","176","252342","0.0-6.0-1.35","90","1","2022-11-17 12:27:10","fd252370c17a9971d68c1d4354a03c2e","","Mozilla/5.0 (Windows NT 6.3; Win64; x64) AppleWebKit/537.36 (KHTML, like Gecko) Chrome/107.0.0.0 Safari/537.36","WebKit","Chrome","107.0.0.0","Windows","6.3","1591"," ","","A bowling ball dropped and touched a chocolate ice-cream","1","Heavy_Contradictory","",""
"","","","","","fixation","37717","html-keyboard-response","177","252856","0.0-6.0-2.35","90","1","2022-11-17 12:27:10","fd252370c17a9971d68c1d4354a03c2e","","Mozilla/5.0 (Windows NT 6.3; Win64; x64) AppleWebKit/537.36 (KHTML, like Gecko) Chrome/107.0.0.0 Safari/537.36","WebKit","Chrome","107.0.0.0","Windows","6.3","null","null","","<p style=""font-size: 48px;"">+</p>","1","Heavy_Contradictory","",""
"","","","","","picture","37717","image-keyboard-response","178","253809","0.0-6.0-3.35","90","1","2022-11-17 12:27:10","fd252370c17a9971d68c1d4354a03c2e","","Mozilla/5.0 (Windows NT 6.3; Win64; x64) AppleWebKit/537.36 (KHTML, like Gecko) Chrome/107.0.0.0 Safari/537.36","WebKit","Chrome","107.0.0.0","Windows","6.3","944","s","","icecreamS.jpg","1","Heavy_Contradictory","true",""
"","","","","","fixation","37717","html-keyboard-response","179","254825","0.0-6.0-0.36","90","1","2022-11-17 12:27:10","fd252370c17a9971d68c1d4354a03c2e","","Mozilla/5.0 (Windows NT 6.3; Win64; x64) AppleWebKit/537.36 (KHTML, like Gecko) Chrome/107.0.0.0 Safari/537.36","WebKit","Chrome","107.0.0.0","Windows","6.3","null","null","","<p style=""font-size: 48px;"">+</p>","1","Heavy_Matched","",""
"","","","","","sentence","37717","html-keyboard-response","180","256646","0.0-6.0-1.36","90","1","2022-11-17 12:27:10","fd252370c17a9971d68c1d4354a03c2e","","Mozilla/5.0 (Windows NT 6.3; Win64; x64) AppleWebKit/537.36 (KHTML, like Gecko) Chrome/107.0.0.0 Safari/537.36","WebKit","Chrome","107.0.0.0","Windows","6.3","1813"," ","","A bowling ball dropped and smashed a TV","1","Heavy_Matched","",""
"","","","","","fixation","37717","html-keyboard-response","181","257160","0.0-6.0-2.36","90","1","2022-11-17 12:27:10","fd252370c17a9971d68c1d4354a03c2e","","Mozilla/5.0 (Windows NT 6.3; Win64; x64) AppleWebKit/537.36 (KHTML, like Gecko) Chrome/107.0.0.0 Safari/537.36","WebKit","Chrome","107.0.0.0","Windows","6.3","null","null","","<p style=""font-size: 48px;"">+</p>","1","Heavy_Matched","",""
"","","","","","picture","37717","image-keyboard-response","182","257967","0.0-6.0-3.36","90","1","2022-11-17 12:27:10","fd252370c17a9971d68c1d4354a03c2e","","Mozilla/5.0 (Windows NT 6.3; Win64; x64) AppleWebKit/537.36 (KHTML, like Gecko) Chrome/107.0.0.0 Safari/537.36","WebKit","Chrome","107.0.0.0","Windows","6.3","799","s","","tvS.jpg","1","Heavy_Matched","true",""
"","","","","","fixation","37717","html-keyboard-response","183","258977","0.0-6.0-0.37","90","1","2022-11-17 12:27:10","fd252370c17a9971d68c1d4354a03c2e","","Mozilla/5.0 (Windows NT 6.3; Win64; x64) AppleWebKit/537.36 (KHTML, like Gecko) Chrome/107.0.0.0 Safari/537.36","WebKit","Chrome","107.0.0.0","Windows","6.3","null","null","","<p style=""font-size: 48px;"">+</p>","1","Light_Contradictory","",""
"","","","","","sentence","37717","html-keyboard-response","184","260192","0.0-6.0-1.37","90","1","2022-11-17 12:27:10","fd252370c17a9971d68c1d4354a03c2e","","Mozilla/5.0 (Windows NT 6.3; Win64; x64) AppleWebKit/537.36 (KHTML, like Gecko) Chrome/107.0.0.0 Safari/537.36","WebKit","Chrome","107.0.0.0","Windows","6.3","1208"," ","","A balloon dropped and smashed a vase","1","Light_Contradictory","",""
"","","","","","fixation","37717","html-keyboard-response","185","260704","0.0-6.0-2.37","90","1","2022-11-17 12:27:10","fd252370c17a9971d68c1d4354a03c2e","","Mozilla/5.0 (Windows NT 6.3; Win64; x64) AppleWebKit/537.36 (KHTML, like Gecko) Chrome/107.0.0.0 Safari/537.36","WebKit","Chrome","107.0.0.0","Windows","6.3","null","null","","<p style=""font-size: 48px;"">+</p>","1","Light_Contradictory","",""
"","","","","","picture","37717","image-keyboard-response","186","261498","0.0-6.0-3.37","90","1","2022-11-17 12:27:10","fd252370c17a9971d68c1d4354a03c2e","","Mozilla/5.0 (Windows NT 6.3; Win64; x64) AppleWebKit/537.36 (KHTML, like Gecko) Chrome/107.0.0.0 Safari/537.36","WebKit","Chrome","107.0.0.0","Windows","6.3","784","s","","vaseS.jpg","1","Light_Contradictory","true",""
"","","","","","fixation","37717","html-keyboard-response","187","262513","0.0-6.0-0.38","90","1","2022-11-17 12:27:10","fd252370c17a9971d68c1d4354a03c2e","","Mozilla/5.0 (Windows NT 6.3; Win64; x64) AppleWebKit/537.36 (KHTML, like Gecko) Chrome/107.0.0.0 Safari/537.36","WebKit","Chrome","107.0.0.0","Windows","6.3","null","null","","<p style=""font-size: 48px;"">+</p>","1","Filler","",""
"","","","","","sentence","37717","html-keyboard-response","188","264179","0.0-6.0-1.38","90","1","2022-11-17 12:27:10","fd252370c17a9971d68c1d4354a03c2e","","Mozilla/5.0 (Windows NT 6.3; Win64; x64) AppleWebKit/537.36 (KHTML, like Gecko) Chrome/107.0.0.0 Safari/537.36","WebKit","Chrome","107.0.0.0","Windows","6.3","1657"," ","","An astronaut is putting on a space suit","1","Filler","",""
"","","","","","fixation","37717","html-keyboard-response","189","264688","0.0-6.0-2.38","90","1","2022-11-17 12:27:10","fd252370c17a9971d68c1d4354a03c2e","","Mozilla/5.0 (Windows NT 6.3; Win64; x64) AppleWebKit/537.36 (KHTML, like Gecko) Chrome/107.0.0.0 Safari/537.36","WebKit","Chrome","107.0.0.0","Windows","6.3","null","null","","<p style=""font-size: 48px;"">+</p>","1","Filler","",""
"","","","","","picture","37717","image-keyboard-response","190","265430","0.0-6.0-3.38","90","1","2022-11-17 12:27:10","fd252370c17a9971d68c1d4354a03c2e","","Mozilla/5.0 (Windows NT 6.3; Win64; x64) AppleWebKit/537.36 (KHTML, like Gecko) Chrome/107.0.0.0 Safari/537.36","WebKit","Chrome","107.0.0.0","Windows","6.3","732","s","","spacesuit.jpg","1","Filler","true",""
"","","","","","fixation","37717","html-keyboard-response","191","266440","0.0-6.0-0.39","90","1","2022-11-17 12:27:10","fd252370c17a9971d68c1d4354a03c2e","","Mozilla/5.0 (Windows NT 6.3; Win64; x64) AppleWebKit/537.36 (KHTML, like Gecko) Chrome/107.0.0.0 Safari/537.36","WebKit","Chrome","107.0.0.0","Windows","6.3","null","null","","<p style=""font-size: 48px;"">+</p>","1","Filler","",""
"","","","","","sentence","37717","html-keyboard-response","192","267607","0.0-6.0-1.39","90","1","2022-11-17 12:27:10","fd252370c17a9971d68c1d4354a03c2e","","Mozilla/5.0 (Windows NT 6.3; Win64; x64) AppleWebKit/537.36 (KHTML, like Gecko) Chrome/107.0.0.0 Safari/537.36","WebKit","Chrome","107.0.0.0","Windows","6.3","1158"," ","","A doctor is taking a stethoscope","1","Filler","",""
"","","","","","fixation","37717","html-keyboard-response","193","268120","0.0-6.0-2.39","90","1","2022-11-17 12:27:10","fd252370c17a9971d68c1d4354a03c2e","","Mozilla/5.0 (Windows NT 6.3; Win64; x64) AppleWebKit/537.36 (KHTML, like Gecko) Chrome/107.0.0.0 Safari/537.36","WebKit","Chrome","107.0.0.0","Windows","6.3","null","null","","<p style=""font-size: 48px;"">+</p>","1","Filler","",""
"","","","","","picture","37717","image-keyboard-response","194","268934","0.0-6.0-3.39","90","1","2022-11-17 12:27:10","fd252370c17a9971d68c1d4354a03c2e","","Mozilla/5.0 (Windows NT 6.3; Win64; x64) AppleWebKit/537.36 (KHTML, like Gecko) Chrome/107.0.0.0 Safari/537.36","WebKit","Chrome","107.0.0.0","Windows","6.3","804","n","","matchesbox.jpg","1","Filler","true",""
"","","","","","fixation","37717","html-keyboard-response","195","269944","0.0-6.0-0.40","90","1","2022-11-17 12:27:10","fd252370c17a9971d68c1d4354a03c2e","","Mozilla/5.0 (Windows NT 6.3; Win64; x64) AppleWebKit/537.36 (KHTML, like Gecko) Chrome/107.0.0.0 Safari/537.36","WebKit","Chrome","107.0.0.0","Windows","6.3","null","null","","<p style=""font-size: 48px;"">+</p>","1","Light_Contradictory","",""
"","","","","","sentence","37717","html-keyboard-response","196","271235","0.0-6.0-1.40","90","1","2022-11-17 12:27:10","fd252370c17a9971d68c1d4354a03c2e","","Mozilla/5.0 (Windows NT 6.3; Win64; x64) AppleWebKit/537.36 (KHTML, like Gecko) Chrome/107.0.0.0 Safari/537.36","WebKit","Chrome","107.0.0.0","Windows","6.3","1282"," ","","A balloon dropped and smashed a piece of sushi","1","Light_Contradictory","",""
"","","","","","fixation","37717","html-keyboard-response","197","271752","0.0-6.0-2.40","90","1","2022-11-17 12:27:10","fd252370c17a9971d68c1d4354a03c2e","","Mozilla/5.0 (Windows NT 6.3; Win64; x64) AppleWebKit/537.36 (KHTML, like Gecko) Chrome/107.0.0.0 Safari/537.36","WebKit","Chrome","107.0.0.0","Windows","6.3","null","null","","<p style=""font-size: 48px;"">+</p>","1","Light_Contradictory","",""
"","","","","","picture","37717","image-keyboard-response","198","272454","0.0-6.0-3.40","90","1","2022-11-17 12:27:10","fd252370c17a9971d68c1d4354a03c2e","","Mozilla/5.0 (Windows NT 6.3; Win64; x64) AppleWebKit/537.36 (KHTML, like Gecko) Chrome/107.0.0.0 Safari/537.36","WebKit","Chrome","107.0.0.0","Windows","6.3","692","s","","sushiS.jpg","1","Light_Contradictory","true",""
"","","","","","fixation","37717","html-keyboard-response","199","273464","0.0-6.0-0.41","90","1","2022-11-17 12:27:10","fd252370c17a9971d68c1d4354a03c2e","","Mozilla/5.0 (Windows NT 6.3; Win64; x64) AppleWebKit/537.36 (KHTML, like Gecko) Chrome/107.0.0.0 Safari/537.36","WebKit","Chrome","107.0.0.0","Windows","6.3","null","null","","<p style=""font-size: 48px;"">+</p>","1","Filler","",""
"","","","","","sentence","37717","html-keyboard-response","200","274610","0.0-6.0-1.41","90","1","2022-11-17 12:27:10","fd252370c17a9971d68c1d4354a03c2e","","Mozilla/5.0 (Windows NT 6.3; Win64; x64) AppleWebKit/537.36 (KHTML, like Gecko) Chrome/107.0.0.0 Safari/537.36","WebKit","Chrome","107.0.0.0","Windows","6.3","1138"," ","","A parrot is eating an apple","1","Filler","",""
"","","","","","fixation","37717","html-keyboard-response","201","275120","0.0-6.0-2.41","90","1","2022-11-17 12:27:10","fd252370c17a9971d68c1d4354a03c2e","","Mozilla/5.0 (Windows NT 6.3; Win64; x64) AppleWebKit/537.36 (KHTML, like Gecko) Chrome/107.0.0.0 Safari/537.36","WebKit","Chrome","107.0.0.0","Windows","6.3","null","null","","<p style=""font-size: 48px;"">+</p>","1","Filler","",""
"","","","","","picture","37717","image-keyboard-response","202","275747","0.0-6.0-3.41","90","1","2022-11-17 12:27:10","fd252370c17a9971d68c1d4354a03c2e","","Mozilla/5.0 (Windows NT 6.3; Win64; x64) AppleWebKit/537.36 (KHTML, like Gecko) Chrome/107.0.0.0 Safari/537.36","WebKit","Chrome","107.0.0.0","Windows","6.3","618","n","","shirt.jpg","1","Filler","true",""
"","","","","","fixation","37717","html-keyboard-response","203","276761","0.0-6.0-0.42","90","1","2022-11-17 12:27:10","fd252370c17a9971d68c1d4354a03c2e","","Mozilla/5.0 (Windows NT 6.3; Win64; x64) AppleWebKit/537.36 (KHTML, like Gecko) Chrome/107.0.0.0 Safari/537.36","WebKit","Chrome","107.0.0.0","Windows","6.3","null","null","","<p style=""font-size: 48px;"">+</p>","1","Filler","",""
"","","","","","sentence","37717","html-keyboard-response","204","277899","0.0-6.0-1.42","90","1","2022-11-17 12:27:10","fd252370c17a9971d68c1d4354a03c2e","","Mozilla/5.0 (Windows NT 6.3; Win64; x64) AppleWebKit/537.36 (KHTML, like Gecko) Chrome/107.0.0.0 Safari/537.36","WebKit","Chrome","107.0.0.0","Windows","6.3","1129"," ","","A postman is driving a car","1","Filler","",""
"","","","","","fixation","37717","html-keyboard-response","205","278409","0.0-6.0-2.42","90","1","2022-11-17 12:27:10","fd252370c17a9971d68c1d4354a03c2e","","Mozilla/5.0 (Windows NT 6.3; Win64; x64) AppleWebKit/537.36 (KHTML, like Gecko) Chrome/107.0.0.0 Safari/537.36","WebKit","Chrome","107.0.0.0","Windows","6.3","null","null","","<p style=""font-size: 48px;"">+</p>","1","Filler","",""
"","","","","","picture","37717","image-keyboard-response","206","279104","0.0-6.0-3.42","90","1","2022-11-17 12:27:10","fd252370c17a9971d68c1d4354a03c2e","","Mozilla/5.0 (Windows NT 6.3; Win64; x64) AppleWebKit/537.36 (KHTML, like Gecko) Chrome/107.0.0.0 Safari/537.36","WebKit","Chrome","107.0.0.0","Windows","6.3","686","s","","car.jpg","1","Filler","true",""
"","","","","","fixation","37717","html-keyboard-response","207","280120","0.0-6.0-0.43","90","1","2022-11-17 12:27:10","fd252370c17a9971d68c1d4354a03c2e","","Mozilla/5.0 (Windows NT 6.3; Win64; x64) AppleWebKit/537.36 (KHTML, like Gecko) Chrome/107.0.0.0 Safari/537.36","WebKit","Chrome","107.0.0.0","Windows","6.3","null","null","","<p style=""font-size: 48px;"">+</p>","1","Filler","",""
"","","","","","sentence","37717","html-keyboard-response","208","280869","0.0-6.0-1.43","90","1","2022-11-17 12:27:10","fd252370c17a9971d68c1d4354a03c2e","","Mozilla/5.0 (Windows NT 6.3; Win64; x64) AppleWebKit/537.36 (KHTML, like Gecko) Chrome/107.0.0.0 Safari/537.36","WebKit","Chrome","107.0.0.0","Windows","6.3","740"," ","","A puppy is playing with a ball","1","Filler","",""
"","","","","","fixation","37717","html-keyboard-response","209","281385","0.0-6.0-2.43","90","1","2022-11-17 12:27:10","fd252370c17a9971d68c1d4354a03c2e","","Mozilla/5.0 (Windows NT 6.3; Win64; x64) AppleWebKit/537.36 (KHTML, like Gecko) Chrome/107.0.0.0 Safari/537.36","WebKit","Chrome","107.0.0.0","Windows","6.3","null","null","","<p style=""font-size: 48px;"">+</p>","1","Filler","",""
"","","","","","picture","37717","image-keyboard-response","210","282281","0.0-6.0-3.43","90","1","2022-11-17 12:27:10","fd252370c17a9971d68c1d4354a03c2e","","Mozilla/5.0 (Windows NT 6.3; Win64; x64) AppleWebKit/537.36 (KHTML, like Gecko) Chrome/107.0.0.0 Safari/537.36","WebKit","Chrome","107.0.0.0","Windows","6.3","885","s","","tennisball.jpg","1","Filler","true",""
"","","","","","fixation","37717","html-keyboard-response","211","283297","0.0-6.0-0.44","90","1","2022-11-17 12:27:10","fd252370c17a9971d68c1d4354a03c2e","","Mozilla/5.0 (Windows NT 6.3; Win64; x64) AppleWebKit/537.36 (KHTML, like Gecko) Chrome/107.0.0.0 Safari/537.36","WebKit","Chrome","107.0.0.0","Windows","6.3","null","null","","<p style=""font-size: 48px;"">+</p>","1","Light_Contradictory","",""
"","","","","","sentence","37717","html-keyboard-response","212","284237","0.0-6.0-1.44","90","1","2022-11-17 12:27:10","fd252370c17a9971d68c1d4354a03c2e","","Mozilla/5.0 (Windows NT 6.3; Win64; x64) AppleWebKit/537.36 (KHTML, like Gecko) Chrome/107.0.0.0 Safari/537.36","WebKit","Chrome","107.0.0.0","Windows","6.3","933"," ","","A balloon dropped and smashed a tile","1","Light_Contradictory","",""
"","","","","","fixation","37717","html-keyboard-response","213","284752","0.0-6.0-2.44","90","1","2022-11-17 12:27:10","fd252370c17a9971d68c1d4354a03c2e","","Mozilla/5.0 (Windows NT 6.3; Win64; x64) AppleWebKit/537.36 (KHTML, like Gecko) Chrome/107.0.0.0 Safari/537.36","WebKit","Chrome","107.0.0.0","Windows","6.3","null","null","","<p style=""font-size: 48px;"">+</p>","1","Light_Contradictory","",""
"","","","","","picture","37717","image-keyboard-response","214","285369","0.0-6.0-3.44","90","1","2022-11-17 12:27:10","fd252370c17a9971d68c1d4354a03c2e","","Mozilla/5.0 (Windows NT 6.3; Win64; x64) AppleWebKit/537.36 (KHTML, like Gecko) Chrome/107.0.0.0 Safari/537.36","WebKit","Chrome","107.0.0.0","Windows","6.3","607","s","","tileS.jpg","1","Light_Contradictory","true",""
"","","","","","fixation","37717","html-keyboard-response","215","286385","0.0-6.0-0.45","90","1","2022-11-17 12:27:10","fd252370c17a9971d68c1d4354a03c2e","","Mozilla/5.0 (Windows NT 6.3; Win64; x64) AppleWebKit/537.36 (KHTML, like Gecko) Chrome/107.0.0.0 Safari/537.36","WebKit","Chrome","107.0.0.0","Windows","6.3","null","null","","<p style=""font-size: 48px;"">+</p>","1","Filler","",""
"","","","","","sentence","37717","html-keyboard-response","216","287330","0.0-6.0-1.45","90","1","2022-11-17 12:27:10","fd252370c17a9971d68c1d4354a03c2e","","Mozilla/5.0 (Windows NT 6.3; Win64; x64) AppleWebKit/537.36 (KHTML, like Gecko) Chrome/107.0.0.0 Safari/537.36","WebKit","Chrome","107.0.0.0","Windows","6.3","935"," ","","A nurse is taking a syringe","1","Filler","",""
"","","","","","fixation","37717","html-keyboard-response","217","287848","0.0-6.0-2.45","90","1","2022-11-17 12:27:10","fd252370c17a9971d68c1d4354a03c2e","","Mozilla/5.0 (Windows NT 6.3; Win64; x64) AppleWebKit/537.36 (KHTML, like Gecko) Chrome/107.0.0.0 Safari/537.36","WebKit","Chrome","107.0.0.0","Windows","6.3","null","null","","<p style=""font-size: 48px;"">+</p>","1","Filler","",""
"","","","","","picture","37717","image-keyboard-response","218","288593","0.0-6.0-3.45","90","1","2022-11-17 12:27:10","fd252370c17a9971d68c1d4354a03c2e","","Mozilla/5.0 (Windows NT 6.3; Win64; x64) AppleWebKit/537.36 (KHTML, like Gecko) Chrome/107.0.0.0 Safari/537.36","WebKit","Chrome","107.0.0.0","Windows","6.3","735","n","","headphones.jpg","1","Filler","true",""
"","","","","","fixation","37717","html-keyboard-response","219","289608","0.0-6.0-0.46","90","1","2022-11-17 12:27:10","fd252370c17a9971d68c1d4354a03c2e","","Mozilla/5.0 (Windows NT 6.3; Win64; x64) AppleWebKit/537.36 (KHTML, like Gecko) Chrome/107.0.0.0 Safari/537.36","WebKit","Chrome","107.0.0.0","Windows","6.3","null","null","","<p style=""font-size: 48px;"">+</p>","1","Heavy_Matched","",""
"","","","","","sentence","37717","html-keyboard-response","220","290628","0.0-6.0-1.46","90","1","2022-11-17 12:27:10","fd252370c17a9971d68c1d4354a03c2e","","Mozilla/5.0 (Windows NT 6.3; Win64; x64) AppleWebKit/537.36 (KHTML, like Gecko) Chrome/107.0.0.0 Safari/537.36","WebKit","Chrome","107.0.0.0","Windows","6.3","1011"," ","","A bowling ball dropped and smashed an egg","1","Heavy_Matched","",""
"","","","","","fixation","37717","html-keyboard-response","221","291144","0.0-6.0-2.46","90","1","2022-11-17 12:27:10","fd252370c17a9971d68c1d4354a03c2e","","Mozilla/5.0 (Windows NT 6.3; Win64; x64) AppleWebKit/537.36 (KHTML, like Gecko) Chrome/107.0.0.0 Safari/537.36","WebKit","Chrome","107.0.0.0","Windows","6.3","null","null","","<p style=""font-size: 48px;"">+</p>","1","Heavy_Matched","",""
"","","","","","picture","37717","image-keyboard-response","222","291703","0.0-6.0-3.46","90","1","2022-11-17 12:27:10","fd252370c17a9971d68c1d4354a03c2e","","Mozilla/5.0 (Windows NT 6.3; Win64; x64) AppleWebKit/537.36 (KHTML, like Gecko) Chrome/107.0.0.0 Safari/537.36","WebKit","Chrome","107.0.0.0","Windows","6.3","549","s","","eggS.jpg","1","Heavy_Matched","true",""
"","","","","","fixation","37717","html-keyboard-response","223","292720","0.0-6.0-0.47","90","1","2022-11-17 12:27:10","fd252370c17a9971d68c1d4354a03c2e","","Mozilla/5.0 (Windows NT 6.3; Win64; x64) AppleWebKit/537.36 (KHTML, like Gecko) Chrome/107.0.0.0 Safari/537.36","WebKit","Chrome","107.0.0.0","Windows","6.3","null","null","","<p style=""font-size: 48px;"">+</p>","1","Heavy_Matched","",""
"","","","","","sentence","37717","html-keyboard-response","224","294341","0.0-6.0-1.47","90","1","2022-11-17 12:27:10","fd252370c17a9971d68c1d4354a03c2e","","Mozilla/5.0 (Windows NT 6.3; Win64; x64) AppleWebKit/537.36 (KHTML, like Gecko) Chrome/107.0.0.0 Safari/537.36","WebKit","Chrome","107.0.0.0","Windows","6.3","1611"," ","","A bowling ball dropped and smashed a cracker","1","Heavy_Matched","",""
"","","","","","fixation","37717","html-keyboard-response","225","294856","0.0-6.0-2.47","90","1","2022-11-17 12:27:10","fd252370c17a9971d68c1d4354a03c2e","","Mozilla/5.0 (Windows NT 6.3; Win64; x64) AppleWebKit/537.36 (KHTML, like Gecko) Chrome/107.0.0.0 Safari/537.36","WebKit","Chrome","107.0.0.0","Windows","6.3","null","null","","<p style=""font-size: 48px;"">+</p>","1","Heavy_Matched","",""
"","","","","","picture","37717","image-keyboard-response","226","295310","0.0-6.0-3.47","90","1","2022-11-17 12:27:10","fd252370c17a9971d68c1d4354a03c2e","","Mozilla/5.0 (Windows NT 6.3; Win64; x64) AppleWebKit/537.36 (KHTML, like Gecko) Chrome/107.0.0.0 Safari/537.36","WebKit","Chrome","107.0.0.0","Windows","6.3","445","s","","crackerS.jpg","1","Heavy_Matched","true",""
"","","","","","fixation","37717","html-keyboard-response","227","296320","0.0-6.0-0.48","90","1","2022-11-17 12:27:10","fd252370c17a9971d68c1d4354a03c2e","","Mozilla/5.0 (Windows NT 6.3; Win64; x64) AppleWebKit/537.36 (KHTML, like Gecko) Chrome/107.0.0.0 Safari/537.36","WebKit","Chrome","107.0.0.0","Windows","6.3","null","null","","<p style=""font-size: 48px;"">+</p>","1","Filler","",""
"","","","","","sentence","37717","html-keyboard-response","228","297337","0.0-6.0-1.48","90","1","2022-11-17 12:27:10","fd252370c17a9971d68c1d4354a03c2e","","Mozilla/5.0 (Windows NT 6.3; Win64; x64) AppleWebKit/537.36 (KHTML, like Gecko) Chrome/107.0.0.0 Safari/537.36","WebKit","Chrome","107.0.0.0","Windows","6.3","1008"," ","","A teenage girl is playing the piano","1","Filler","",""
"","","","","","fixation","37717","html-keyboard-response","229","297848","0.0-6.0-2.48","90","1","2022-11-17 12:27:10","fd252370c17a9971d68c1d4354a03c2e","","Mozilla/5.0 (Windows NT 6.3; Win64; x64) AppleWebKit/537.36 (KHTML, like Gecko) Chrome/107.0.0.0 Safari/537.36","WebKit","Chrome","107.0.0.0","Windows","6.3","null","null","","<p style=""font-size: 48px;"">+</p>","1","Filler","",""
"","","","","","picture","37717","image-keyboard-response","230","298448","0.0-6.0-3.48","90","1","2022-11-17 12:27:10","fd252370c17a9971d68c1d4354a03c2e","","Mozilla/5.0 (Windows NT 6.3; Win64; x64) AppleWebKit/537.36 (KHTML, like Gecko) Chrome/107.0.0.0 Safari/537.36","WebKit","Chrome","107.0.0.0","Windows","6.3","590","n","","pillow.jpg","1","Filler","true",""
"","","","","","fixation","37717","html-keyboard-response","231","299464","0.0-6.0-0.49","90","1","2022-11-17 12:27:10","fd252370c17a9971d68c1d4354a03c2e","","Mozilla/5.0 (Windows NT 6.3; Win64; x64) AppleWebKit/537.36 (KHTML, like Gecko) Chrome/107.0.0.0 Safari/537.36","WebKit","Chrome","107.0.0.0","Windows","6.3","null","null","","<p style=""font-size: 48px;"">+</p>","1","Light_Matched","",""
"","","","","","sentence","37717","html-keyboard-response","232","301350","0.0-6.0-1.49","90","1","2022-11-17 12:27:10","fd252370c17a9971d68c1d4354a03c2e","","Mozilla/5.0 (Windows NT 6.3; Win64; x64) AppleWebKit/537.36 (KHTML, like Gecko) Chrome/107.0.0.0 Safari/537.36","WebKit","Chrome","107.0.0.0","Windows","6.3","1876"," ","","A balloon dropped and touched a chocolate muffin","1","Light_Matched","",""
"","","","","","fixation","37717","html-keyboard-response","233","301865","0.0-6.0-2.49","90","1","2022-11-17 12:27:10","fd252370c17a9971d68c1d4354a03c2e","","Mozilla/5.0 (Windows NT 6.3; Win64; x64) AppleWebKit/537.36 (KHTML, like Gecko) Chrome/107.0.0.0 Safari/537.36","WebKit","Chrome","107.0.0.0","Windows","6.3","null","null","","<p style=""font-size: 48px;"">+</p>","1","Light_Matched","",""
"","","","","","picture","37717","image-keyboard-response","234","302341","0.0-6.0-3.49","90","1","2022-11-17 12:27:10","fd252370c17a9971d68c1d4354a03c2e","","Mozilla/5.0 (Windows NT 6.3; Win64; x64) AppleWebKit/537.36 (KHTML, like Gecko) Chrome/107.0.0.0 Safari/537.36","WebKit","Chrome","107.0.0.0","Windows","6.3","466","s","","muffinS.jpg","1","Light_Matched","true",""
"","","","","","fixation","37717","html-keyboard-response","235","303352","0.0-6.0-0.50","90","1","2022-11-17 12:27:10","fd252370c17a9971d68c1d4354a03c2e","","Mozilla/5.0 (Windows NT 6.3; Win64; x64) AppleWebKit/537.36 (KHTML, like Gecko) Chrome/107.0.0.0 Safari/537.36","WebKit","Chrome","107.0.0.0","Windows","6.3","null","null","","<p style=""font-size: 48px;"">+</p>","1","Filler","",""
"","","","","","sentence","37717","html-keyboard-response","236","304712","0.0-6.0-1.50","90","1","2022-11-17 12:27:10","fd252370c17a9971d68c1d4354a03c2e","","Mozilla/5.0 (Windows NT 6.3; Win64; x64) AppleWebKit/537.36 (KHTML, like Gecko) Chrome/107.0.0.0 Safari/537.36","WebKit","Chrome","107.0.0.0","Windows","6.3","1351"," ","","A cat is drinking water from a bowl","1","Filler","",""
"","","","","","fixation","37717","html-keyboard-response","237","305224","0.0-6.0-2.50","90","1","2022-11-17 12:27:10","fd252370c17a9971d68c1d4354a03c2e","","Mozilla/5.0 (Windows NT 6.3; Win64; x64) AppleWebKit/537.36 (KHTML, like Gecko) Chrome/107.0.0.0 Safari/537.36","WebKit","Chrome","107.0.0.0","Windows","6.3","null","null","","<p style=""font-size: 48px;"">+</p>","1","Filler","",""
"","","","","","picture","37717","image-keyboard-response","238","306293","0.0-6.0-3.50","90","1","2022-11-17 12:27:10","fd252370c17a9971d68c1d4354a03c2e","","Mozilla/5.0 (Windows NT 6.3; Win64; x64) AppleWebKit/537.36 (KHTML, like Gecko) Chrome/107.0.0.0 Safari/537.36","WebKit","Chrome","107.0.0.0","Windows","6.3","1059","s","","bowl.jpg","1","Filler","true",""
"","","","","","fixation","37717","html-keyboard-response","239","307304","0.0-6.0-0.51","90","1","2022-11-17 12:27:10","fd252370c17a9971d68c1d4354a03c2e","","Mozilla/5.0 (Windows NT 6.3; Win64; x64) AppleWebKit/537.36 (KHTML, like Gecko) Chrome/107.0.0.0 Safari/537.36","WebKit","Chrome","107.0.0.0","Windows","6.3","null","null","","<p style=""font-size: 48px;"">+</p>","1","Filler","",""
"","","","","","sentence","37717","html-keyboard-response","240","309124","0.0-6.0-1.51","90","1","2022-11-17 12:27:10","fd252370c17a9971d68c1d4354a03c2e","","Mozilla/5.0 (Windows NT 6.3; Win64; x64) AppleWebKit/537.36 (KHTML, like Gecko) Chrome/107.0.0.0 Safari/537.36","WebKit","Chrome","107.0.0.0","Windows","6.3","1810"," ","","A president is writing in the notebook","1","Filler","",""
"","","","","","fixation","37717","html-keyboard-response","241","309641","0.0-6.0-2.51","90","1","2022-11-17 12:27:10","fd252370c17a9971d68c1d4354a03c2e","","Mozilla/5.0 (Windows NT 6.3; Win64; x64) AppleWebKit/537.36 (KHTML, like Gecko) Chrome/107.0.0.0 Safari/537.36","WebKit","Chrome","107.0.0.0","Windows","6.3","null","null","","<p style=""font-size: 48px;"">+</p>","1","Filler","",""
"","","","","","picture","37717","image-keyboard-response","242","310305","0.0-6.0-3.51","90","1","2022-11-17 12:27:10","fd252370c17a9971d68c1d4354a03c2e","","Mozilla/5.0 (Windows NT 6.3; Win64; x64) AppleWebKit/537.36 (KHTML, like Gecko) Chrome/107.0.0.0 Safari/537.36","WebKit","Chrome","107.0.0.0","Windows","6.3","658","n","","can.jpg","1","Filler","true",""
"","","","","","fixation","37717","html-keyboard-response","243","311321","0.0-6.0-0.52","90","1","2022-11-17 12:27:10","fd252370c17a9971d68c1d4354a03c2e","","Mozilla/5.0 (Windows NT 6.3; Win64; x64) AppleWebKit/537.36 (KHTML, like Gecko) Chrome/107.0.0.0 Safari/537.36","WebKit","Chrome","107.0.0.0","Windows","6.3","null","null","","<p style=""font-size: 48px;"">+</p>","1","Heavy_Matched","",""
"","","","","","sentence","37717","html-keyboard-response","244","312824","0.0-6.0-1.52","90","1","2022-11-17 12:27:10","fd252370c17a9971d68c1d4354a03c2e","","Mozilla/5.0 (Windows NT 6.3; Win64; x64) AppleWebKit/537.36 (KHTML, like Gecko) Chrome/107.0.0.0 Safari/537.36","WebKit","Chrome","107.0.0.0","Windows","6.3","1493"," ","","A bowling ball dropped and smashed a porcelain figure","1","Heavy_Matched","",""
"","","","","","fixation","37717","html-keyboard-response","245","313336","0.0-6.0-2.52","90","1","2022-11-17 12:27:10","fd252370c17a9971d68c1d4354a03c2e","","Mozilla/5.0 (Windows NT 6.3; Win64; x64) AppleWebKit/537.36 (KHTML, like Gecko) Chrome/107.0.0.0 Safari/537.36","WebKit","Chrome","107.0.0.0","Windows","6.3","null","null","","<p style=""font-size: 48px;"">+</p>","1","Heavy_Matched","",""
"","","","","","picture","37717","image-keyboard-response","246","313889","0.0-6.0-3.52","90","1","2022-11-17 12:27:10","fd252370c17a9971d68c1d4354a03c2e","","Mozilla/5.0 (Windows NT 6.3; Win64; x64) AppleWebKit/537.36 (KHTML, like Gecko) Chrome/107.0.0.0 Safari/537.36","WebKit","Chrome","107.0.0.0","Windows","6.3","541","s","","figureS.jpg","1","Heavy_Matched","true",""
"","","","","","fixation","37717","html-keyboard-response","247","314905","0.0-6.0-0.53","90","1","2022-11-17 12:27:10","fd252370c17a9971d68c1d4354a03c2e","","Mozilla/5.0 (Windows NT 6.3; Win64; x64) AppleWebKit/537.36 (KHTML, like Gecko) Chrome/107.0.0.0 Safari/537.36","WebKit","Chrome","107.0.0.0","Windows","6.3","null","null","","<p style=""font-size: 48px;"">+</p>","1","Filler","",""
"","","","","","sentence","37717","html-keyboard-response","248","316152","0.0-6.0-1.53","90","1","2022-11-17 12:27:10","fd252370c17a9971d68c1d4354a03c2e","","Mozilla/5.0 (Windows NT 6.3; Win64; x64) AppleWebKit/537.36 (KHTML, like Gecko) Chrome/107.0.0.0 Safari/537.36","WebKit","Chrome","107.0.0.0","Windows","6.3","1237"," ","","A man is boiling potatoes.","1","Filler","",""
"","","","","","fixation","37717","html-keyboard-response","249","316664","0.0-6.0-2.53","90","1","2022-11-17 12:27:10","fd252370c17a9971d68c1d4354a03c2e","","Mozilla/5.0 (Windows NT 6.3; Win64; x64) AppleWebKit/537.36 (KHTML, like Gecko) Chrome/107.0.0.0 Safari/537.36","WebKit","Chrome","107.0.0.0","Windows","6.3","null","null","","<p style=""font-size: 48px;"">+</p>","1","Filler","",""
"","","","","","picture","37717","image-keyboard-response","250","317611","0.0-6.0-3.53","90","1","2022-11-17 12:27:10","fd252370c17a9971d68c1d4354a03c2e","","Mozilla/5.0 (Windows NT 6.3; Win64; x64) AppleWebKit/537.36 (KHTML, like Gecko) Chrome/107.0.0.0 Safari/537.36","WebKit","Chrome","107.0.0.0","Windows","6.3","936","n","","cup.jpg","1","Filler","true",""
