"success","timeout","failed_images","failed_audio","failed_video","typeoftrial","subject","trial_type","trial_index","time_elapsed","internal_node_id","run_id","condition","recorded_at","source_code_version","ip","user_agent","device","browser","browser_version","platform","platform_version","rt","response","Experiment","stimulus","list_number","trialcondition","correct","question_order"
"true","false","[]","[]","[]","preload","15496","preload","0","401","0.0-0.0","118","2","2022-11-17 12:39:16","fd252370c17a9971d68c1d4354a03c2e","","Mozilla/5.0 (Windows NT 10.0; Win64; x64; rv:107.0) Gecko/20100101 Firefox/107.0","","Firefox","107.0","Windows","10.0","","","","","","","",""
"","","","","","ID","15496","survey-text","1","2739","0.0-1.0","118","2","2022-11-17 12:39:16","fd252370c17a9971d68c1d4354a03c2e","","Mozilla/5.0 (Windows NT 10.0; Win64; x64; rv:107.0) Gecko/20100101 Firefox/107.0","","Firefox","107.0","Windows","10.0","2335","{""ID"":""5f9ac707dc3cd12104ea955c""}","","","","","",""
"","","","","","instructions","15496","html-button-response","2","4183","0.0-2.0","118","2","2022-11-17 12:39:16","fd252370c17a9971d68c1d4354a03c2e","","Mozilla/5.0 (Windows NT 10.0; Win64; x64; rv:107.0) Gecko/20100101 Firefox/107.0","","Firefox","107.0","Windows","10.0","1443","0","","
                    <p style=""font-size:20px;""> Welcome to the experiment! </p>
                    <p style=""font-size:20px;""> In this experiment, you will be asked to make judgments about the content of different sentences.</p>
                    <p style=""font-size:20px;""> On each trial, you will read a sentence, and will be shown a picture immediately following the sentence. </p>
                    <p style=""font-size:20px;""> Your task is to decide whether the object displayed in the picture was mentioned in the sentence or not </p>
                    <p style=""font-size:20px;""> and respond as quickly as possible by pressing <strong>S</strong> for yes or <strong>N</strong> for no. </p>
                    <p style=""font-size:20px;""> You will now do a practice session with feedback and instructions. </p>
                    <p style=""font-size:20px;""> Click the button below to continue.</p>
                    ","","","",""
"","","","","","instructions","15496","html-button-response","3","4908","0.0-3.0","118","2","2022-11-17 12:39:16","fd252370c17a9971d68c1d4354a03c2e","","Mozilla/5.0 (Windows NT 10.0; Win64; x64; rv:107.0) Gecko/20100101 Firefox/107.0","","Firefox","107.0","Windows","10.0","723","0","","
                    <p style=""font-size:20px;""> You are about to begin the practice test. </p>
                    <p style=""font-size:20px;""> On each trial, a sentence will appear on the screen. You should press SPACEBAR when you have read and understood the sentence.</p>
                    <p style=""font-size:20px;""> After you press SPACEBAR, a picture will appear on the screen. </p>
                    <p style=""font-size:20px;""> You need to indicate whether or not the pictured object was mentioned in the sentence. </p>
                    <p style=""font-size:20px;""> If the object WAS mentioned in the preceding sentence, you should press <strong>S</strong> </p>
                    <p style=""font-size:20px;""> If the object was NOT mentioned in the preceding sentence, you should press <strong>N</strong>. </p>
                    <p style=""font-size:20px;""> Click the button below to continue to the practice session.</p>
                    ","","","",""
"","","","","","fixation","15496","html-keyboard-response","4","5916","0.0-4.0-0.0","118","2","2022-11-17 12:39:16","fd252370c17a9971d68c1d4354a03c2e","","Mozilla/5.0 (Windows NT 10.0; Win64; x64; rv:107.0) Gecko/20100101 Firefox/107.0","","Firefox","107.0","Windows","10.0","null","null","","<p style=""font-size: 48px;"">+</p>","practice","practice_n","",""
"","","","","","sentence","15496","html-keyboard-response","5","8117","0.0-4.0-1.0","118","2","2022-11-17 12:39:16","fd252370c17a9971d68c1d4354a03c2e","","Mozilla/5.0 (Windows NT 10.0; Win64; x64; rv:107.0) Gecko/20100101 Firefox/107.0","","Firefox","107.0","Windows","10.0","2199"," ","","A fork was placed on a stool","practice","practice_n","",""
"","","","","","fixation","15496","html-keyboard-response","6","8621","0.0-4.0-2.0","118","2","2022-11-17 12:39:16","fd252370c17a9971d68c1d4354a03c2e","","Mozilla/5.0 (Windows NT 10.0; Win64; x64; rv:107.0) Gecko/20100101 Firefox/107.0","","Firefox","107.0","Windows","10.0","null","null","","<p style=""font-size: 48px;"">+</p>","practice","practice_n","",""
"","","","","","picture","15496","image-keyboard-response","7","9009","0.0-4.0-3.0","118","2","2022-11-17 12:39:16","fd252370c17a9971d68c1d4354a03c2e","","Mozilla/5.0 (Windows NT 10.0; Win64; x64; rv:107.0) Gecko/20100101 Firefox/107.0","","Firefox","107.0","Windows","10.0","384","n","","tableB.jpg","practice","practice_n","true",""
"","","","","","","","html-keyboard-response","8","11019","0.0-4.0-4.0","118","2","2022-11-17 12:39:16","fd252370c17a9971d68c1d4354a03c2e","","Mozilla/5.0 (Windows NT 10.0; Win64; x64; rv:107.0) Gecko/20100101 Firefox/107.0","","Firefox","107.0","Windows","10.0","null","null","","CORRECT!","","","",""
"","","","","","fixation","15496","html-keyboard-response","9","12031","0.0-4.0-0.1","118","2","2022-11-17 12:39:16","fd252370c17a9971d68c1d4354a03c2e","","Mozilla/5.0 (Windows NT 10.0; Win64; x64; rv:107.0) Gecko/20100101 Firefox/107.0","","Firefox","107.0","Windows","10.0","null","null","","<p style=""font-size: 48px;"">+</p>","practice","practice_n","",""
"","","","","","sentence","15496","html-keyboard-response","10","13410","0.0-4.0-1.1","118","2","2022-11-17 12:39:16","fd252370c17a9971d68c1d4354a03c2e","","Mozilla/5.0 (Windows NT 10.0; Win64; x64; rv:107.0) Gecko/20100101 Firefox/107.0","","Firefox","107.0","Windows","10.0","1377"," ","","A bowling ball dropped and touched a bottle","practice","practice_n","",""
"","","","","","fixation","15496","html-keyboard-response","11","13913","0.0-4.0-2.1","118","2","2022-11-17 12:39:16","fd252370c17a9971d68c1d4354a03c2e","","Mozilla/5.0 (Windows NT 10.0; Win64; x64; rv:107.0) Gecko/20100101 Firefox/107.0","","Firefox","107.0","Windows","10.0","null","null","","<p style=""font-size: 48px;"">+</p>","practice","practice_n","",""
"","","","","","picture","15496","image-keyboard-response","12","14389","0.0-4.0-3.1","118","2","2022-11-17 12:39:16","fd252370c17a9971d68c1d4354a03c2e","","Mozilla/5.0 (Windows NT 10.0; Win64; x64; rv:107.0) Gecko/20100101 Firefox/107.0","","Firefox","107.0","Windows","10.0","466","n","","bookB.jpg","practice","practice_n","true",""
"","","","","","","","html-keyboard-response","13","16406","0.0-4.0-4.1","118","2","2022-11-17 12:39:16","fd252370c17a9971d68c1d4354a03c2e","","Mozilla/5.0 (Windows NT 10.0; Win64; x64; rv:107.0) Gecko/20100101 Firefox/107.0","","Firefox","107.0","Windows","10.0","null","null","","CORRECT!","","","",""
"","","","","","fixation","15496","html-keyboard-response","14","17413","0.0-4.0-0.2","118","2","2022-11-17 12:39:16","fd252370c17a9971d68c1d4354a03c2e","","Mozilla/5.0 (Windows NT 10.0; Win64; x64; rv:107.0) Gecko/20100101 Firefox/107.0","","Firefox","107.0","Windows","10.0","null","null","","<p style=""font-size: 48px;"">+</p>","practice","practice_s","",""
"","","","","","sentence","15496","html-keyboard-response","15","19310","0.0-4.0-1.2","118","2","2022-11-17 12:39:16","fd252370c17a9971d68c1d4354a03c2e","","Mozilla/5.0 (Windows NT 10.0; Win64; x64; rv:107.0) Gecko/20100101 Firefox/107.0","","Firefox","107.0","Windows","10.0","1896"," ","","A bowling ball dropped and smashed a teacup","practice","practice_s","",""
"","","","","","fixation","15496","html-keyboard-response","16","19819","0.0-4.0-2.2","118","2","2022-11-17 12:39:16","fd252370c17a9971d68c1d4354a03c2e","","Mozilla/5.0 (Windows NT 10.0; Win64; x64; rv:107.0) Gecko/20100101 Firefox/107.0","","Firefox","107.0","Windows","10.0","null","null","","<p style=""font-size: 48px;"">+</p>","practice","practice_s","",""
"","","","","","picture","15496","image-keyboard-response","17","20449","0.0-4.0-3.2","118","2","2022-11-17 12:39:16","fd252370c17a9971d68c1d4354a03c2e","","Mozilla/5.0 (Windows NT 10.0; Win64; x64; rv:107.0) Gecko/20100101 Firefox/107.0","","Firefox","107.0","Windows","10.0","629","s","","cupB.jpg","practice","practice_s","true",""
"","","","","","","","html-keyboard-response","18","22455","0.0-4.0-4.2","118","2","2022-11-17 12:39:16","fd252370c17a9971d68c1d4354a03c2e","","Mozilla/5.0 (Windows NT 10.0; Win64; x64; rv:107.0) Gecko/20100101 Firefox/107.0","","Firefox","107.0","Windows","10.0","null","null","","CORRECT!","","","",""
"","","","","","fixation","15496","html-keyboard-response","19","23468","0.0-4.0-0.3","118","2","2022-11-17 12:39:16","fd252370c17a9971d68c1d4354a03c2e","","Mozilla/5.0 (Windows NT 10.0; Win64; x64; rv:107.0) Gecko/20100101 Firefox/107.0","","Firefox","107.0","Windows","10.0","null","null","","<p style=""font-size: 48px;"">+</p>","practice","practice_s","",""
"","","","","","sentence","15496","html-keyboard-response","20","24269","0.0-4.0-1.3","118","2","2022-11-17 12:39:16","fd252370c17a9971d68c1d4354a03c2e","","Mozilla/5.0 (Windows NT 10.0; Win64; x64; rv:107.0) Gecko/20100101 Firefox/107.0","","Firefox","107.0","Windows","10.0","799"," ","","A knife was placed on a hammer","practice","practice_s","",""
"","","","","","fixation","15496","html-keyboard-response","21","24773","0.0-4.0-2.3","118","2","2022-11-17 12:39:16","fd252370c17a9971d68c1d4354a03c2e","","Mozilla/5.0 (Windows NT 10.0; Win64; x64; rv:107.0) Gecko/20100101 Firefox/107.0","","Firefox","107.0","Windows","10.0","null","null","","<p style=""font-size: 48px;"">+</p>","practice","practice_s","",""
"","","","","","picture","15496","image-keyboard-response","22","25371","0.0-4.0-3.3","118","2","2022-11-17 12:39:16","fd252370c17a9971d68c1d4354a03c2e","","Mozilla/5.0 (Windows NT 10.0; Win64; x64; rv:107.0) Gecko/20100101 Firefox/107.0","","Firefox","107.0","Windows","10.0","590","s","","hammerB.jpg","practice","practice_s","true",""
"","","","","","","","html-keyboard-response","23","27378","0.0-4.0-4.3","118","2","2022-11-17 12:39:16","fd252370c17a9971d68c1d4354a03c2e","","Mozilla/5.0 (Windows NT 10.0; Win64; x64; rv:107.0) Gecko/20100101 Firefox/107.0","","Firefox","107.0","Windows","10.0","null","null","","CORRECT!","","","",""
"","","","","","fixation","15496","html-keyboard-response","24","28383","0.0-4.0-0.4","118","2","2022-11-17 12:39:16","fd252370c17a9971d68c1d4354a03c2e","","Mozilla/5.0 (Windows NT 10.0; Win64; x64; rv:107.0) Gecko/20100101 Firefox/107.0","","Firefox","107.0","Windows","10.0","null","null","","<p style=""font-size: 48px;"">+</p>","practice","practice_n","",""
"","","","","","sentence","15496","html-keyboard-response","25","29481","0.0-4.0-1.4","118","2","2022-11-17 12:39:16","fd252370c17a9971d68c1d4354a03c2e","","Mozilla/5.0 (Windows NT 10.0; Win64; x64; rv:107.0) Gecko/20100101 Firefox/107.0","","Firefox","107.0","Windows","10.0","1097"," ","","A balloon dropped and smashed a cup","practice","practice_n","",""
"","","","","","fixation","15496","html-keyboard-response","26","29984","0.0-4.0-2.4","118","2","2022-11-17 12:39:16","fd252370c17a9971d68c1d4354a03c2e","","Mozilla/5.0 (Windows NT 10.0; Win64; x64; rv:107.0) Gecko/20100101 Firefox/107.0","","Firefox","107.0","Windows","10.0","null","null","","<p style=""font-size: 48px;"">+</p>","practice","practice_n","",""
"","","","","","picture","15496","image-keyboard-response","27","30848","0.0-4.0-3.4","118","2","2022-11-17 12:39:16","fd252370c17a9971d68c1d4354a03c2e","","Mozilla/5.0 (Windows NT 10.0; Win64; x64; rv:107.0) Gecko/20100101 Firefox/107.0","","Firefox","107.0","Windows","10.0","858","n","","bananaB.jpg","practice","practice_n","true",""
"","","","","","","","html-keyboard-response","28","32852","0.0-4.0-4.4","118","2","2022-11-17 12:39:16","fd252370c17a9971d68c1d4354a03c2e","","Mozilla/5.0 (Windows NT 10.0; Win64; x64; rv:107.0) Gecko/20100101 Firefox/107.0","","Firefox","107.0","Windows","10.0","null","null","","CORRECT!","","","",""
"","","","","","fixation","15496","html-keyboard-response","29","33870","0.0-4.0-0.5","118","2","2022-11-17 12:39:16","fd252370c17a9971d68c1d4354a03c2e","","Mozilla/5.0 (Windows NT 10.0; Win64; x64; rv:107.0) Gecko/20100101 Firefox/107.0","","Firefox","107.0","Windows","10.0","null","null","","<p style=""font-size: 48px;"">+</p>","practice","practice_s","",""
"","","","","","sentence","15496","html-keyboard-response","30","35073","0.0-4.0-1.5","118","2","2022-11-17 12:39:16","fd252370c17a9971d68c1d4354a03c2e","","Mozilla/5.0 (Windows NT 10.0; Win64; x64; rv:107.0) Gecko/20100101 Firefox/107.0","","Firefox","107.0","Windows","10.0","1201"," ","","A balloon dropped and touched a cigarette","practice","practice_s","",""
"","","","","","fixation","15496","html-keyboard-response","31","35580","0.0-4.0-2.5","118","2","2022-11-17 12:39:16","fd252370c17a9971d68c1d4354a03c2e","","Mozilla/5.0 (Windows NT 10.0; Win64; x64; rv:107.0) Gecko/20100101 Firefox/107.0","","Firefox","107.0","Windows","10.0","null","null","","<p style=""font-size: 48px;"">+</p>","practice","practice_s","",""
"","","","","","picture","15496","image-keyboard-response","32","35883","0.0-4.0-3.5","118","2","2022-11-17 12:39:16","fd252370c17a9971d68c1d4354a03c2e","","Mozilla/5.0 (Windows NT 10.0; Win64; x64; rv:107.0) Gecko/20100101 Firefox/107.0","","Firefox","107.0","Windows","10.0","296","s","","cigaretteB.jpg","practice","practice_s","true",""
"","","","","","","","html-keyboard-response","33","37888","0.0-4.0-4.5","118","2","2022-11-17 12:39:16","fd252370c17a9971d68c1d4354a03c2e","","Mozilla/5.0 (Windows NT 10.0; Win64; x64; rv:107.0) Gecko/20100101 Firefox/107.0","","Firefox","107.0","Windows","10.0","null","null","","CORRECT!","","","",""
"","","","","","movetoexp","15496","html-button-response","34","39562","0.0-5.0","118","2","2022-11-17 12:39:16","fd252370c17a9971d68c1d4354a03c2e","","Mozilla/5.0 (Windows NT 10.0; Win64; x64; rv:107.0) Gecko/20100101 Firefox/107.0","","Firefox","107.0","Windows","10.0","1672","0","","<p style=""font-size:20px;"">You have now completed the practice session! </p>
                    <p style=""font-size:20px;"">You will now move on to the main experiment, where you will not be provided any feedback. </p>
                    <p style=""font-size:20px;"">Remember, you should press <strong>S</strong> if the pictured object was mentioned in the preceding sentence<br> and <strong>N</strong> if the pictured object was not mentioned in the preceding sentence.</p>
                    <p style=""font-size:20px;"">Please click the button below to continue to the main experiment. </p>","","","",""
"","","","","","fixation","15496","html-keyboard-response","35","40568","0.0-6.0-0.0","118","2","2022-11-17 12:39:16","fd252370c17a9971d68c1d4354a03c2e","","Mozilla/5.0 (Windows NT 10.0; Win64; x64; rv:107.0) Gecko/20100101 Firefox/107.0","","Firefox","107.0","Windows","10.0","null","null","","<p style=""font-size: 48px;"">+</p>","2","Filler","",""
"","","","","","sentence","15496","html-keyboard-response","36","42164","0.0-6.0-1.0","118","2","2022-11-17 12:39:16","fd252370c17a9971d68c1d4354a03c2e","","Mozilla/5.0 (Windows NT 10.0; Win64; x64; rv:107.0) Gecko/20100101 Firefox/107.0","","Firefox","107.0","Windows","10.0","1593"," ","","A cook is taking a knife","2","Filler","",""
"","","","","","fixation","15496","html-keyboard-response","37","42677","0.0-6.0-2.0","118","2","2022-11-17 12:39:16","fd252370c17a9971d68c1d4354a03c2e","","Mozilla/5.0 (Windows NT 10.0; Win64; x64; rv:107.0) Gecko/20100101 Firefox/107.0","","Firefox","107.0","Windows","10.0","null","null","","<p style=""font-size: 48px;"">+</p>","2","Filler","",""
"","","","","","picture","15496","image-keyboard-response","38","43197","0.0-6.0-3.0","118","2","2022-11-17 12:39:16","fd252370c17a9971d68c1d4354a03c2e","","Mozilla/5.0 (Windows NT 10.0; Win64; x64; rv:107.0) Gecko/20100101 Firefox/107.0","","Firefox","107.0","Windows","10.0","511","s","","knife.jpg","2","Filler","true",""
"","","","","","fixation","15496","html-keyboard-response","39","44203","0.0-6.0-0.1","118","2","2022-11-17 12:39:16","fd252370c17a9971d68c1d4354a03c2e","","Mozilla/5.0 (Windows NT 10.0; Win64; x64; rv:107.0) Gecko/20100101 Firefox/107.0","","Firefox","107.0","Windows","10.0","null","null","","<p style=""font-size: 48px;"">+</p>","2","Filler","",""
"","","","","","sentence","15496","html-keyboard-response","40","45191","0.0-6.0-1.1","118","2","2022-11-17 12:39:16","fd252370c17a9971d68c1d4354a03c2e","","Mozilla/5.0 (Windows NT 10.0; Win64; x64; rv:107.0) Gecko/20100101 Firefox/107.0","","Firefox","107.0","Windows","10.0","986"," ","","A cushion was placed on the magazine","2","Filler","",""
"","","","","","fixation","15496","html-keyboard-response","41","45696","0.0-6.0-2.1","118","2","2022-11-17 12:39:16","fd252370c17a9971d68c1d4354a03c2e","","Mozilla/5.0 (Windows NT 10.0; Win64; x64; rv:107.0) Gecko/20100101 Firefox/107.0","","Firefox","107.0","Windows","10.0","null","null","","<p style=""font-size: 48px;"">+</p>","2","Filler","",""
"","","","","","picture","15496","image-keyboard-response","42","46152","0.0-6.0-3.1","118","2","2022-11-17 12:39:16","fd252370c17a9971d68c1d4354a03c2e","","Mozilla/5.0 (Windows NT 10.0; Win64; x64; rv:107.0) Gecko/20100101 Firefox/107.0","","Firefox","107.0","Windows","10.0","450","n","","box.jpg","2","Filler","true",""
"","","","","","fixation","15496","html-keyboard-response","43","47158","0.0-6.0-0.2","118","2","2022-11-17 12:39:16","fd252370c17a9971d68c1d4354a03c2e","","Mozilla/5.0 (Windows NT 10.0; Win64; x64; rv:107.0) Gecko/20100101 Firefox/107.0","","Firefox","107.0","Windows","10.0","null","null","","<p style=""font-size: 48px;"">+</p>","2","Filler","",""
"","","","","","sentence","15496","html-keyboard-response","44","47958","0.0-6.0-1.2","118","2","2022-11-17 12:39:16","fd252370c17a9971d68c1d4354a03c2e","","Mozilla/5.0 (Windows NT 10.0; Win64; x64; rv:107.0) Gecko/20100101 Firefox/107.0","","Firefox","107.0","Windows","10.0","797"," ","","A butterfly is sitting on a flower","2","Filler","",""
"","","","","","fixation","15496","html-keyboard-response","45","48461","0.0-6.0-2.2","118","2","2022-11-17 12:39:16","fd252370c17a9971d68c1d4354a03c2e","","Mozilla/5.0 (Windows NT 10.0; Win64; x64; rv:107.0) Gecko/20100101 Firefox/107.0","","Firefox","107.0","Windows","10.0","null","null","","<p style=""font-size: 48px;"">+</p>","2","Filler","",""
"","","","","","picture","15496","image-keyboard-response","46","49011","0.0-6.0-3.2","118","2","2022-11-17 12:39:16","fd252370c17a9971d68c1d4354a03c2e","","Mozilla/5.0 (Windows NT 10.0; Win64; x64; rv:107.0) Gecko/20100101 Firefox/107.0","","Firefox","107.0","Windows","10.0","544","n","","soap.jpg","2","Filler","true",""
"","","","","","fixation","15496","html-keyboard-response","47","50030","0.0-6.0-0.3","118","2","2022-11-17 12:39:16","fd252370c17a9971d68c1d4354a03c2e","","Mozilla/5.0 (Windows NT 10.0; Win64; x64; rv:107.0) Gecko/20100101 Firefox/107.0","","Firefox","107.0","Windows","10.0","null","null","","<p style=""font-size: 48px;"">+</p>","2","Heavy_Contradictory","",""
"","","","","","sentence","15496","html-keyboard-response","48","50879","0.0-6.0-1.3","118","2","2022-11-17 12:39:16","fd252370c17a9971d68c1d4354a03c2e","","Mozilla/5.0 (Windows NT 10.0; Win64; x64; rv:107.0) Gecko/20100101 Firefox/107.0","","Firefox","107.0","Windows","10.0","848"," ","","A bowling ball dropped and touched a chocolate muffin","2","Heavy_Contradictory","",""
"","","","","","fixation","15496","html-keyboard-response","49","51396","0.0-6.0-2.3","118","2","2022-11-17 12:39:16","fd252370c17a9971d68c1d4354a03c2e","","Mozilla/5.0 (Windows NT 10.0; Win64; x64; rv:107.0) Gecko/20100101 Firefox/107.0","","Firefox","107.0","Windows","10.0","null","null","","<p style=""font-size: 48px;"">+</p>","2","Heavy_Contradictory","",""
"","","","","","picture","15496","image-keyboard-response","50","51671","0.0-6.0-3.3","118","2","2022-11-17 12:39:16","fd252370c17a9971d68c1d4354a03c2e","","Mozilla/5.0 (Windows NT 10.0; Win64; x64; rv:107.0) Gecko/20100101 Firefox/107.0","","Firefox","107.0","Windows","10.0","263","s","","muffinS.jpg","2","Heavy_Contradictory","true",""
"","","","","","fixation","15496","html-keyboard-response","51","52683","0.0-6.0-0.4","118","2","2022-11-17 12:39:16","fd252370c17a9971d68c1d4354a03c2e","","Mozilla/5.0 (Windows NT 10.0; Win64; x64; rv:107.0) Gecko/20100101 Firefox/107.0","","Firefox","107.0","Windows","10.0","null","null","","<p style=""font-size: 48px;"">+</p>","2","Light_Contradictory","",""
"","","","","","sentence","15496","html-keyboard-response","52","53448","0.0-6.0-1.4","118","2","2022-11-17 12:39:16","fd252370c17a9971d68c1d4354a03c2e","","Mozilla/5.0 (Windows NT 10.0; Win64; x64; rv:107.0) Gecko/20100101 Firefox/107.0","","Firefox","107.0","Windows","10.0","763"," ","","A balloon dropped and smashed a TV","2","Light_Contradictory","",""
"","","","","","fixation","15496","html-keyboard-response","53","53961","0.0-6.0-2.4","118","2","2022-11-17 12:39:16","fd252370c17a9971d68c1d4354a03c2e","","Mozilla/5.0 (Windows NT 10.0; Win64; x64; rv:107.0) Gecko/20100101 Firefox/107.0","","Firefox","107.0","Windows","10.0","null","null","","<p style=""font-size: 48px;"">+</p>","2","Light_Contradictory","",""
"","","","","","picture","15496","image-keyboard-response","54","54286","0.0-6.0-3.4","118","2","2022-11-17 12:39:16","fd252370c17a9971d68c1d4354a03c2e","","Mozilla/5.0 (Windows NT 10.0; Win64; x64; rv:107.0) Gecko/20100101 Firefox/107.0","","Firefox","107.0","Windows","10.0","318","s","","tvS.jpg","2","Light_Contradictory","true",""
"","","","","","fixation","15496","html-keyboard-response","55","55305","0.0-6.0-0.5","118","2","2022-11-17 12:39:16","fd252370c17a9971d68c1d4354a03c2e","","Mozilla/5.0 (Windows NT 10.0; Win64; x64; rv:107.0) Gecko/20100101 Firefox/107.0","","Firefox","107.0","Windows","10.0","null","null","","<p style=""font-size: 48px;"">+</p>","2","Light_Contradictory","",""
"","","","","","sentence","15496","html-keyboard-response","56","55977","0.0-6.0-1.5","118","2","2022-11-17 12:39:16","fd252370c17a9971d68c1d4354a03c2e","","Mozilla/5.0 (Windows NT 10.0; Win64; x64; rv:107.0) Gecko/20100101 Firefox/107.0","","Firefox","107.0","Windows","10.0","668"," ","","A balloon dropped and smashed a cracker","2","Light_Contradictory","",""
"","","","","","fixation","15496","html-keyboard-response","57","56483","0.0-6.0-2.5","118","2","2022-11-17 12:39:16","fd252370c17a9971d68c1d4354a03c2e","","Mozilla/5.0 (Windows NT 10.0; Win64; x64; rv:107.0) Gecko/20100101 Firefox/107.0","","Firefox","107.0","Windows","10.0","null","null","","<p style=""font-size: 48px;"">+</p>","2","Light_Contradictory","",""
"","","","","","picture","15496","image-keyboard-response","58","56710","0.0-6.0-3.5","118","2","2022-11-17 12:39:16","fd252370c17a9971d68c1d4354a03c2e","","Mozilla/5.0 (Windows NT 10.0; Win64; x64; rv:107.0) Gecko/20100101 Firefox/107.0","","Firefox","107.0","Windows","10.0","221","s","","crackerS.jpg","2","Light_Contradictory","true",""
"","","","","","fixation","15496","html-keyboard-response","59","57727","0.0-6.0-0.6","118","2","2022-11-17 12:39:16","fd252370c17a9971d68c1d4354a03c2e","","Mozilla/5.0 (Windows NT 10.0; Win64; x64; rv:107.0) Gecko/20100101 Firefox/107.0","","Firefox","107.0","Windows","10.0","null","null","","<p style=""font-size: 48px;"">+</p>","2","Filler","",""
"","","","","","sentence","15496","html-keyboard-response","60","58344","0.0-6.0-1.6","118","2","2022-11-17 12:39:16","fd252370c17a9971d68c1d4354a03c2e","","Mozilla/5.0 (Windows NT 10.0; Win64; x64; rv:107.0) Gecko/20100101 Firefox/107.0","","Firefox","107.0","Windows","10.0","613"," ","","A president is writing in the notebook","2","Filler","",""
"","","","","","fixation","15496","html-keyboard-response","61","58849","0.0-6.0-2.6","118","2","2022-11-17 12:39:16","fd252370c17a9971d68c1d4354a03c2e","","Mozilla/5.0 (Windows NT 10.0; Win64; x64; rv:107.0) Gecko/20100101 Firefox/107.0","","Firefox","107.0","Windows","10.0","null","null","","<p style=""font-size: 48px;"">+</p>","2","Filler","",""
"","","","","","picture","15496","image-keyboard-response","62","59586","0.0-6.0-3.6","118","2","2022-11-17 12:39:16","fd252370c17a9971d68c1d4354a03c2e","","Mozilla/5.0 (Windows NT 10.0; Win64; x64; rv:107.0) Gecko/20100101 Firefox/107.0","","Firefox","107.0","Windows","10.0","730","n","","can.jpg","2","Filler","true",""
"","","","","","fixation","15496","html-keyboard-response","63","60597","0.0-6.0-0.7","118","2","2022-11-17 12:39:16","fd252370c17a9971d68c1d4354a03c2e","","Mozilla/5.0 (Windows NT 10.0; Win64; x64; rv:107.0) Gecko/20100101 Firefox/107.0","","Firefox","107.0","Windows","10.0","null","null","","<p style=""font-size: 48px;"">+</p>","2","Filler","",""
"","","","","","sentence","15496","html-keyboard-response","64","61092","0.0-6.0-1.7","118","2","2022-11-17 12:39:16","fd252370c17a9971d68c1d4354a03c2e","","Mozilla/5.0 (Windows NT 10.0; Win64; x64; rv:107.0) Gecko/20100101 Firefox/107.0","","Firefox","107.0","Windows","10.0","493"," ","","A doctor is taking a stethoscope","2","Filler","",""
"","","","","","fixation","15496","html-keyboard-response","65","61611","0.0-6.0-2.7","118","2","2022-11-17 12:39:16","fd252370c17a9971d68c1d4354a03c2e","","Mozilla/5.0 (Windows NT 10.0; Win64; x64; rv:107.0) Gecko/20100101 Firefox/107.0","","Firefox","107.0","Windows","10.0","null","null","","<p style=""font-size: 48px;"">+</p>","2","Filler","",""
"","","","","","picture","15496","image-keyboard-response","66","61909","0.0-6.0-3.7","118","2","2022-11-17 12:39:16","fd252370c17a9971d68c1d4354a03c2e","","Mozilla/5.0 (Windows NT 10.0; Win64; x64; rv:107.0) Gecko/20100101 Firefox/107.0","","Firefox","107.0","Windows","10.0","273","n","","matchesbox.jpg","2","Filler","true",""
"","","","","","fixation","15496","html-keyboard-response","67","62923","0.0-6.0-0.8","118","2","2022-11-17 12:39:16","fd252370c17a9971d68c1d4354a03c2e","","Mozilla/5.0 (Windows NT 10.0; Win64; x64; rv:107.0) Gecko/20100101 Firefox/107.0","","Firefox","107.0","Windows","10.0","null","null","","<p style=""font-size: 48px;"">+</p>","2","Filler","",""
"","","","","","sentence","15496","html-keyboard-response","68","63589","0.0-6.0-1.8","118","2","2022-11-17 12:39:16","fd252370c17a9971d68c1d4354a03c2e","","Mozilla/5.0 (Windows NT 10.0; Win64; x64; rv:107.0) Gecko/20100101 Firefox/107.0","","Firefox","107.0","Windows","10.0","660"," ","","An astronaut is putting on a space suit","2","Filler","",""
"","","","","","fixation","15496","html-keyboard-response","69","64105","0.0-6.0-2.8","118","2","2022-11-17 12:39:16","fd252370c17a9971d68c1d4354a03c2e","","Mozilla/5.0 (Windows NT 10.0; Win64; x64; rv:107.0) Gecko/20100101 Firefox/107.0","","Firefox","107.0","Windows","10.0","null","null","","<p style=""font-size: 48px;"">+</p>","2","Filler","",""
"","","","","","picture","15496","image-keyboard-response","70","64368","0.0-6.0-3.8","118","2","2022-11-17 12:39:16","fd252370c17a9971d68c1d4354a03c2e","","Mozilla/5.0 (Windows NT 10.0; Win64; x64; rv:107.0) Gecko/20100101 Firefox/107.0","","Firefox","107.0","Windows","10.0","256","s","","spacesuit.jpg","2","Filler","true",""
"","","","","","fixation","15496","html-keyboard-response","71","65382","0.0-6.0-0.9","118","2","2022-11-17 12:39:16","fd252370c17a9971d68c1d4354a03c2e","","Mozilla/5.0 (Windows NT 10.0; Win64; x64; rv:107.0) Gecko/20100101 Firefox/107.0","","Firefox","107.0","Windows","10.0","null","null","","<p style=""font-size: 48px;"">+</p>","2","Filler","",""
"","","","","","sentence","15496","html-keyboard-response","72","66009","0.0-6.0-1.9","118","2","2022-11-17 12:39:16","fd252370c17a9971d68c1d4354a03c2e","","Mozilla/5.0 (Windows NT 10.0; Win64; x64; rv:107.0) Gecko/20100101 Firefox/107.0","","Firefox","107.0","Windows","10.0","621"," ","","A parrot is eating an apple","2","Filler","",""
"","","","","","fixation","15496","html-keyboard-response","73","66515","0.0-6.0-2.9","118","2","2022-11-17 12:39:16","fd252370c17a9971d68c1d4354a03c2e","","Mozilla/5.0 (Windows NT 10.0; Win64; x64; rv:107.0) Gecko/20100101 Firefox/107.0","","Firefox","107.0","Windows","10.0","null","null","","<p style=""font-size: 48px;"">+</p>","2","Filler","",""
"","","","","","picture","15496","image-keyboard-response","74","67031","0.0-6.0-3.9","118","2","2022-11-17 12:39:16","fd252370c17a9971d68c1d4354a03c2e","","Mozilla/5.0 (Windows NT 10.0; Win64; x64; rv:107.0) Gecko/20100101 Firefox/107.0","","Firefox","107.0","Windows","10.0","507","n","","shirt.jpg","2","Filler","true",""
"","","","","","fixation","15496","html-keyboard-response","75","68044","0.0-6.0-0.10","118","2","2022-11-17 12:39:16","fd252370c17a9971d68c1d4354a03c2e","","Mozilla/5.0 (Windows NT 10.0; Win64; x64; rv:107.0) Gecko/20100101 Firefox/107.0","","Firefox","107.0","Windows","10.0","null","null","","<p style=""font-size: 48px;"">+</p>","2","Filler","",""
"","","","","","sentence","15496","html-keyboard-response","76","68576","0.0-6.0-1.10","118","2","2022-11-17 12:39:16","fd252370c17a9971d68c1d4354a03c2e","","Mozilla/5.0 (Windows NT 10.0; Win64; x64; rv:107.0) Gecko/20100101 Firefox/107.0","","Firefox","107.0","Windows","10.0","525"," ","","A kitten is playing in the sandbox","2","Filler","",""
"","","","","","fixation","15496","html-keyboard-response","77","69083","0.0-6.0-2.10","118","2","2022-11-17 12:39:16","fd252370c17a9971d68c1d4354a03c2e","","Mozilla/5.0 (Windows NT 10.0; Win64; x64; rv:107.0) Gecko/20100101 Firefox/107.0","","Firefox","107.0","Windows","10.0","null","null","","<p style=""font-size: 48px;"">+</p>","2","Filler","",""
"","","","","","picture","15496","image-keyboard-response","78","69626","0.0-6.0-3.10","118","2","2022-11-17 12:39:16","fd252370c17a9971d68c1d4354a03c2e","","Mozilla/5.0 (Windows NT 10.0; Win64; x64; rv:107.0) Gecko/20100101 Firefox/107.0","","Firefox","107.0","Windows","10.0","533","n","","dustbin.jpg","2","Filler","true",""
"","","","","","fixation","15496","html-keyboard-response","79","70640","0.0-6.0-0.11","118","2","2022-11-17 12:39:16","fd252370c17a9971d68c1d4354a03c2e","","Mozilla/5.0 (Windows NT 10.0; Win64; x64; rv:107.0) Gecko/20100101 Firefox/107.0","","Firefox","107.0","Windows","10.0","null","null","","<p style=""font-size: 48px;"">+</p>","2","Heavy_Contradictory","",""
"","","","","","sentence","15496","html-keyboard-response","80","71335","0.0-6.0-1.11","118","2","2022-11-17 12:39:16","fd252370c17a9971d68c1d4354a03c2e","","Mozilla/5.0 (Windows NT 10.0; Win64; x64; rv:107.0) Gecko/20100101 Firefox/107.0","","Firefox","107.0","Windows","10.0","691"," ","","A bowling ball dropped and touched a rice cake","2","Heavy_Contradictory","",""
"","","","","","fixation","15496","html-keyboard-response","81","71852","0.0-6.0-2.11","118","2","2022-11-17 12:39:16","fd252370c17a9971d68c1d4354a03c2e","","Mozilla/5.0 (Windows NT 10.0; Win64; x64; rv:107.0) Gecko/20100101 Firefox/107.0","","Firefox","107.0","Windows","10.0","null","null","","<p style=""font-size: 48px;"">+</p>","2","Heavy_Contradictory","",""
"","","","","","picture","15496","image-keyboard-response","82","72118","0.0-6.0-3.11","118","2","2022-11-17 12:39:16","fd252370c17a9971d68c1d4354a03c2e","","Mozilla/5.0 (Windows NT 10.0; Win64; x64; rv:107.0) Gecko/20100101 Firefox/107.0","","Firefox","107.0","Windows","10.0","251","s","","tortitaS.jpg","2","Heavy_Contradictory","true",""
"","","","","","fixation","15496","html-keyboard-response","83","73132","0.0-6.0-0.12","118","2","2022-11-17 12:39:16","fd252370c17a9971d68c1d4354a03c2e","","Mozilla/5.0 (Windows NT 10.0; Win64; x64; rv:107.0) Gecko/20100101 Firefox/107.0","","Firefox","107.0","Windows","10.0","null","null","","<p style=""font-size: 48px;"">+</p>","2","Filler","",""
"","","","","","sentence","15496","html-keyboard-response","84","73784","0.0-6.0-1.12","118","2","2022-11-17 12:39:16","fd252370c17a9971d68c1d4354a03c2e","","Mozilla/5.0 (Windows NT 10.0; Win64; x64; rv:107.0) Gecko/20100101 Firefox/107.0","","Firefox","107.0","Windows","10.0","647"," ","","A photographer is taking a photo of a lion","2","Filler","",""
"","","","","","fixation","15496","html-keyboard-response","85","74301","0.0-6.0-2.12","118","2","2022-11-17 12:39:16","fd252370c17a9971d68c1d4354a03c2e","","Mozilla/5.0 (Windows NT 10.0; Win64; x64; rv:107.0) Gecko/20100101 Firefox/107.0","","Firefox","107.0","Windows","10.0","null","null","","<p style=""font-size: 48px;"">+</p>","2","Filler","",""
"","","","","","picture","15496","image-keyboard-response","86","74509","0.0-6.0-3.12","118","2","2022-11-17 12:39:16","fd252370c17a9971d68c1d4354a03c2e","","Mozilla/5.0 (Windows NT 10.0; Win64; x64; rv:107.0) Gecko/20100101 Firefox/107.0","","Firefox","107.0","Windows","10.0","198","s","","lion.jpg","2","Filler","true",""
"","","","","","fixation","15496","html-keyboard-response","87","75525","0.0-6.0-0.13","118","2","2022-11-17 12:39:16","fd252370c17a9971d68c1d4354a03c2e","","Mozilla/5.0 (Windows NT 10.0; Win64; x64; rv:107.0) Gecko/20100101 Firefox/107.0","","Firefox","107.0","Windows","10.0","null","null","","<p style=""font-size: 48px;"">+</p>","2","Filler","",""
"","","","","","sentence","15496","html-keyboard-response","88","76175","0.0-6.0-1.13","118","2","2022-11-17 12:39:16","fd252370c17a9971d68c1d4354a03c2e","","Mozilla/5.0 (Windows NT 10.0; Win64; x64; rv:107.0) Gecko/20100101 Firefox/107.0","","Firefox","107.0","Windows","10.0","645"," ","","A horse is chewing hay","2","Filler","",""
"","","","","","fixation","15496","html-keyboard-response","89","76691","0.0-6.0-2.13","118","2","2022-11-17 12:39:16","fd252370c17a9971d68c1d4354a03c2e","","Mozilla/5.0 (Windows NT 10.0; Win64; x64; rv:107.0) Gecko/20100101 Firefox/107.0","","Firefox","107.0","Windows","10.0","null","null","","<p style=""font-size: 48px;"">+</p>","2","Filler","",""
"","","","","","picture","15496","image-keyboard-response","90","77129","0.0-6.0-3.13","118","2","2022-11-17 12:39:16","fd252370c17a9971d68c1d4354a03c2e","","Mozilla/5.0 (Windows NT 10.0; Win64; x64; rv:107.0) Gecko/20100101 Firefox/107.0","","Firefox","107.0","Windows","10.0","423","n","","purse.jpg","2","Filler","true",""
"","","","","","fixation","15496","html-keyboard-response","91","78145","0.0-6.0-0.14","118","2","2022-11-17 12:39:16","fd252370c17a9971d68c1d4354a03c2e","","Mozilla/5.0 (Windows NT 10.0; Win64; x64; rv:107.0) Gecko/20100101 Firefox/107.0","","Firefox","107.0","Windows","10.0","null","null","","<p style=""font-size: 48px;"">+</p>","2","Light_Matched","",""
"","","","","","sentence","15496","html-keyboard-response","92","79007","0.0-6.0-1.14","118","2","2022-11-17 12:39:16","fd252370c17a9971d68c1d4354a03c2e","","Mozilla/5.0 (Windows NT 10.0; Win64; x64; rv:107.0) Gecko/20100101 Firefox/107.0","","Firefox","107.0","Windows","10.0","856"," ","","A balloon dropped and touched a piece of sushi","2","Light_Matched","",""
"","","","","","fixation","15496","html-keyboard-response","93","79527","0.0-6.0-2.14","118","2","2022-11-17 12:39:16","fd252370c17a9971d68c1d4354a03c2e","","Mozilla/5.0 (Windows NT 10.0; Win64; x64; rv:107.0) Gecko/20100101 Firefox/107.0","","Firefox","107.0","Windows","10.0","null","null","","<p style=""font-size: 48px;"">+</p>","2","Light_Matched","",""
"","","","","","picture","15496","image-keyboard-response","94","79783","0.0-6.0-3.14","118","2","2022-11-17 12:39:16","fd252370c17a9971d68c1d4354a03c2e","","Mozilla/5.0 (Windows NT 10.0; Win64; x64; rv:107.0) Gecko/20100101 Firefox/107.0","","Firefox","107.0","Windows","10.0","244","s","","sushiS.jpg","2","Light_Matched","true",""
"","","","","","fixation","15496","html-keyboard-response","95","80803","0.0-6.0-0.15","118","2","2022-11-17 12:39:16","fd252370c17a9971d68c1d4354a03c2e","","Mozilla/5.0 (Windows NT 10.0; Win64; x64; rv:107.0) Gecko/20100101 Firefox/107.0","","Firefox","107.0","Windows","10.0","null","null","","<p style=""font-size: 48px;"">+</p>","2","Light_Matched","",""
"","","","","","sentence","15496","html-keyboard-response","96","81402","0.0-6.0-1.15","118","2","2022-11-17 12:39:16","fd252370c17a9971d68c1d4354a03c2e","","Mozilla/5.0 (Windows NT 10.0; Win64; x64; rv:107.0) Gecko/20100101 Firefox/107.0","","Firefox","107.0","Windows","10.0","595"," ","","A balloon dropped and touched a tomato","2","Light_Matched","",""
"","","","","","fixation","15496","html-keyboard-response","97","81910","0.0-6.0-2.15","118","2","2022-11-17 12:39:16","fd252370c17a9971d68c1d4354a03c2e","","Mozilla/5.0 (Windows NT 10.0; Win64; x64; rv:107.0) Gecko/20100101 Firefox/107.0","","Firefox","107.0","Windows","10.0","null","null","","<p style=""font-size: 48px;"">+</p>","2","Light_Matched","",""
"","","","","","picture","15496","image-keyboard-response","98","82131","0.0-6.0-3.15","118","2","2022-11-17 12:39:16","fd252370c17a9971d68c1d4354a03c2e","","Mozilla/5.0 (Windows NT 10.0; Win64; x64; rv:107.0) Gecko/20100101 Firefox/107.0","","Firefox","107.0","Windows","10.0","212","s","","tomatoS.jpg","2","Light_Matched","true",""
"","","","","","fixation","15496","html-keyboard-response","99","83139","0.0-6.0-0.16","118","2","2022-11-17 12:39:16","fd252370c17a9971d68c1d4354a03c2e","","Mozilla/5.0 (Windows NT 10.0; Win64; x64; rv:107.0) Gecko/20100101 Firefox/107.0","","Firefox","107.0","Windows","10.0","null","null","","<p style=""font-size: 48px;"">+</p>","2","Filler","",""
"","","","","","sentence","15496","html-keyboard-response","100","83838","0.0-6.0-1.16","118","2","2022-11-17 12:39:16","fd252370c17a9971d68c1d4354a03c2e","","Mozilla/5.0 (Windows NT 10.0; Win64; x64; rv:107.0) Gecko/20100101 Firefox/107.0","","Firefox","107.0","Windows","10.0","693"," ","","A student is writing on a board","2","Filler","",""
"","","","","","fixation","15496","html-keyboard-response","101","84360","0.0-6.0-2.16","118","2","2022-11-17 12:39:16","fd252370c17a9971d68c1d4354a03c2e","","Mozilla/5.0 (Windows NT 10.0; Win64; x64; rv:107.0) Gecko/20100101 Firefox/107.0","","Firefox","107.0","Windows","10.0","null","null","","<p style=""font-size: 48px;"">+</p>","2","Filler","",""
"","","","","","picture","15496","image-keyboard-response","102","84694","0.0-6.0-3.16","118","2","2022-11-17 12:39:16","fd252370c17a9971d68c1d4354a03c2e","","Mozilla/5.0 (Windows NT 10.0; Win64; x64; rv:107.0) Gecko/20100101 Firefox/107.0","","Firefox","107.0","Windows","10.0","322","n","","owl.jpg","2","Filler","true",""
"","","","","","fixation","15496","html-keyboard-response","103","85718","0.0-6.0-0.17","118","2","2022-11-17 12:39:16","fd252370c17a9971d68c1d4354a03c2e","","Mozilla/5.0 (Windows NT 10.0; Win64; x64; rv:107.0) Gecko/20100101 Firefox/107.0","","Firefox","107.0","Windows","10.0","null","null","","<p style=""font-size: 48px;"">+</p>","2","Filler","",""
"","","","","","sentence","15496","html-keyboard-response","104","86217","0.0-6.0-1.17","118","2","2022-11-17 12:39:16","fd252370c17a9971d68c1d4354a03c2e","","Mozilla/5.0 (Windows NT 10.0; Win64; x64; rv:107.0) Gecko/20100101 Firefox/107.0","","Firefox","107.0","Windows","10.0","493"," ","","A pilot is reading a book","2","Filler","",""
"","","","","","fixation","15496","html-keyboard-response","105","86725","0.0-6.0-2.17","118","2","2022-11-17 12:39:16","fd252370c17a9971d68c1d4354a03c2e","","Mozilla/5.0 (Windows NT 10.0; Win64; x64; rv:107.0) Gecko/20100101 Firefox/107.0","","Firefox","107.0","Windows","10.0","null","null","","<p style=""font-size: 48px;"">+</p>","2","Filler","",""
"","","","","","picture","15496","image-keyboard-response","106","87140","0.0-6.0-3.17","118","2","2022-11-17 12:39:16","fd252370c17a9971d68c1d4354a03c2e","","Mozilla/5.0 (Windows NT 10.0; Win64; x64; rv:107.0) Gecko/20100101 Firefox/107.0","","Firefox","107.0","Windows","10.0","402","n","","spoon.jpg","2","Filler","true",""
"","","","","","fixation","15496","html-keyboard-response","107","88146","0.0-6.0-0.18","118","2","2022-11-17 12:39:16","fd252370c17a9971d68c1d4354a03c2e","","Mozilla/5.0 (Windows NT 10.0; Win64; x64; rv:107.0) Gecko/20100101 Firefox/107.0","","Firefox","107.0","Windows","10.0","null","null","","<p style=""font-size: 48px;"">+</p>","2","Light_Contradictory","",""
"","","","","","sentence","15496","html-keyboard-response","108","88800","0.0-6.0-1.18","118","2","2022-11-17 12:39:16","fd252370c17a9971d68c1d4354a03c2e","","Mozilla/5.0 (Windows NT 10.0; Win64; x64; rv:107.0) Gecko/20100101 Firefox/107.0","","Firefox","107.0","Windows","10.0","646"," ","","A balloon dropped and smashed a piece of cake","2","Light_Contradictory","",""
"","","","","","fixation","15496","html-keyboard-response","109","89311","0.0-6.0-2.18","118","2","2022-11-17 12:39:16","fd252370c17a9971d68c1d4354a03c2e","","Mozilla/5.0 (Windows NT 10.0; Win64; x64; rv:107.0) Gecko/20100101 Firefox/107.0","","Firefox","107.0","Windows","10.0","null","null","","<p style=""font-size: 48px;"">+</p>","2","Light_Contradictory","",""
"","","","","","picture","15496","image-keyboard-response","110","89628","0.0-6.0-3.18","118","2","2022-11-17 12:39:16","fd252370c17a9971d68c1d4354a03c2e","","Mozilla/5.0 (Windows NT 10.0; Win64; x64; rv:107.0) Gecko/20100101 Firefox/107.0","","Firefox","107.0","Windows","10.0","303","s","","cakeS.jpg","2","Light_Contradictory","true",""
"","","","","","fixation","15496","html-keyboard-response","111","90648","0.0-6.0-0.19","118","2","2022-11-17 12:39:16","fd252370c17a9971d68c1d4354a03c2e","","Mozilla/5.0 (Windows NT 10.0; Win64; x64; rv:107.0) Gecko/20100101 Firefox/107.0","","Firefox","107.0","Windows","10.0","null","null","","<p style=""font-size: 48px;"">+</p>","2","Filler","",""
"","","","","","sentence","15496","html-keyboard-response","112","92425","0.0-6.0-1.19","118","2","2022-11-17 12:39:16","fd252370c17a9971d68c1d4354a03c2e","","Mozilla/5.0 (Windows NT 10.0; Win64; x64; rv:107.0) Gecko/20100101 Firefox/107.0","","Firefox","107.0","Windows","10.0","1771"," ","","A thermometer was placed on the box","2","Filler","",""
"","","","","","fixation","15496","html-keyboard-response","113","92937","0.0-6.0-2.19","118","2","2022-11-17 12:39:16","fd252370c17a9971d68c1d4354a03c2e","","Mozilla/5.0 (Windows NT 10.0; Win64; x64; rv:107.0) Gecko/20100101 Firefox/107.0","","Firefox","107.0","Windows","10.0","null","null","","<p style=""font-size: 48px;"">+</p>","2","Filler","",""
"","","","","","picture","15496","image-keyboard-response","114","93494","0.0-6.0-3.19","118","2","2022-11-17 12:39:16","fd252370c17a9971d68c1d4354a03c2e","","Mozilla/5.0 (Windows NT 10.0; Win64; x64; rv:107.0) Gecko/20100101 Firefox/107.0","","Firefox","107.0","Windows","10.0","543","n","","button.jpg","2","Filler","true",""
"","","","","","fixation","15496","html-keyboard-response","115","94508","0.0-6.0-0.20","118","2","2022-11-17 12:39:16","fd252370c17a9971d68c1d4354a03c2e","","Mozilla/5.0 (Windows NT 10.0; Win64; x64; rv:107.0) Gecko/20100101 Firefox/107.0","","Firefox","107.0","Windows","10.0","null","null","","<p style=""font-size: 48px;"">+</p>","2","Filler","",""
"","","","","","sentence","15496","html-keyboard-response","116","95770","0.0-6.0-1.20","118","2","2022-11-17 12:39:16","fd252370c17a9971d68c1d4354a03c2e","","Mozilla/5.0 (Windows NT 10.0; Win64; x64; rv:107.0) Gecko/20100101 Firefox/107.0","","Firefox","107.0","Windows","10.0","1256"," ","","A police officer is talking on the phone","2","Filler","",""
"","","","","","fixation","15496","html-keyboard-response","117","96285","0.0-6.0-2.20","118","2","2022-11-17 12:39:16","fd252370c17a9971d68c1d4354a03c2e","","Mozilla/5.0 (Windows NT 10.0; Win64; x64; rv:107.0) Gecko/20100101 Firefox/107.0","","Firefox","107.0","Windows","10.0","null","null","","<p style=""font-size: 48px;"">+</p>","2","Filler","",""
"","","","","","picture","15496","image-keyboard-response","118","96975","0.0-6.0-3.20","118","2","2022-11-17 12:39:16","fd252370c17a9971d68c1d4354a03c2e","","Mozilla/5.0 (Windows NT 10.0; Win64; x64; rv:107.0) Gecko/20100101 Firefox/107.0","","Firefox","107.0","Windows","10.0","685","n","","tissuebox.jpg","2","Filler","true",""
"","","","","","fixation","15496","html-keyboard-response","119","97995","0.0-6.0-0.21","118","2","2022-11-17 12:39:16","fd252370c17a9971d68c1d4354a03c2e","","Mozilla/5.0 (Windows NT 10.0; Win64; x64; rv:107.0) Gecko/20100101 Firefox/107.0","","Firefox","107.0","Windows","10.0","null","null","","<p style=""font-size: 48px;"">+</p>","2","Filler","",""
"","","","","","sentence","15496","html-keyboard-response","120","98642","0.0-6.0-1.21","118","2","2022-11-17 12:39:16","fd252370c17a9971d68c1d4354a03c2e","","Mozilla/5.0 (Windows NT 10.0; Win64; x64; rv:107.0) Gecko/20100101 Firefox/107.0","","Firefox","107.0","Windows","10.0","638"," ","","A man is boiling potatoes.","2","Filler","",""
"","","","","","fixation","15496","html-keyboard-response","121","99162","0.0-6.0-2.21","118","2","2022-11-17 12:39:16","fd252370c17a9971d68c1d4354a03c2e","","Mozilla/5.0 (Windows NT 10.0; Win64; x64; rv:107.0) Gecko/20100101 Firefox/107.0","","Firefox","107.0","Windows","10.0","null","null","","<p style=""font-size: 48px;"">+</p>","2","Filler","",""
"","","","","","picture","15496","image-keyboard-response","122","99505","0.0-6.0-3.21","118","2","2022-11-17 12:39:16","fd252370c17a9971d68c1d4354a03c2e","","Mozilla/5.0 (Windows NT 10.0; Win64; x64; rv:107.0) Gecko/20100101 Firefox/107.0","","Firefox","107.0","Windows","10.0","339","n","","cup.jpg","2","Filler","true",""
"","","","","","fixation","15496","html-keyboard-response","123","100525","0.0-6.0-0.22","118","2","2022-11-17 12:39:16","fd252370c17a9971d68c1d4354a03c2e","","Mozilla/5.0 (Windows NT 10.0; Win64; x64; rv:107.0) Gecko/20100101 Firefox/107.0","","Firefox","107.0","Windows","10.0","null","null","","<p style=""font-size: 48px;"">+</p>","2","Filler","",""
"","","","","","sentence","15496","html-keyboard-response","124","101031","0.0-6.0-1.22","118","2","2022-11-17 12:39:16","fd252370c17a9971d68c1d4354a03c2e","","Mozilla/5.0 (Windows NT 10.0; Win64; x64; rv:107.0) Gecko/20100101 Firefox/107.0","","Firefox","107.0","Windows","10.0","499"," ","","A remote was placed on the rug","2","Filler","",""
"","","","","","fixation","15496","html-keyboard-response","125","101540","0.0-6.0-2.22","118","2","2022-11-17 12:39:16","fd252370c17a9971d68c1d4354a03c2e","","Mozilla/5.0 (Windows NT 10.0; Win64; x64; rv:107.0) Gecko/20100101 Firefox/107.0","","Firefox","107.0","Windows","10.0","null","null","","<p style=""font-size: 48px;"">+</p>","2","Filler","",""
"","","","","","picture","15496","image-keyboard-response","126","101984","0.0-6.0-3.22","118","2","2022-11-17 12:39:16","fd252370c17a9971d68c1d4354a03c2e","","Mozilla/5.0 (Windows NT 10.0; Win64; x64; rv:107.0) Gecko/20100101 Firefox/107.0","","Firefox","107.0","Windows","10.0","436","n","","CD.jpg","2","Filler","true",""
"","","","","","fixation","15496","html-keyboard-response","127","102989","0.0-6.0-0.23","118","2","2022-11-17 12:39:16","fd252370c17a9971d68c1d4354a03c2e","","Mozilla/5.0 (Windows NT 10.0; Win64; x64; rv:107.0) Gecko/20100101 Firefox/107.0","","Firefox","107.0","Windows","10.0","null","null","","<p style=""font-size: 48px;"">+</p>","2","Heavy_Matched","",""
"","","","","","sentence","15496","html-keyboard-response","128","103720","0.0-6.0-1.23","118","2","2022-11-17 12:39:16","fd252370c17a9971d68c1d4354a03c2e","","Mozilla/5.0 (Windows NT 10.0; Win64; x64; rv:107.0) Gecko/20100101 Firefox/107.0","","Firefox","107.0","Windows","10.0","725"," ","","A bowling ball dropped and smashed glasses","2","Heavy_Matched","",""
"","","","","","fixation","15496","html-keyboard-response","129","104226","0.0-6.0-2.23","118","2","2022-11-17 12:39:16","fd252370c17a9971d68c1d4354a03c2e","","Mozilla/5.0 (Windows NT 10.0; Win64; x64; rv:107.0) Gecko/20100101 Firefox/107.0","","Firefox","107.0","Windows","10.0","null","null","","<p style=""font-size: 48px;"">+</p>","2","Heavy_Matched","",""
"","","","","","picture","15496","image-keyboard-response","130","104562","0.0-6.0-3.23","118","2","2022-11-17 12:39:16","fd252370c17a9971d68c1d4354a03c2e","","Mozilla/5.0 (Windows NT 10.0; Win64; x64; rv:107.0) Gecko/20100101 Firefox/107.0","","Firefox","107.0","Windows","10.0","324","s","","glassesS.jpg","2","Heavy_Matched","true",""
"","","","","","fixation","15496","html-keyboard-response","131","105580","0.0-6.0-0.24","118","2","2022-11-17 12:39:16","fd252370c17a9971d68c1d4354a03c2e","","Mozilla/5.0 (Windows NT 10.0; Win64; x64; rv:107.0) Gecko/20100101 Firefox/107.0","","Firefox","107.0","Windows","10.0","null","null","","<p style=""font-size: 48px;"">+</p>","2","Filler","",""
"","","","","","sentence","15496","html-keyboard-response","132","106211","0.0-6.0-1.24","118","2","2022-11-17 12:39:16","fd252370c17a9971d68c1d4354a03c2e","","Mozilla/5.0 (Windows NT 10.0; Win64; x64; rv:107.0) Gecko/20100101 Firefox/107.0","","Firefox","107.0","Windows","10.0","623"," ","","A watch was placed on the laptop","2","Filler","",""
"","","","","","fixation","15496","html-keyboard-response","133","106734","0.0-6.0-2.24","118","2","2022-11-17 12:39:16","fd252370c17a9971d68c1d4354a03c2e","","Mozilla/5.0 (Windows NT 10.0; Win64; x64; rv:107.0) Gecko/20100101 Firefox/107.0","","Firefox","107.0","Windows","10.0","null","null","","<p style=""font-size: 48px;"">+</p>","2","Filler","",""
"","","","","","picture","15496","image-keyboard-response","134","107336","0.0-6.0-3.24","118","2","2022-11-17 12:39:16","fd252370c17a9971d68c1d4354a03c2e","","Mozilla/5.0 (Windows NT 10.0; Win64; x64; rv:107.0) Gecko/20100101 Firefox/107.0","","Firefox","107.0","Windows","10.0","587","n","","bow.jpg","2","Filler","true",""
"","","","","","fixation","15496","html-keyboard-response","135","108354","0.0-6.0-0.25","118","2","2022-11-17 12:39:16","fd252370c17a9971d68c1d4354a03c2e","","Mozilla/5.0 (Windows NT 10.0; Win64; x64; rv:107.0) Gecko/20100101 Firefox/107.0","","Firefox","107.0","Windows","10.0","null","null","","<p style=""font-size: 48px;"">+</p>","2","Filler","",""
"","","","","","sentence","15496","html-keyboard-response","136","109167","0.0-6.0-1.25","118","2","2022-11-17 12:39:16","fd252370c17a9971d68c1d4354a03c2e","","Mozilla/5.0 (Windows NT 10.0; Win64; x64; rv:107.0) Gecko/20100101 Firefox/107.0","","Firefox","107.0","Windows","10.0","809"," ","","A puppy is playing with a ball","2","Filler","",""
"","","","","","fixation","15496","html-keyboard-response","137","109680","0.0-6.0-2.25","118","2","2022-11-17 12:39:16","fd252370c17a9971d68c1d4354a03c2e","","Mozilla/5.0 (Windows NT 10.0; Win64; x64; rv:107.0) Gecko/20100101 Firefox/107.0","","Firefox","107.0","Windows","10.0","null","null","","<p style=""font-size: 48px;"">+</p>","2","Filler","",""
"","","","","","picture","15496","image-keyboard-response","138","110325","0.0-6.0-3.25","118","2","2022-11-17 12:39:16","fd252370c17a9971d68c1d4354a03c2e","","Mozilla/5.0 (Windows NT 10.0; Win64; x64; rv:107.0) Gecko/20100101 Firefox/107.0","","Firefox","107.0","Windows","10.0","637","s","","tennisball.jpg","2","Filler","true",""
"","","","","","fixation","15496","html-keyboard-response","139","111332","0.0-6.0-0.26","118","2","2022-11-17 12:39:16","fd252370c17a9971d68c1d4354a03c2e","","Mozilla/5.0 (Windows NT 10.0; Win64; x64; rv:107.0) Gecko/20100101 Firefox/107.0","","Firefox","107.0","Windows","10.0","null","null","","<p style=""font-size: 48px;"">+</p>","2","Filler","",""
"","","","","","sentence","15496","html-keyboard-response","140","111910","0.0-6.0-1.26","118","2","2022-11-17 12:39:16","fd252370c17a9971d68c1d4354a03c2e","","Mozilla/5.0 (Windows NT 10.0; Win64; x64; rv:107.0) Gecko/20100101 Firefox/107.0","","Firefox","107.0","Windows","10.0","570"," ","","A boy is wearing a hat","2","Filler","",""
"","","","","","fixation","15496","html-keyboard-response","141","112420","0.0-6.0-2.26","118","2","2022-11-17 12:39:16","fd252370c17a9971d68c1d4354a03c2e","","Mozilla/5.0 (Windows NT 10.0; Win64; x64; rv:107.0) Gecko/20100101 Firefox/107.0","","Firefox","107.0","Windows","10.0","null","null","","<p style=""font-size: 48px;"">+</p>","2","Filler","",""
"","","","","","picture","15496","image-keyboard-response","142","112992","0.0-6.0-3.26","118","2","2022-11-17 12:39:16","fd252370c17a9971d68c1d4354a03c2e","","Mozilla/5.0 (Windows NT 10.0; Win64; x64; rv:107.0) Gecko/20100101 Firefox/107.0","","Firefox","107.0","Windows","10.0","556","s","","hat.jpg","2","Filler","true",""
"","","","","","fixation","15496","html-keyboard-response","143","114005","0.0-6.0-0.27","118","2","2022-11-17 12:39:16","fd252370c17a9971d68c1d4354a03c2e","","Mozilla/5.0 (Windows NT 10.0; Win64; x64; rv:107.0) Gecko/20100101 Firefox/107.0","","Firefox","107.0","Windows","10.0","null","null","","<p style=""font-size: 48px;"">+</p>","2","Filler","",""
"","","","","","sentence","15496","html-keyboard-response","144","114493","0.0-6.0-1.27","118","2","2022-11-17 12:39:16","fd252370c17a9971d68c1d4354a03c2e","","Mozilla/5.0 (Windows NT 10.0; Win64; x64; rv:107.0) Gecko/20100101 Firefox/107.0","","Firefox","107.0","Windows","10.0","482"," ","","A panda is resting on a tree","2","Filler","",""
"","","","","","fixation","15496","html-keyboard-response","145","115014","0.0-6.0-2.27","118","2","2022-11-17 12:39:16","fd252370c17a9971d68c1d4354a03c2e","","Mozilla/5.0 (Windows NT 10.0; Win64; x64; rv:107.0) Gecko/20100101 Firefox/107.0","","Firefox","107.0","Windows","10.0","null","null","","<p style=""font-size: 48px;"">+</p>","2","Filler","",""
"","","","","","picture","15496","image-keyboard-response","146","115678","0.0-6.0-3.27","118","2","2022-11-17 12:39:16","fd252370c17a9971d68c1d4354a03c2e","","Mozilla/5.0 (Windows NT 10.0; Win64; x64; rv:107.0) Gecko/20100101 Firefox/107.0","","Firefox","107.0","Windows","10.0","649","n","","dollar.jpg","2","Filler","true",""
"","","","","","fixation","15496","html-keyboard-response","147","116694","0.0-6.0-0.28","118","2","2022-11-17 12:39:16","fd252370c17a9971d68c1d4354a03c2e","","Mozilla/5.0 (Windows NT 10.0; Win64; x64; rv:107.0) Gecko/20100101 Firefox/107.0","","Firefox","107.0","Windows","10.0","null","null","","<p style=""font-size: 48px;"">+</p>","2","Heavy_Contradictory","",""
"","","","","","sentence","15496","html-keyboard-response","148","118724","0.0-6.0-1.28","118","2","2022-11-17 12:39:16","fd252370c17a9971d68c1d4354a03c2e","","Mozilla/5.0 (Windows NT 10.0; Win64; x64; rv:107.0) Gecko/20100101 Firefox/107.0","","Firefox","107.0","Windows","10.0","2025"," ","","A bowling ball dropped and touched an iPhone","2","Heavy_Contradictory","",""
"","","","","","fixation","15496","html-keyboard-response","149","119241","0.0-6.0-2.28","118","2","2022-11-17 12:39:16","fd252370c17a9971d68c1d4354a03c2e","","Mozilla/5.0 (Windows NT 10.0; Win64; x64; rv:107.0) Gecko/20100101 Firefox/107.0","","Firefox","107.0","Windows","10.0","null","null","","<p style=""font-size: 48px;"">+</p>","2","Heavy_Contradictory","",""
"","","","","","picture","15496","image-keyboard-response","150","119482","0.0-6.0-3.28","118","2","2022-11-17 12:39:16","fd252370c17a9971d68c1d4354a03c2e","","Mozilla/5.0 (Windows NT 10.0; Win64; x64; rv:107.0) Gecko/20100101 Firefox/107.0","","Firefox","107.0","Windows","10.0","232","s","","iphoneS.png","2","Heavy_Contradictory","true",""
"","","","","","fixation","15496","html-keyboard-response","151","120502","0.0-6.0-0.29","118","2","2022-11-17 12:39:16","fd252370c17a9971d68c1d4354a03c2e","","Mozilla/5.0 (Windows NT 10.0; Win64; x64; rv:107.0) Gecko/20100101 Firefox/107.0","","Firefox","107.0","Windows","10.0","null","null","","<p style=""font-size: 48px;"">+</p>","2","Filler","",""
"","","","","","sentence","15496","html-keyboard-response","152","120915","0.0-6.0-1.29","118","2","2022-11-17 12:39:16","fd252370c17a9971d68c1d4354a03c2e","","Mozilla/5.0 (Windows NT 10.0; Win64; x64; rv:107.0) Gecko/20100101 Firefox/107.0","","Firefox","107.0","Windows","10.0","404"," ","","A towel was placed on the TV","2","Filler","",""
"","","","","","fixation","15496","html-keyboard-response","153","121425","0.0-6.0-2.29","118","2","2022-11-17 12:39:16","fd252370c17a9971d68c1d4354a03c2e","","Mozilla/5.0 (Windows NT 10.0; Win64; x64; rv:107.0) Gecko/20100101 Firefox/107.0","","Firefox","107.0","Windows","10.0","null","null","","<p style=""font-size: 48px;"">+</p>","2","Filler","",""
"","","","","","picture","15496","image-keyboard-response","154","121976","0.0-6.0-3.29","118","2","2022-11-17 12:39:16","fd252370c17a9971d68c1d4354a03c2e","","Mozilla/5.0 (Windows NT 10.0; Win64; x64; rv:107.0) Gecko/20100101 Firefox/107.0","","Firefox","107.0","Windows","10.0","536","n","","pencil.jpg","2","Filler","true",""
"","","","","","fixation","15496","html-keyboard-response","155","122996","0.0-6.0-0.30","118","2","2022-11-17 12:39:16","fd252370c17a9971d68c1d4354a03c2e","","Mozilla/5.0 (Windows NT 10.0; Win64; x64; rv:107.0) Gecko/20100101 Firefox/107.0","","Firefox","107.0","Windows","10.0","null","null","","<p style=""font-size: 48px;"">+</p>","2","Filler","",""
"","","","","","sentence","15496","html-keyboard-response","156","123548","0.0-6.0-1.30","118","2","2022-11-17 12:39:16","fd252370c17a9971d68c1d4354a03c2e","","Mozilla/5.0 (Windows NT 10.0; Win64; x64; rv:107.0) Gecko/20100101 Firefox/107.0","","Firefox","107.0","Windows","10.0","545"," ","","A zebra is playing with a horse","2","Filler","",""
"","","","","","fixation","15496","html-keyboard-response","157","124056","0.0-6.0-2.30","118","2","2022-11-17 12:39:16","fd252370c17a9971d68c1d4354a03c2e","","Mozilla/5.0 (Windows NT 10.0; Win64; x64; rv:107.0) Gecko/20100101 Firefox/107.0","","Firefox","107.0","Windows","10.0","null","null","","<p style=""font-size: 48px;"">+</p>","2","Filler","",""
"","","","","","picture","15496","image-keyboard-response","158","124453","0.0-6.0-3.30","118","2","2022-11-17 12:39:16","fd252370c17a9971d68c1d4354a03c2e","","Mozilla/5.0 (Windows NT 10.0; Win64; x64; rv:107.0) Gecko/20100101 Firefox/107.0","","Firefox","107.0","Windows","10.0","382","n","","watch.jpg","2","Filler","true",""
"","","","","","fixation","15496","html-keyboard-response","159","125475","0.0-6.0-0.31","118","2","2022-11-17 12:39:16","fd252370c17a9971d68c1d4354a03c2e","","Mozilla/5.0 (Windows NT 10.0; Win64; x64; rv:107.0) Gecko/20100101 Firefox/107.0","","Firefox","107.0","Windows","10.0","null","null","","<p style=""font-size: 48px;"">+</p>","2","Filler","",""
"","","","","","sentence","15496","html-keyboard-response","160","126051","0.0-6.0-1.31","118","2","2022-11-17 12:39:16","fd252370c17a9971d68c1d4354a03c2e","","Mozilla/5.0 (Windows NT 10.0; Win64; x64; rv:107.0) Gecko/20100101 Firefox/107.0","","Firefox","107.0","Windows","10.0","571"," ","","A fork was placed on the plate","2","Filler","",""
"","","","","","fixation","15496","html-keyboard-response","161","126561","0.0-6.0-2.31","118","2","2022-11-17 12:39:16","fd252370c17a9971d68c1d4354a03c2e","","Mozilla/5.0 (Windows NT 10.0; Win64; x64; rv:107.0) Gecko/20100101 Firefox/107.0","","Firefox","107.0","Windows","10.0","null","null","","<p style=""font-size: 48px;"">+</p>","2","Filler","",""
"","","","","","picture","15496","image-keyboard-response","162","126828","0.0-6.0-3.31","118","2","2022-11-17 12:39:16","fd252370c17a9971d68c1d4354a03c2e","","Mozilla/5.0 (Windows NT 10.0; Win64; x64; rv:107.0) Gecko/20100101 Firefox/107.0","","Firefox","107.0","Windows","10.0","253","s","","plate.jpg","2","Filler","true",""
"","","","","","fixation","15496","html-keyboard-response","163","127849","0.0-6.0-0.32","118","2","2022-11-17 12:39:16","fd252370c17a9971d68c1d4354a03c2e","","Mozilla/5.0 (Windows NT 10.0; Win64; x64; rv:107.0) Gecko/20100101 Firefox/107.0","","Firefox","107.0","Windows","10.0","null","null","","<p style=""font-size: 48px;"">+</p>","2","Filler","",""
"","","","","","sentence","15496","html-keyboard-response","164","128458","0.0-6.0-1.32","118","2","2022-11-17 12:39:16","fd252370c17a9971d68c1d4354a03c2e","","Mozilla/5.0 (Windows NT 10.0; Win64; x64; rv:107.0) Gecko/20100101 Firefox/107.0","","Firefox","107.0","Windows","10.0","594"," ","","A needle was placed on the mouse pad","2","Filler","",""
"","","","","","fixation","15496","html-keyboard-response","165","128988","0.0-6.0-2.32","118","2","2022-11-17 12:39:16","fd252370c17a9971d68c1d4354a03c2e","","Mozilla/5.0 (Windows NT 10.0; Win64; x64; rv:107.0) Gecko/20100101 Firefox/107.0","","Firefox","107.0","Windows","10.0","null","null","","<p style=""font-size: 48px;"">+</p>","2","Filler","",""
"","","","","","picture","15496","image-keyboard-response","166","129411","0.0-6.0-3.32","118","2","2022-11-17 12:39:16","fd252370c17a9971d68c1d4354a03c2e","","Mozilla/5.0 (Windows NT 10.0; Win64; x64; rv:107.0) Gecko/20100101 Firefox/107.0","","Firefox","107.0","Windows","10.0","408","n","","chocolate.jpg","2","Filler","true",""
"","","","","","fixation","15496","html-keyboard-response","167","130419","0.0-6.0-0.33","118","2","2022-11-17 12:39:16","fd252370c17a9971d68c1d4354a03c2e","","Mozilla/5.0 (Windows NT 10.0; Win64; x64; rv:107.0) Gecko/20100101 Firefox/107.0","","Firefox","107.0","Windows","10.0","null","null","","<p style=""font-size: 48px;"">+</p>","2","Light_Matched","",""
"","","","","","sentence","15496","html-keyboard-response","168","130846","0.0-6.0-1.33","118","2","2022-11-17 12:39:16","fd252370c17a9971d68c1d4354a03c2e","","Mozilla/5.0 (Windows NT 10.0; Win64; x64; rv:107.0) Gecko/20100101 Firefox/107.0","","Firefox","107.0","Windows","10.0","418"," ","","A balloon dropped and touched a strawberry","2","Light_Matched","",""
"","","","","","fixation","15496","html-keyboard-response","169","131360","0.0-6.0-2.33","118","2","2022-11-17 12:39:16","fd252370c17a9971d68c1d4354a03c2e","","Mozilla/5.0 (Windows NT 10.0; Win64; x64; rv:107.0) Gecko/20100101 Firefox/107.0","","Firefox","107.0","Windows","10.0","null","null","","<p style=""font-size: 48px;"">+</p>","2","Light_Matched","",""
"","","","","","picture","15496","image-keyboard-response","170","131620","0.0-6.0-3.33","118","2","2022-11-17 12:39:16","fd252370c17a9971d68c1d4354a03c2e","","Mozilla/5.0 (Windows NT 10.0; Win64; x64; rv:107.0) Gecko/20100101 Firefox/107.0","","Firefox","107.0","Windows","10.0","248","s","","strawberryS.jpg","2","Light_Matched","true",""
"","","","","","fixation","15496","html-keyboard-response","171","132638","0.0-6.0-0.34","118","2","2022-11-17 12:39:16","fd252370c17a9971d68c1d4354a03c2e","","Mozilla/5.0 (Windows NT 10.0; Win64; x64; rv:107.0) Gecko/20100101 Firefox/107.0","","Firefox","107.0","Windows","10.0","null","null","","<p style=""font-size: 48px;"">+</p>","2","Filler","",""
"","","","","","sentence","15496","html-keyboard-response","172","133038","0.0-6.0-1.34","118","2","2022-11-17 12:39:16","fd252370c17a9971d68c1d4354a03c2e","","Mozilla/5.0 (Windows NT 10.0; Win64; x64; rv:107.0) Gecko/20100101 Firefox/107.0","","Firefox","107.0","Windows","10.0","392"," ","","A hairdresser is taking scissors","2","Filler","",""
"","","","","","fixation","15496","html-keyboard-response","173","133553","0.0-6.0-2.34","118","2","2022-11-17 12:39:16","fd252370c17a9971d68c1d4354a03c2e","","Mozilla/5.0 (Windows NT 10.0; Win64; x64; rv:107.0) Gecko/20100101 Firefox/107.0","","Firefox","107.0","Windows","10.0","null","null","","<p style=""font-size: 48px;"">+</p>","2","Filler","",""
"","","","","","picture","15496","image-keyboard-response","174","134070","0.0-6.0-3.34","118","2","2022-11-17 12:39:16","fd252370c17a9971d68c1d4354a03c2e","","Mozilla/5.0 (Windows NT 10.0; Win64; x64; rv:107.0) Gecko/20100101 Firefox/107.0","","Firefox","107.0","Windows","10.0","503","n","","sock.jpg","2","Filler","true",""
"","","","","","fixation","15496","html-keyboard-response","175","135091","0.0-6.0-0.35","118","2","2022-11-17 12:39:16","fd252370c17a9971d68c1d4354a03c2e","","Mozilla/5.0 (Windows NT 10.0; Win64; x64; rv:107.0) Gecko/20100101 Firefox/107.0","","Firefox","107.0","Windows","10.0","null","null","","<p style=""font-size: 48px;"">+</p>","2","Filler","",""
"","","","","","sentence","15496","html-keyboard-response","176","135477","0.0-6.0-1.35","118","2","2022-11-17 12:39:16","fd252370c17a9971d68c1d4354a03c2e","","Mozilla/5.0 (Windows NT 10.0; Win64; x64; rv:107.0) Gecko/20100101 Firefox/107.0","","Firefox","107.0","Windows","10.0","380"," ","","A thief is stealing a wallet","2","Filler","",""
"","","","","","fixation","15496","html-keyboard-response","177","135990","0.0-6.0-2.35","118","2","2022-11-17 12:39:16","fd252370c17a9971d68c1d4354a03c2e","","Mozilla/5.0 (Windows NT 10.0; Win64; x64; rv:107.0) Gecko/20100101 Firefox/107.0","","Firefox","107.0","Windows","10.0","null","null","","<p style=""font-size: 48px;"">+</p>","2","Filler","",""
"","","","","","picture","15496","image-keyboard-response","178","136374","0.0-6.0-3.35","118","2","2022-11-17 12:39:16","fd252370c17a9971d68c1d4354a03c2e","","Mozilla/5.0 (Windows NT 10.0; Win64; x64; rv:107.0) Gecko/20100101 Firefox/107.0","","Firefox","107.0","Windows","10.0","371","n","","teddybear.jpg","2","Filler","true",""
"","","","","","fixation","15496","html-keyboard-response","179","137392","0.0-6.0-0.36","118","2","2022-11-17 12:39:16","fd252370c17a9971d68c1d4354a03c2e","","Mozilla/5.0 (Windows NT 10.0; Win64; x64; rv:107.0) Gecko/20100101 Firefox/107.0","","Firefox","107.0","Windows","10.0","null","null","","<p style=""font-size: 48px;"">+</p>","2","Filler","",""
"","","","","","sentence","15496","html-keyboard-response","180","137824","0.0-6.0-1.36","118","2","2022-11-17 12:39:16","fd252370c17a9971d68c1d4354a03c2e","","Mozilla/5.0 (Windows NT 10.0; Win64; x64; rv:107.0) Gecko/20100101 Firefox/107.0","","Firefox","107.0","Windows","10.0","424"," ","","A toothbrush was placed on the sponge","2","Filler","",""
"","","","","","fixation","15496","html-keyboard-response","181","138345","0.0-6.0-2.36","118","2","2022-11-17 12:39:16","fd252370c17a9971d68c1d4354a03c2e","","Mozilla/5.0 (Windows NT 10.0; Win64; x64; rv:107.0) Gecko/20100101 Firefox/107.0","","Firefox","107.0","Windows","10.0","null","null","","<p style=""font-size: 48px;"">+</p>","2","Filler","",""
"","","","","","picture","15496","image-keyboard-response","182","138937","0.0-6.0-3.36","118","2","2022-11-17 12:39:16","fd252370c17a9971d68c1d4354a03c2e","","Mozilla/5.0 (Windows NT 10.0; Win64; x64; rv:107.0) Gecko/20100101 Firefox/107.0","","Firefox","107.0","Windows","10.0","576","s","","sponge.jpg","2","Filler","true",""
"","","","","","fixation","15496","html-keyboard-response","183","139942","0.0-6.0-0.37","118","2","2022-11-17 12:39:16","fd252370c17a9971d68c1d4354a03c2e","","Mozilla/5.0 (Windows NT 10.0; Win64; x64; rv:107.0) Gecko/20100101 Firefox/107.0","","Firefox","107.0","Windows","10.0","null","null","","<p style=""font-size: 48px;"">+</p>","2","Heavy_Matched","",""
"","","","","","sentence","15496","html-keyboard-response","184","140296","0.0-6.0-1.37","118","2","2022-11-17 12:39:16","fd252370c17a9971d68c1d4354a03c2e","","Mozilla/5.0 (Windows NT 10.0; Win64; x64; rv:107.0) Gecko/20100101 Firefox/107.0","","Firefox","107.0","Windows","10.0","342"," ","","A bowling ball dropped and smashed an iPAD","2","Heavy_Matched","",""
"","","","","","fixation","15496","html-keyboard-response","185","140815","0.0-6.0-2.37","118","2","2022-11-17 12:39:16","fd252370c17a9971d68c1d4354a03c2e","","Mozilla/5.0 (Windows NT 10.0; Win64; x64; rv:107.0) Gecko/20100101 Firefox/107.0","","Firefox","107.0","Windows","10.0","null","null","","<p style=""font-size: 48px;"">+</p>","2","Heavy_Matched","",""
"","","","","","picture","15496","image-keyboard-response","186","141068","0.0-6.0-3.37","118","2","2022-11-17 12:39:16","fd252370c17a9971d68c1d4354a03c2e","","Mozilla/5.0 (Windows NT 10.0; Win64; x64; rv:107.0) Gecko/20100101 Firefox/107.0","","Firefox","107.0","Windows","10.0","245","s","","iPadS.jpg","2","Heavy_Matched","true",""
"","","","","","fixation","15496","html-keyboard-response","187","142088","0.0-6.0-0.38","118","2","2022-11-17 12:39:16","fd252370c17a9971d68c1d4354a03c2e","","Mozilla/5.0 (Windows NT 10.0; Win64; x64; rv:107.0) Gecko/20100101 Firefox/107.0","","Firefox","107.0","Windows","10.0","null","null","","<p style=""font-size: 48px;"">+</p>","2","Filler","",""
"","","","","","sentence","15496","html-keyboard-response","188","142620","0.0-6.0-1.38","118","2","2022-11-17 12:39:16","fd252370c17a9971d68c1d4354a03c2e","","Mozilla/5.0 (Windows NT 10.0; Win64; x64; rv:107.0) Gecko/20100101 Firefox/107.0","","Firefox","107.0","Windows","10.0","526"," ","","An actress is taking a microphone","2","Filler","",""
"","","","","","fixation","15496","html-keyboard-response","189","143147","0.0-6.0-2.38","118","2","2022-11-17 12:39:16","fd252370c17a9971d68c1d4354a03c2e","","Mozilla/5.0 (Windows NT 10.0; Win64; x64; rv:107.0) Gecko/20100101 Firefox/107.0","","Firefox","107.0","Windows","10.0","null","null","","<p style=""font-size: 48px;"">+</p>","2","Filler","",""
"","","","","","picture","15496","image-keyboard-response","190","143624","0.0-6.0-3.38","118","2","2022-11-17 12:39:16","fd252370c17a9971d68c1d4354a03c2e","","Mozilla/5.0 (Windows NT 10.0; Win64; x64; rv:107.0) Gecko/20100101 Firefox/107.0","","Firefox","107.0","Windows","10.0","461","n","","pants.jpg","2","Filler","true",""
"","","","","","fixation","15496","html-keyboard-response","191","144639","0.0-6.0-0.39","118","2","2022-11-17 12:39:16","fd252370c17a9971d68c1d4354a03c2e","","Mozilla/5.0 (Windows NT 10.0; Win64; x64; rv:107.0) Gecko/20100101 Firefox/107.0","","Firefox","107.0","Windows","10.0","null","null","","<p style=""font-size: 48px;"">+</p>","2","Filler","",""
"","","","","","sentence","15496","html-keyboard-response","192","145051","0.0-6.0-1.39","118","2","2022-11-17 12:39:16","fd252370c17a9971d68c1d4354a03c2e","","Mozilla/5.0 (Windows NT 10.0; Win64; x64; rv:107.0) Gecko/20100101 Firefox/107.0","","Firefox","107.0","Windows","10.0","408"," ","","A musician is playing a guitar","2","Filler","",""
"","","","","","fixation","15496","html-keyboard-response","193","145562","0.0-6.0-2.39","118","2","2022-11-17 12:39:16","fd252370c17a9971d68c1d4354a03c2e","","Mozilla/5.0 (Windows NT 10.0; Win64; x64; rv:107.0) Gecko/20100101 Firefox/107.0","","Firefox","107.0","Windows","10.0","null","null","","<p style=""font-size: 48px;"">+</p>","2","Filler","",""
"","","","","","picture","15496","image-keyboard-response","194","145810","0.0-6.0-3.39","118","2","2022-11-17 12:39:16","fd252370c17a9971d68c1d4354a03c2e","","Mozilla/5.0 (Windows NT 10.0; Win64; x64; rv:107.0) Gecko/20100101 Firefox/107.0","","Firefox","107.0","Windows","10.0","234","s","","guitar.jpg","2","Filler","true",""
"","","","","","fixation","15496","html-keyboard-response","195","146833","0.0-6.0-0.40","118","2","2022-11-17 12:39:16","fd252370c17a9971d68c1d4354a03c2e","","Mozilla/5.0 (Windows NT 10.0; Win64; x64; rv:107.0) Gecko/20100101 Firefox/107.0","","Firefox","107.0","Windows","10.0","null","null","","<p style=""font-size: 48px;"">+</p>","2","Filler","",""
"","","","","","sentence","15496","html-keyboard-response","196","147125","0.0-6.0-1.40","118","2","2022-11-17 12:39:16","fd252370c17a9971d68c1d4354a03c2e","","Mozilla/5.0 (Windows NT 10.0; Win64; x64; rv:107.0) Gecko/20100101 Firefox/107.0","","Firefox","107.0","Windows","10.0","283"," ","","A cabbage was placed on the table","2","Filler","",""
"","","","","","fixation","15496","html-keyboard-response","197","147630","0.0-6.0-2.40","118","2","2022-11-17 12:39:16","fd252370c17a9971d68c1d4354a03c2e","","Mozilla/5.0 (Windows NT 10.0; Win64; x64; rv:107.0) Gecko/20100101 Firefox/107.0","","Firefox","107.0","Windows","10.0","null","null","","<p style=""font-size: 48px;"">+</p>","2","Filler","",""
"","","","","","picture","15496","image-keyboard-response","198","148282","0.0-6.0-3.40","118","2","2022-11-17 12:39:16","fd252370c17a9971d68c1d4354a03c2e","","Mozilla/5.0 (Windows NT 10.0; Win64; x64; rv:107.0) Gecko/20100101 Firefox/107.0","","Firefox","107.0","Windows","10.0","638","n","","ladder.jpg","2","Filler","true",""
"","","","","","fixation","15496","html-keyboard-response","199","149307","0.0-6.0-0.41","118","2","2022-11-17 12:39:16","fd252370c17a9971d68c1d4354a03c2e","","Mozilla/5.0 (Windows NT 10.0; Win64; x64; rv:107.0) Gecko/20100101 Firefox/107.0","","Firefox","107.0","Windows","10.0","null","null","","<p style=""font-size: 48px;"">+</p>","2","Filler","",""
"","","","","","sentence","15496","html-keyboard-response","200","149573","0.0-6.0-1.41","118","2","2022-11-17 12:39:16","fd252370c17a9971d68c1d4354a03c2e","","Mozilla/5.0 (Windows NT 10.0; Win64; x64; rv:107.0) Gecko/20100101 Firefox/107.0","","Firefox","107.0","Windows","10.0","256"," ","","A ring was placed on the newspaper","2","Filler","",""
"","","","","","fixation","15496","html-keyboard-response","201","150086","0.0-6.0-2.41","118","2","2022-11-17 12:39:16","fd252370c17a9971d68c1d4354a03c2e","","Mozilla/5.0 (Windows NT 10.0; Win64; x64; rv:107.0) Gecko/20100101 Firefox/107.0","","Firefox","107.0","Windows","10.0","null","null","","<p style=""font-size: 48px;"">+</p>","2","Filler","",""
"","","","","","picture","15496","image-keyboard-response","202","150599","0.0-6.0-3.41","118","2","2022-11-17 12:39:16","fd252370c17a9971d68c1d4354a03c2e","","Mozilla/5.0 (Windows NT 10.0; Win64; x64; rv:107.0) Gecko/20100101 Firefox/107.0","","Firefox","107.0","Windows","10.0","494","n","","cat.jpg","2","Filler","true",""
"","","","","","fixation","15496","html-keyboard-response","203","151618","0.0-6.0-0.42","118","2","2022-11-17 12:39:16","fd252370c17a9971d68c1d4354a03c2e","","Mozilla/5.0 (Windows NT 10.0; Win64; x64; rv:107.0) Gecko/20100101 Firefox/107.0","","Firefox","107.0","Windows","10.0","null","null","","<p style=""font-size: 48px;"">+</p>","2","Light_Contradictory","",""
"","","","","","sentence","15496","html-keyboard-response","204","151843","0.0-6.0-1.42","118","2","2022-11-17 12:39:16","fd252370c17a9971d68c1d4354a03c2e","","Mozilla/5.0 (Windows NT 10.0; Win64; x64; rv:107.0) Gecko/20100101 Firefox/107.0","","Firefox","107.0","Windows","10.0","219"," ","","A balloon dropped and smashed an egg","2","Light_Contradictory","",""
"","","","","","fixation","15496","html-keyboard-response","205","152348","0.0-6.0-2.42","118","2","2022-11-17 12:39:16","fd252370c17a9971d68c1d4354a03c2e","","Mozilla/5.0 (Windows NT 10.0; Win64; x64; rv:107.0) Gecko/20100101 Firefox/107.0","","Firefox","107.0","Windows","10.0","null","null","","<p style=""font-size: 48px;"">+</p>","2","Light_Contradictory","",""
"","","","","","picture","15496","image-keyboard-response","206","152853","0.0-6.0-3.42","118","2","2022-11-17 12:39:16","fd252370c17a9971d68c1d4354a03c2e","","Mozilla/5.0 (Windows NT 10.0; Win64; x64; rv:107.0) Gecko/20100101 Firefox/107.0","","Firefox","107.0","Windows","10.0","493","s","","eggS.jpg","2","Light_Contradictory","true",""
"","","","","","fixation","15496","html-keyboard-response","207","153868","0.0-6.0-0.43","118","2","2022-11-17 12:39:16","fd252370c17a9971d68c1d4354a03c2e","","Mozilla/5.0 (Windows NT 10.0; Win64; x64; rv:107.0) Gecko/20100101 Firefox/107.0","","Firefox","107.0","Windows","10.0","null","null","","<p style=""font-size: 48px;"">+</p>","2","Filler","",""
"","","","","","sentence","15496","html-keyboard-response","208","154128","0.0-6.0-1.43","118","2","2022-11-17 12:39:16","fd252370c17a9971d68c1d4354a03c2e","","Mozilla/5.0 (Windows NT 10.0; Win64; x64; rv:107.0) Gecko/20100101 Firefox/107.0","","Firefox","107.0","Windows","10.0","252"," ","","A woman is paying with a debit card","2","Filler","",""
"","","","","","fixation","15496","html-keyboard-response","209","154651","0.0-6.0-2.43","118","2","2022-11-17 12:39:16","fd252370c17a9971d68c1d4354a03c2e","","Mozilla/5.0 (Windows NT 10.0; Win64; x64; rv:107.0) Gecko/20100101 Firefox/107.0","","Firefox","107.0","Windows","10.0","null","null","","<p style=""font-size: 48px;"">+</p>","2","Filler","",""
"","","","","","picture","15496","image-keyboard-response","210","155058","0.0-6.0-3.43","118","2","2022-11-17 12:39:16","fd252370c17a9971d68c1d4354a03c2e","","Mozilla/5.0 (Windows NT 10.0; Win64; x64; rv:107.0) Gecko/20100101 Firefox/107.0","","Firefox","107.0","Windows","10.0","387","n","","papercup.jpg","2","Filler","true",""
"","","","","","fixation","15496","html-keyboard-response","211","156070","0.0-6.0-0.44","118","2","2022-11-17 12:39:16","fd252370c17a9971d68c1d4354a03c2e","","Mozilla/5.0 (Windows NT 10.0; Win64; x64; rv:107.0) Gecko/20100101 Firefox/107.0","","Firefox","107.0","Windows","10.0","null","null","","<p style=""font-size: 48px;"">+</p>","2","Light_Matched","",""
"","","","","","sentence","15496","html-keyboard-response","212","156489","0.0-6.0-1.44","118","2","2022-11-17 12:39:16","fd252370c17a9971d68c1d4354a03c2e","","Mozilla/5.0 (Windows NT 10.0; Win64; x64; rv:107.0) Gecko/20100101 Firefox/107.0","","Firefox","107.0","Windows","10.0","408"," ","","A balloon dropped and touched a vase","2","Light_Matched","",""
"","","","","","fixation","15496","html-keyboard-response","213","157006","0.0-6.0-2.44","118","2","2022-11-17 12:39:16","fd252370c17a9971d68c1d4354a03c2e","","Mozilla/5.0 (Windows NT 10.0; Win64; x64; rv:107.0) Gecko/20100101 Firefox/107.0","","Firefox","107.0","Windows","10.0","null","null","","<p style=""font-size: 48px;"">+</p>","2","Light_Matched","",""
"","","","","","picture","15496","image-keyboard-response","214","157249","0.0-6.0-3.44","118","2","2022-11-17 12:39:16","fd252370c17a9971d68c1d4354a03c2e","","Mozilla/5.0 (Windows NT 10.0; Win64; x64; rv:107.0) Gecko/20100101 Firefox/107.0","","Firefox","107.0","Windows","10.0","227","s","","vaseS.jpg","2","Light_Matched","true",""
"","","","","","fixation","15496","html-keyboard-response","215","158267","0.0-6.0-0.45","118","2","2022-11-17 12:39:16","fd252370c17a9971d68c1d4354a03c2e","","Mozilla/5.0 (Windows NT 10.0; Win64; x64; rv:107.0) Gecko/20100101 Firefox/107.0","","Firefox","107.0","Windows","10.0","null","null","","<p style=""font-size: 48px;"">+</p>","2","Heavy_Matched","",""
"","","","","","sentence","15496","html-keyboard-response","216","158598","0.0-6.0-1.45","118","2","2022-11-17 12:39:16","fd252370c17a9971d68c1d4354a03c2e","","Mozilla/5.0 (Windows NT 10.0; Win64; x64; rv:107.0) Gecko/20100101 Firefox/107.0","","Firefox","107.0","Windows","10.0","319"," ","","A bowling ball dropped and smashed a blackberry","2","Heavy_Matched","",""
"","","","","","fixation","15496","html-keyboard-response","217","159112","0.0-6.0-2.45","118","2","2022-11-17 12:39:16","fd252370c17a9971d68c1d4354a03c2e","","Mozilla/5.0 (Windows NT 10.0; Win64; x64; rv:107.0) Gecko/20100101 Firefox/107.0","","Firefox","107.0","Windows","10.0","null","null","","<p style=""font-size: 48px;"">+</p>","2","Heavy_Matched","",""
"","","","","","picture","15496","image-keyboard-response","218","159336","0.0-6.0-3.45","118","2","2022-11-17 12:39:16","fd252370c17a9971d68c1d4354a03c2e","","Mozilla/5.0 (Windows NT 10.0; Win64; x64; rv:107.0) Gecko/20100101 Firefox/107.0","","Firefox","107.0","Windows","10.0","216","s","","blackberryS.jpg","2","Heavy_Matched","true",""
"","","","","","fixation","15496","html-keyboard-response","219","160338","0.0-6.0-0.46","118","2","2022-11-17 12:39:16","fd252370c17a9971d68c1d4354a03c2e","","Mozilla/5.0 (Windows NT 10.0; Win64; x64; rv:107.0) Gecko/20100101 Firefox/107.0","","Firefox","107.0","Windows","10.0","null","null","","<p style=""font-size: 48px;"">+</p>","2","Filler","",""
"","","","","","sentence","15496","html-keyboard-response","220","160761","0.0-6.0-1.46","118","2","2022-11-17 12:39:16","fd252370c17a9971d68c1d4354a03c2e","","Mozilla/5.0 (Windows NT 10.0; Win64; x64; rv:107.0) Gecko/20100101 Firefox/107.0","","Firefox","107.0","Windows","10.0","419"," ","","A postman is driving a car","2","Filler","",""
"","","","","","fixation","15496","html-keyboard-response","221","161274","0.0-6.0-2.46","118","2","2022-11-17 12:39:16","fd252370c17a9971d68c1d4354a03c2e","","Mozilla/5.0 (Windows NT 10.0; Win64; x64; rv:107.0) Gecko/20100101 Firefox/107.0","","Firefox","107.0","Windows","10.0","null","null","","<p style=""font-size: 48px;"">+</p>","2","Filler","",""
"","","","","","picture","15496","image-keyboard-response","222","162048","0.0-6.0-3.46","118","2","2022-11-17 12:39:16","fd252370c17a9971d68c1d4354a03c2e","","Mozilla/5.0 (Windows NT 10.0; Win64; x64; rv:107.0) Gecko/20100101 Firefox/107.0","","Firefox","107.0","Windows","10.0","753","s","","car.jpg","2","Filler","true",""
"","","","","","fixation","15496","html-keyboard-response","223","163068","0.0-6.0-0.47","118","2","2022-11-17 12:39:16","fd252370c17a9971d68c1d4354a03c2e","","Mozilla/5.0 (Windows NT 10.0; Win64; x64; rv:107.0) Gecko/20100101 Firefox/107.0","","Firefox","107.0","Windows","10.0","null","null","","<p style=""font-size: 48px;"">+</p>","2","Filler","",""
"","","","","","sentence","15496","html-keyboard-response","224","163432","0.0-6.0-1.47","118","2","2022-11-17 12:39:16","fd252370c17a9971d68c1d4354a03c2e","","Mozilla/5.0 (Windows NT 10.0; Win64; x64; rv:107.0) Gecko/20100101 Firefox/107.0","","Firefox","107.0","Windows","10.0","356"," ","","A cat is drinking water from a bowl","2","Filler","",""
"","","","","","fixation","15496","html-keyboard-response","225","163941","0.0-6.0-2.47","118","2","2022-11-17 12:39:16","fd252370c17a9971d68c1d4354a03c2e","","Mozilla/5.0 (Windows NT 10.0; Win64; x64; rv:107.0) Gecko/20100101 Firefox/107.0","","Firefox","107.0","Windows","10.0","null","null","","<p style=""font-size: 48px;"">+</p>","2","Filler","",""
"","","","","","picture","15496","image-keyboard-response","226","164327","0.0-6.0-3.47","118","2","2022-11-17 12:39:16","fd252370c17a9971d68c1d4354a03c2e","","Mozilla/5.0 (Windows NT 10.0; Win64; x64; rv:107.0) Gecko/20100101 Firefox/107.0","","Firefox","107.0","Windows","10.0","378","n","","bowl.jpg","2","Filler","false",""
"","","","","","fixation","15496","html-keyboard-response","227","165347","0.0-6.0-0.48","118","2","2022-11-17 12:39:16","fd252370c17a9971d68c1d4354a03c2e","","Mozilla/5.0 (Windows NT 10.0; Win64; x64; rv:107.0) Gecko/20100101 Firefox/107.0","","Firefox","107.0","Windows","10.0","null","null","","<p style=""font-size: 48px;"">+</p>","2","Filler","",""
"","","","","","sentence","15496","html-keyboard-response","228","166422","0.0-6.0-1.48","118","2","2022-11-17 12:39:16","fd252370c17a9971d68c1d4354a03c2e","","Mozilla/5.0 (Windows NT 10.0; Win64; x64; rv:107.0) Gecko/20100101 Firefox/107.0","","Firefox","107.0","Windows","10.0","1064"," ","","A pencil was placed on the shoe","2","Filler","",""
"","","","","","fixation","15496","html-keyboard-response","229","166939","0.0-6.0-2.48","118","2","2022-11-17 12:39:16","fd252370c17a9971d68c1d4354a03c2e","","Mozilla/5.0 (Windows NT 10.0; Win64; x64; rv:107.0) Gecko/20100101 Firefox/107.0","","Firefox","107.0","Windows","10.0","null","null","","<p style=""font-size: 48px;"">+</p>","2","Filler","",""
"","","","","","picture","15496","image-keyboard-response","230","167358","0.0-6.0-3.48","118","2","2022-11-17 12:39:16","fd252370c17a9971d68c1d4354a03c2e","","Mozilla/5.0 (Windows NT 10.0; Win64; x64; rv:107.0) Gecko/20100101 Firefox/107.0","","Firefox","107.0","Windows","10.0","402","n","","perfume.jpg","2","Filler","true",""
"","","","","","fixation","15496","html-keyboard-response","231","168374","0.0-6.0-0.49","118","2","2022-11-17 12:39:16","fd252370c17a9971d68c1d4354a03c2e","","Mozilla/5.0 (Windows NT 10.0; Win64; x64; rv:107.0) Gecko/20100101 Firefox/107.0","","Firefox","107.0","Windows","10.0","null","null","","<p style=""font-size: 48px;"">+</p>","2","Filler","",""
"","","","","","sentence","15496","html-keyboard-response","232","168904","0.0-6.0-1.49","118","2","2022-11-17 12:39:16","fd252370c17a9971d68c1d4354a03c2e","","Mozilla/5.0 (Windows NT 10.0; Win64; x64; rv:107.0) Gecko/20100101 Firefox/107.0","","Firefox","107.0","Windows","10.0","518"," ","","A dentist is drinking a can of cola","2","Filler","",""
"","","","","","fixation","15496","html-keyboard-response","233","169414","0.0-6.0-2.49","118","2","2022-11-17 12:39:16","fd252370c17a9971d68c1d4354a03c2e","","Mozilla/5.0 (Windows NT 10.0; Win64; x64; rv:107.0) Gecko/20100101 Firefox/107.0","","Firefox","107.0","Windows","10.0","null","null","","<p style=""font-size: 48px;"">+</p>","2","Filler","",""
"","","","","","picture","15496","image-keyboard-response","234","169936","0.0-6.0-3.49","118","2","2022-11-17 12:39:16","fd252370c17a9971d68c1d4354a03c2e","","Mozilla/5.0 (Windows NT 10.0; Win64; x64; rv:107.0) Gecko/20100101 Firefox/107.0","","Firefox","107.0","Windows","10.0","507","n","","doll.jpg","2","Filler","true",""
"","","","","","fixation","15496","html-keyboard-response","235","170961","0.0-6.0-0.50","118","2","2022-11-17 12:39:16","fd252370c17a9971d68c1d4354a03c2e","","Mozilla/5.0 (Windows NT 10.0; Win64; x64; rv:107.0) Gecko/20100101 Firefox/107.0","","Firefox","107.0","Windows","10.0","null","null","","<p style=""font-size: 48px;"">+</p>","2","Filler","",""
"","","","","","sentence","15496","html-keyboard-response","236","171522","0.0-6.0-1.50","118","2","2022-11-17 12:39:16","fd252370c17a9971d68c1d4354a03c2e","","Mozilla/5.0 (Windows NT 10.0; Win64; x64; rv:107.0) Gecko/20100101 Firefox/107.0","","Firefox","107.0","Windows","10.0","553"," ","","An elephant is eating a watermelon","2","Filler","",""
"","","","","","fixation","15496","html-keyboard-response","237","172036","0.0-6.0-2.50","118","2","2022-11-17 12:39:16","fd252370c17a9971d68c1d4354a03c2e","","Mozilla/5.0 (Windows NT 10.0; Win64; x64; rv:107.0) Gecko/20100101 Firefox/107.0","","Firefox","107.0","Windows","10.0","null","null","","<p style=""font-size: 48px;"">+</p>","2","Filler","",""
"","","","","","picture","15496","image-keyboard-response","238","172288","0.0-6.0-3.50","118","2","2022-11-17 12:39:16","fd252370c17a9971d68c1d4354a03c2e","","Mozilla/5.0 (Windows NT 10.0; Win64; x64; rv:107.0) Gecko/20100101 Firefox/107.0","","Firefox","107.0","Windows","10.0","243","s","","watermelon.jpg","2","Filler","true",""
"","","","","","fixation","15496","html-keyboard-response","239","173302","0.0-6.0-0.51","118","2","2022-11-17 12:39:16","fd252370c17a9971d68c1d4354a03c2e","","Mozilla/5.0 (Windows NT 10.0; Win64; x64; rv:107.0) Gecko/20100101 Firefox/107.0","","Firefox","107.0","Windows","10.0","null","null","","<p style=""font-size: 48px;"">+</p>","2","Filler","",""
"","","","","","sentence","15496","html-keyboard-response","240","173602","0.0-6.0-1.51","118","2","2022-11-17 12:39:16","fd252370c17a9971d68c1d4354a03c2e","","Mozilla/5.0 (Windows NT 10.0; Win64; x64; rv:107.0) Gecko/20100101 Firefox/107.0","","Firefox","107.0","Windows","10.0","288"," ","","A man is playing with a cat","2","Filler","",""
"","","","","","fixation","15496","html-keyboard-response","241","174113","0.0-6.0-2.51","118","2","2022-11-17 12:39:16","fd252370c17a9971d68c1d4354a03c2e","","Mozilla/5.0 (Windows NT 10.0; Win64; x64; rv:107.0) Gecko/20100101 Firefox/107.0","","Firefox","107.0","Windows","10.0","null","null","","<p style=""font-size: 48px;"">+</p>","2","Filler","",""
"","","","","","picture","15496","image-keyboard-response","242","174836","0.0-6.0-3.51","118","2","2022-11-17 12:39:16","fd252370c17a9971d68c1d4354a03c2e","","Mozilla/5.0 (Windows NT 10.0; Win64; x64; rv:107.0) Gecko/20100101 Firefox/107.0","","Firefox","107.0","Windows","10.0","707","n","","ceramicplate.jpg","2","Filler","true",""
"","","","","","fixation","15496","html-keyboard-response","243","175843","0.0-6.0-0.52","118","2","2022-11-17 12:39:16","fd252370c17a9971d68c1d4354a03c2e","","Mozilla/5.0 (Windows NT 10.0; Win64; x64; rv:107.0) Gecko/20100101 Firefox/107.0","","Firefox","107.0","Windows","10.0","null","null","","<p style=""font-size: 48px;"">+</p>","2","Light_Contradictory","",""
"","","","","","sentence","15496","html-keyboard-response","244","176582","0.0-6.0-1.52","118","2","2022-11-17 12:39:16","fd252370c17a9971d68c1d4354a03c2e","","Mozilla/5.0 (Windows NT 10.0; Win64; x64; rv:107.0) Gecko/20100101 Firefox/107.0","","Firefox","107.0","Windows","10.0","731"," ","","A balloon dropped and smashed a wineglass","2","Light_Contradictory","",""
"","","","","","fixation","15496","html-keyboard-response","245","177106","0.0-6.0-2.52","118","2","2022-11-17 12:39:16","fd252370c17a9971d68c1d4354a03c2e","","Mozilla/5.0 (Windows NT 10.0; Win64; x64; rv:107.0) Gecko/20100101 Firefox/107.0","","Firefox","107.0","Windows","10.0","null","null","","<p style=""font-size: 48px;"">+</p>","2","Light_Contradictory","",""
"","","","","","picture","15496","image-keyboard-response","246","177258","0.0-6.0-3.52","118","2","2022-11-17 12:39:16","fd252370c17a9971d68c1d4354a03c2e","","Mozilla/5.0 (Windows NT 10.0; Win64; x64; rv:107.0) Gecko/20100101 Firefox/107.0","","Firefox","107.0","Windows","10.0","144","s","","wineglassS.jpg","2","Light_Contradictory","true",""
"","","","","","fixation","15496","html-keyboard-response","247","178275","0.0-6.0-0.53","118","2","2022-11-17 12:39:16","fd252370c17a9971d68c1d4354a03c2e","","Mozilla/5.0 (Windows NT 10.0; Win64; x64; rv:107.0) Gecko/20100101 Firefox/107.0","","Firefox","107.0","Windows","10.0","null","null","","<p style=""font-size: 48px;"">+</p>","2","Heavy_Contradictory","",""
"","","","","","sentence","15496","html-keyboard-response","248","178683","0.0-6.0-1.53","118","2","2022-11-17 12:39:16","fd252370c17a9971d68c1d4354a03c2e","","Mozilla/5.0 (Windows NT 10.0; Win64; x64; rv:107.0) Gecko/20100101 Firefox/107.0","","Firefox","107.0","Windows","10.0","401"," ","","A bowling ball dropped and touched a donut","2","Heavy_Contradictory","",""
"","","","","","fixation","15496","html-keyboard-response","249","179208","0.0-6.0-2.53","118","2","2022-11-17 12:39:16","fd252370c17a9971d68c1d4354a03c2e","","Mozilla/5.0 (Windows NT 10.0; Win64; x64; rv:107.0) Gecko/20100101 Firefox/107.0","","Firefox","107.0","Windows","10.0","null","null","","<p style=""font-size: 48px;"">+</p>","2","Heavy_Contradictory","",""
"","","","","","picture","15496","image-keyboard-response","250","179703","0.0-6.0-3.53","118","2","2022-11-17 12:39:16","fd252370c17a9971d68c1d4354a03c2e","","Mozilla/5.0 (Windows NT 10.0; Win64; x64; rv:107.0) Gecko/20100101 Firefox/107.0","","Firefox","107.0","Windows","10.0","466","s","","donutS.jpg","2","Heavy_Contradictory","true",""
"","","","","","fixation","15496","html-keyboard-response","251","180720","0.0-6.0-0.54","118","2","2022-11-17 12:39:16","fd252370c17a9971d68c1d4354a03c2e","","Mozilla/5.0 (Windows NT 10.0; Win64; x64; rv:107.0) Gecko/20100101 Firefox/107.0","","Firefox","107.0","Windows","10.0","null","null","","<p style=""font-size: 48px;"">+</p>","2","Filler","",""
"","","","","","sentence","15496","html-keyboard-response","252","181040","0.0-6.0-1.54","118","2","2022-11-17 12:39:16","fd252370c17a9971d68c1d4354a03c2e","","Mozilla/5.0 (Windows NT 10.0; Win64; x64; rv:107.0) Gecko/20100101 Firefox/107.0","","Firefox","107.0","Windows","10.0","312"," ","","A woman is taking money out of a wallet","2","Filler","",""
"","","","","","fixation","15496","html-keyboard-response","253","181562","0.0-6.0-2.54","118","2","2022-11-17 12:39:16","fd252370c17a9971d68c1d4354a03c2e","","Mozilla/5.0 (Windows NT 10.0; Win64; x64; rv:107.0) Gecko/20100101 Firefox/107.0","","Firefox","107.0","Windows","10.0","null","null","","<p style=""font-size: 48px;"">+</p>","2","Filler","",""
"","","","","","picture","15496","image-keyboard-response","254","181836","0.0-6.0-3.54","118","2","2022-11-17 12:39:16","fd252370c17a9971d68c1d4354a03c2e","","Mozilla/5.0 (Windows NT 10.0; Win64; x64; rv:107.0) Gecko/20100101 Firefox/107.0","","Firefox","107.0","Windows","10.0","253","n","","coconut.jpg","2","Filler","true",""
"","","","","","fixation","15496","html-keyboard-response","255","182850","0.0-6.0-0.55","118","2","2022-11-17 12:39:16","fd252370c17a9971d68c1d4354a03c2e","","Mozilla/5.0 (Windows NT 10.0; Win64; x64; rv:107.0) Gecko/20100101 Firefox/107.0","","Firefox","107.0","Windows","10.0","null","null","","<p style=""font-size: 48px;"">+</p>","2","Heavy_Contradictory","",""
"","","","","","sentence","15496","html-keyboard-response","256","183485","0.0-6.0-1.55","118","2","2022-11-17 12:39:16","fd252370c17a9971d68c1d4354a03c2e","","Mozilla/5.0 (Windows NT 10.0; Win64; x64; rv:107.0) Gecko/20100101 Firefox/107.0","","Firefox","107.0","Windows","10.0","623"," ","","A bowling ball dropped and touched a light bulb","2","Heavy_Contradictory","",""
"","","","","","fixation","15496","html-keyboard-response","257","184001","0.0-6.0-2.55","118","2","2022-11-17 12:39:16","fd252370c17a9971d68c1d4354a03c2e","","Mozilla/5.0 (Windows NT 10.0; Win64; x64; rv:107.0) Gecko/20100101 Firefox/107.0","","Firefox","107.0","Windows","10.0","null","null","","<p style=""font-size: 48px;"">+</p>","2","Heavy_Contradictory","",""
"","","","","","picture","15496","image-keyboard-response","258","184220","0.0-6.0-3.55","118","2","2022-11-17 12:39:16","fd252370c17a9971d68c1d4354a03c2e","","Mozilla/5.0 (Windows NT 10.0; Win64; x64; rv:107.0) Gecko/20100101 Firefox/107.0","","Firefox","107.0","Windows","10.0","208","s","","lampS.jpg","2","Heavy_Contradictory","true",""
"","","","","","fixation","15496","html-keyboard-response","259","185229","0.0-6.0-0.56","118","2","2022-11-17 12:39:16","fd252370c17a9971d68c1d4354a03c2e","","Mozilla/5.0 (Windows NT 10.0; Win64; x64; rv:107.0) Gecko/20100101 Firefox/107.0","","Firefox","107.0","Windows","10.0","null","null","","<p style=""font-size: 48px;"">+</p>","2","Filler","",""
"","","","","","sentence","15496","html-keyboard-response","260","185598","0.0-6.0-1.56","118","2","2022-11-17 12:39:16","fd252370c17a9971d68c1d4354a03c2e","","Mozilla/5.0 (Windows NT 10.0; Win64; x64; rv:107.0) Gecko/20100101 Firefox/107.0","","Firefox","107.0","Windows","10.0","362"," ","","A mouse is eating cheese","2","Filler","",""
"","","","","","fixation","15496","html-keyboard-response","261","186116","0.0-6.0-2.56","118","2","2022-11-17 12:39:16","fd252370c17a9971d68c1d4354a03c2e","","Mozilla/5.0 (Windows NT 10.0; Win64; x64; rv:107.0) Gecko/20100101 Firefox/107.0","","Firefox","107.0","Windows","10.0","null","null","","<p style=""font-size: 48px;"">+</p>","2","Filler","",""
"","","","","","picture","15496","image-keyboard-response","262","186453","0.0-6.0-3.56","118","2","2022-11-17 12:39:16","fd252370c17a9971d68c1d4354a03c2e","","Mozilla/5.0 (Windows NT 10.0; Win64; x64; rv:107.0) Gecko/20100101 Firefox/107.0","","Firefox","107.0","Windows","10.0","327","n","","ring.jpg","2","Filler","true",""
"","","","","","fixation","15496","html-keyboard-response","263","187471","0.0-6.0-0.57","118","2","2022-11-17 12:39:16","fd252370c17a9971d68c1d4354a03c2e","","Mozilla/5.0 (Windows NT 10.0; Win64; x64; rv:107.0) Gecko/20100101 Firefox/107.0","","Firefox","107.0","Windows","10.0","null","null","","<p style=""font-size: 48px;"">+</p>","2","Light_Contradictory","",""
"","","","","","sentence","15496","html-keyboard-response","264","188097","0.0-6.0-1.57","118","2","2022-11-17 12:39:16","fd252370c17a9971d68c1d4354a03c2e","","Mozilla/5.0 (Windows NT 10.0; Win64; x64; rv:107.0) Gecko/20100101 Firefox/107.0","","Firefox","107.0","Windows","10.0","613"," ","","A balloon dropped and smashed a porcelain figure","2","Light_Contradictory","",""
"","","","","","fixation","15496","html-keyboard-response","265","188606","0.0-6.0-2.57","118","2","2022-11-17 12:39:16","fd252370c17a9971d68c1d4354a03c2e","","Mozilla/5.0 (Windows NT 10.0; Win64; x64; rv:107.0) Gecko/20100101 Firefox/107.0","","Firefox","107.0","Windows","10.0","null","null","","<p style=""font-size: 48px;"">+</p>","2","Light_Contradictory","",""
"","","","","","picture","15496","image-keyboard-response","266","188857","0.0-6.0-3.57","118","2","2022-11-17 12:39:16","fd252370c17a9971d68c1d4354a03c2e","","Mozilla/5.0 (Windows NT 10.0; Win64; x64; rv:107.0) Gecko/20100101 Firefox/107.0","","Firefox","107.0","Windows","10.0","242","s","","figureS.jpg","2","Light_Contradictory","true",""
"","","","","","fixation","15496","html-keyboard-response","267","189870","0.0-6.0-0.58","118","2","2022-11-17 12:39:16","fd252370c17a9971d68c1d4354a03c2e","","Mozilla/5.0 (Windows NT 10.0; Win64; x64; rv:107.0) Gecko/20100101 Firefox/107.0","","Firefox","107.0","Windows","10.0","null","null","","<p style=""font-size: 48px;"">+</p>","2","Filler","",""
"","","","","","sentence","15496","html-keyboard-response","268","190243","0.0-6.0-1.58","118","2","2022-11-17 12:39:16","fd252370c17a9971d68c1d4354a03c2e","","Mozilla/5.0 (Windows NT 10.0; Win64; x64; rv:107.0) Gecko/20100101 Firefox/107.0","","Firefox","107.0","Windows","10.0","363"," ","","A keyboard was placed on the bed","2","Filler","",""
"","","","","","fixation","15496","html-keyboard-response","269","190758","0.0-6.0-2.58","118","2","2022-11-17 12:39:16","fd252370c17a9971d68c1d4354a03c2e","","Mozilla/5.0 (Windows NT 10.0; Win64; x64; rv:107.0) Gecko/20100101 Firefox/107.0","","Firefox","107.0","Windows","10.0","null","null","","<p style=""font-size: 48px;"">+</p>","2","Filler","",""
"","","","","","picture","15496","image-keyboard-response","270","191208","0.0-6.0-3.58","118","2","2022-11-17 12:39:16","fd252370c17a9971d68c1d4354a03c2e","","Mozilla/5.0 (Windows NT 10.0; Win64; x64; rv:107.0) Gecko/20100101 Firefox/107.0","","Firefox","107.0","Windows","10.0","440","n","","bottlecap.jpg","2","Filler","true",""
"","","","","","fixation","15496","html-keyboard-response","271","192223","0.0-6.0-0.59","118","2","2022-11-17 12:39:16","fd252370c17a9971d68c1d4354a03c2e","","Mozilla/5.0 (Windows NT 10.0; Win64; x64; rv:107.0) Gecko/20100101 Firefox/107.0","","Firefox","107.0","Windows","10.0","null","null","","<p style=""font-size: 48px;"">+</p>","2","Filler","",""
"","","","","","sentence","15496","html-keyboard-response","272","192714","0.0-6.0-1.59","118","2","2022-11-17 12:39:16","fd252370c17a9971d68c1d4354a03c2e","","Mozilla/5.0 (Windows NT 10.0; Win64; x64; rv:107.0) Gecko/20100101 Firefox/107.0","","Firefox","107.0","Windows","10.0","484"," ","","A teenage girl is playing the piano","2","Filler","",""
"","","","","","fixation","15496","html-keyboard-response","273","193222","0.0-6.0-2.59","118","2","2022-11-17 12:39:16","fd252370c17a9971d68c1d4354a03c2e","","Mozilla/5.0 (Windows NT 10.0; Win64; x64; rv:107.0) Gecko/20100101 Firefox/107.0","","Firefox","107.0","Windows","10.0","null","null","","<p style=""font-size: 48px;"">+</p>","2","Filler","",""
"","","","","","picture","15496","image-keyboard-response","274","194254","0.0-6.0-3.59","118","2","2022-11-17 12:39:16","fd252370c17a9971d68c1d4354a03c2e","","Mozilla/5.0 (Windows NT 10.0; Win64; x64; rv:107.0) Gecko/20100101 Firefox/107.0","","Firefox","107.0","Windows","10.0","1013","n","","pillow.jpg","2","Filler","true",""
"","","","","","fixation","15496","html-keyboard-response","275","195282","0.0-6.0-0.60","118","2","2022-11-17 12:39:16","fd252370c17a9971d68c1d4354a03c2e","","Mozilla/5.0 (Windows NT 10.0; Win64; x64; rv:107.0) Gecko/20100101 Firefox/107.0","","Firefox","107.0","Windows","10.0","null","null","","<p style=""font-size: 48px;"">+</p>","2","Light_Matched","",""
"","","","","","sentence","15496","html-keyboard-response","276","195976","0.0-6.0-1.60","118","2","2022-11-17 12:39:16","fd252370c17a9971d68c1d4354a03c2e","","Mozilla/5.0 (Windows NT 10.0; Win64; x64; rv:107.0) Gecko/20100101 Firefox/107.0","","Firefox","107.0","Windows","10.0","685"," ","","A balloon dropped and touched a ceramic plate","2","Light_Matched","",""
"","","","","","fixation","15496","html-keyboard-response","277","196500","0.0-6.0-2.60","118","2","2022-11-17 12:39:16","fd252370c17a9971d68c1d4354a03c2e","","Mozilla/5.0 (Windows NT 10.0; Win64; x64; rv:107.0) Gecko/20100101 Firefox/107.0","","Firefox","107.0","Windows","10.0","null","null","","<p style=""font-size: 48px;"">+</p>","2","Light_Matched","",""
