"success","timeout","failed_images","failed_audio","failed_video","typeoftrial","subject","trial_type","trial_index","time_elapsed","internal_node_id","run_id","condition","recorded_at","source_code_version","ip","user_agent","device","browser","browser_version","platform","platform_version","rt","response","Experiment","stimulus","list_number","trialcondition","correct","question_order"
"true","false","[]","[]","[]","preload","23981","preload","0","11","0.0-0.0","126","2","2022-11-17 12:51:05","fd252370c17a9971d68c1d4354a03c2e","","Mozilla/5.0 (Windows NT 10.0; Win64; x64) AppleWebKit/537.36 (KHTML, like Gecko) Chrome/107.0.0.0 Safari/537.36","WebKit","Chrome","107.0.0.0","Windows","10.0","","","","","","","",""
"","","","","","ID","23981","survey-text","1","1128","0.0-1.0","126","2","2022-11-17 12:51:05","fd252370c17a9971d68c1d4354a03c2e","","Mozilla/5.0 (Windows NT 10.0; Win64; x64) AppleWebKit/537.36 (KHTML, like Gecko) Chrome/107.0.0.0 Safari/537.36","WebKit","Chrome","107.0.0.0","Windows","10.0","1115","{""ID"":""5f8836a5fb70462a169fc0ac""}","","","","","",""
"","","","","","instructions","23981","html-button-response","2","2442","0.0-2.0","126","2","2022-11-17 12:51:05","fd252370c17a9971d68c1d4354a03c2e","","Mozilla/5.0 (Windows NT 10.0; Win64; x64) AppleWebKit/537.36 (KHTML, like Gecko) Chrome/107.0.0.0 Safari/537.36","WebKit","Chrome","107.0.0.0","Windows","10.0","1313","0","","
                    <p style=""font-size:20px;""> Welcome to the experiment! </p>
                    <p style=""font-size:20px;""> In this experiment, you will be asked to make judgments about the content of different sentences.</p>
                    <p style=""font-size:20px;""> On each trial, you will read a sentence, and will be shown a picture immediately following the sentence. </p>
                    <p style=""font-size:20px;""> Your task is to decide whether the object displayed in the picture was mentioned in the sentence or not </p>
                    <p style=""font-size:20px;""> and respond as quickly as possible by pressing <strong>S</strong> for yes or <strong>N</strong> for no. </p>
                    <p style=""font-size:20px;""> You will now do a practice session with feedback and instructions. </p>
                    <p style=""font-size:20px;""> Click the button below to continue.</p>
                    ","","","",""
"","","","","","instructions","23981","html-button-response","3","4354","0.0-3.0","126","2","2022-11-17 12:51:05","fd252370c17a9971d68c1d4354a03c2e","","Mozilla/5.0 (Windows NT 10.0; Win64; x64) AppleWebKit/537.36 (KHTML, like Gecko) Chrome/107.0.0.0 Safari/537.36","WebKit","Chrome","107.0.0.0","Windows","10.0","1911","0","","
                    <p style=""font-size:20px;""> You are about to begin the practice test. </p>
                    <p style=""font-size:20px;""> On each trial, a sentence will appear on the screen. You should press SPACEBAR when you have read and understood the sentence.</p>
                    <p style=""font-size:20px;""> After you press SPACEBAR, a picture will appear on the screen. </p>
                    <p style=""font-size:20px;""> You need to indicate whether or not the pictured object was mentioned in the sentence. </p>
                    <p style=""font-size:20px;""> If the object WAS mentioned in the preceding sentence, you should press <strong>S</strong> </p>
                    <p style=""font-size:20px;""> If the object was NOT mentioned in the preceding sentence, you should press <strong>N</strong>. </p>
                    <p style=""font-size:20px;""> Click the button below to continue to the practice session.</p>
                    ","","","",""
"","","","","","fixation","23981","html-keyboard-response","4","5373","0.0-4.0-0.0","126","2","2022-11-17 12:51:05","fd252370c17a9971d68c1d4354a03c2e","","Mozilla/5.0 (Windows NT 10.0; Win64; x64) AppleWebKit/537.36 (KHTML, like Gecko) Chrome/107.0.0.0 Safari/537.36","WebKit","Chrome","107.0.0.0","Windows","10.0","null","null","","<p style=""font-size: 48px;"">+</p>","practice","practice_n","",""
"","","","","","sentence","23981","html-keyboard-response","5","6696","0.0-4.0-1.0","126","2","2022-11-17 12:51:05","fd252370c17a9971d68c1d4354a03c2e","","Mozilla/5.0 (Windows NT 10.0; Win64; x64) AppleWebKit/537.36 (KHTML, like Gecko) Chrome/107.0.0.0 Safari/537.36","WebKit","Chrome","107.0.0.0","Windows","10.0","1322"," ","","A bowling ball dropped and touched a bottle","practice","practice_n","",""
"","","","","","fixation","23981","html-keyboard-response","6","7213","0.0-4.0-2.0","126","2","2022-11-17 12:51:05","fd252370c17a9971d68c1d4354a03c2e","","Mozilla/5.0 (Windows NT 10.0; Win64; x64) AppleWebKit/537.36 (KHTML, like Gecko) Chrome/107.0.0.0 Safari/537.36","WebKit","Chrome","107.0.0.0","Windows","10.0","null","null","","<p style=""font-size: 48px;"">+</p>","practice","practice_n","",""
"","","","","","picture","23981","image-keyboard-response","7","8535","0.0-4.0-3.0","126","2","2022-11-17 12:51:05","fd252370c17a9971d68c1d4354a03c2e","","Mozilla/5.0 (Windows NT 10.0; Win64; x64) AppleWebKit/537.36 (KHTML, like Gecko) Chrome/107.0.0.0 Safari/537.36","WebKit","Chrome","107.0.0.0","Windows","10.0","1319","n","","bookB.jpg","practice","practice_n","true",""
"","","","","","","","html-keyboard-response","8","10553","0.0-4.0-4.0","126","2","2022-11-17 12:51:05","fd252370c17a9971d68c1d4354a03c2e","","Mozilla/5.0 (Windows NT 10.0; Win64; x64) AppleWebKit/537.36 (KHTML, like Gecko) Chrome/107.0.0.0 Safari/537.36","WebKit","Chrome","107.0.0.0","Windows","10.0","null","null","","CORRECT!","","","",""
"","","","","","fixation","23981","html-keyboard-response","9","11564","0.0-4.0-0.1","126","2","2022-11-17 12:51:05","fd252370c17a9971d68c1d4354a03c2e","","Mozilla/5.0 (Windows NT 10.0; Win64; x64) AppleWebKit/537.36 (KHTML, like Gecko) Chrome/107.0.0.0 Safari/537.36","WebKit","Chrome","107.0.0.0","Windows","10.0","null","null","","<p style=""font-size: 48px;"">+</p>","practice","practice_n","",""
"","","","","","sentence","23981","html-keyboard-response","10","12975","0.0-4.0-1.1","126","2","2022-11-17 12:51:05","fd252370c17a9971d68c1d4354a03c2e","","Mozilla/5.0 (Windows NT 10.0; Win64; x64) AppleWebKit/537.36 (KHTML, like Gecko) Chrome/107.0.0.0 Safari/537.36","WebKit","Chrome","107.0.0.0","Windows","10.0","1411"," ","","A balloon dropped and smashed a cup","practice","practice_n","",""
"","","","","","fixation","23981","html-keyboard-response","11","13493","0.0-4.0-2.1","126","2","2022-11-17 12:51:05","fd252370c17a9971d68c1d4354a03c2e","","Mozilla/5.0 (Windows NT 10.0; Win64; x64) AppleWebKit/537.36 (KHTML, like Gecko) Chrome/107.0.0.0 Safari/537.36","WebKit","Chrome","107.0.0.0","Windows","10.0","null","null","","<p style=""font-size: 48px;"">+</p>","practice","practice_n","",""
"","","","","","picture","23981","image-keyboard-response","12","14127","0.0-4.0-3.1","126","2","2022-11-17 12:51:05","fd252370c17a9971d68c1d4354a03c2e","","Mozilla/5.0 (Windows NT 10.0; Win64; x64) AppleWebKit/537.36 (KHTML, like Gecko) Chrome/107.0.0.0 Safari/537.36","WebKit","Chrome","107.0.0.0","Windows","10.0","633","n","","bananaB.jpg","practice","practice_n","true",""
"","","","","","","","html-keyboard-response","13","16133","0.0-4.0-4.1","126","2","2022-11-17 12:51:05","fd252370c17a9971d68c1d4354a03c2e","","Mozilla/5.0 (Windows NT 10.0; Win64; x64) AppleWebKit/537.36 (KHTML, like Gecko) Chrome/107.0.0.0 Safari/537.36","WebKit","Chrome","107.0.0.0","Windows","10.0","null","null","","CORRECT!","","","",""
"","","","","","fixation","23981","html-keyboard-response","14","17143","0.0-4.0-0.2","126","2","2022-11-17 12:51:05","fd252370c17a9971d68c1d4354a03c2e","","Mozilla/5.0 (Windows NT 10.0; Win64; x64) AppleWebKit/537.36 (KHTML, like Gecko) Chrome/107.0.0.0 Safari/537.36","WebKit","Chrome","107.0.0.0","Windows","10.0","null","null","","<p style=""font-size: 48px;"">+</p>","practice","practice_s","",""
"","","","","","sentence","23981","html-keyboard-response","15","18431","0.0-4.0-1.2","126","2","2022-11-17 12:51:05","fd252370c17a9971d68c1d4354a03c2e","","Mozilla/5.0 (Windows NT 10.0; Win64; x64) AppleWebKit/537.36 (KHTML, like Gecko) Chrome/107.0.0.0 Safari/537.36","WebKit","Chrome","107.0.0.0","Windows","10.0","1288"," ","","A balloon dropped and touched a cigarette","practice","practice_s","",""
"","","","","","fixation","23981","html-keyboard-response","16","18943","0.0-4.0-2.2","126","2","2022-11-17 12:51:05","fd252370c17a9971d68c1d4354a03c2e","","Mozilla/5.0 (Windows NT 10.0; Win64; x64) AppleWebKit/537.36 (KHTML, like Gecko) Chrome/107.0.0.0 Safari/537.36","WebKit","Chrome","107.0.0.0","Windows","10.0","null","null","","<p style=""font-size: 48px;"">+</p>","practice","practice_s","",""
"","","","","","picture","23981","image-keyboard-response","17","20055","0.0-4.0-3.2","126","2","2022-11-17 12:51:05","fd252370c17a9971d68c1d4354a03c2e","","Mozilla/5.0 (Windows NT 10.0; Win64; x64) AppleWebKit/537.36 (KHTML, like Gecko) Chrome/107.0.0.0 Safari/537.36","WebKit","Chrome","107.0.0.0","Windows","10.0","1111","s","","cigaretteB.jpg","practice","practice_s","true",""
"","","","","","","","html-keyboard-response","18","22063","0.0-4.0-4.2","126","2","2022-11-17 12:51:05","fd252370c17a9971d68c1d4354a03c2e","","Mozilla/5.0 (Windows NT 10.0; Win64; x64) AppleWebKit/537.36 (KHTML, like Gecko) Chrome/107.0.0.0 Safari/537.36","WebKit","Chrome","107.0.0.0","Windows","10.0","null","null","","CORRECT!","","","",""
"","","","","","fixation","23981","html-keyboard-response","19","23083","0.0-4.0-0.3","126","2","2022-11-17 12:51:05","fd252370c17a9971d68c1d4354a03c2e","","Mozilla/5.0 (Windows NT 10.0; Win64; x64) AppleWebKit/537.36 (KHTML, like Gecko) Chrome/107.0.0.0 Safari/537.36","WebKit","Chrome","107.0.0.0","Windows","10.0","null","null","","<p style=""font-size: 48px;"">+</p>","practice","practice_n","",""
"","","","","","sentence","23981","html-keyboard-response","20","25599","0.0-4.0-1.3","126","2","2022-11-17 12:51:05","fd252370c17a9971d68c1d4354a03c2e","","Mozilla/5.0 (Windows NT 10.0; Win64; x64) AppleWebKit/537.36 (KHTML, like Gecko) Chrome/107.0.0.0 Safari/537.36","WebKit","Chrome","107.0.0.0","Windows","10.0","2515"," ","","A fork was placed on a stool","practice","practice_n","",""
"","","","","","fixation","23981","html-keyboard-response","21","26123","0.0-4.0-2.3","126","2","2022-11-17 12:51:05","fd252370c17a9971d68c1d4354a03c2e","","Mozilla/5.0 (Windows NT 10.0; Win64; x64) AppleWebKit/537.36 (KHTML, like Gecko) Chrome/107.0.0.0 Safari/537.36","WebKit","Chrome","107.0.0.0","Windows","10.0","null","null","","<p style=""font-size: 48px;"">+</p>","practice","practice_n","",""
"","","","","","picture","23981","image-keyboard-response","22","28335","0.0-4.0-3.3","126","2","2022-11-17 12:51:05","fd252370c17a9971d68c1d4354a03c2e","","Mozilla/5.0 (Windows NT 10.0; Win64; x64) AppleWebKit/537.36 (KHTML, like Gecko) Chrome/107.0.0.0 Safari/537.36","WebKit","Chrome","107.0.0.0","Windows","10.0","2211","n","","tableB.jpg","practice","practice_n","true",""
"","","","","","","","html-keyboard-response","23","30348","0.0-4.0-4.3","126","2","2022-11-17 12:51:05","fd252370c17a9971d68c1d4354a03c2e","","Mozilla/5.0 (Windows NT 10.0; Win64; x64) AppleWebKit/537.36 (KHTML, like Gecko) Chrome/107.0.0.0 Safari/537.36","WebKit","Chrome","107.0.0.0","Windows","10.0","null","null","","CORRECT!","","","",""
"","","","","","fixation","23981","html-keyboard-response","24","31353","0.0-4.0-0.4","126","2","2022-11-17 12:51:05","fd252370c17a9971d68c1d4354a03c2e","","Mozilla/5.0 (Windows NT 10.0; Win64; x64) AppleWebKit/537.36 (KHTML, like Gecko) Chrome/107.0.0.0 Safari/537.36","WebKit","Chrome","107.0.0.0","Windows","10.0","null","null","","<p style=""font-size: 48px;"">+</p>","practice","practice_s","",""
"","","","","","sentence","23981","html-keyboard-response","25","32407","0.0-4.0-1.4","126","2","2022-11-17 12:51:05","fd252370c17a9971d68c1d4354a03c2e","","Mozilla/5.0 (Windows NT 10.0; Win64; x64) AppleWebKit/537.36 (KHTML, like Gecko) Chrome/107.0.0.0 Safari/537.36","WebKit","Chrome","107.0.0.0","Windows","10.0","1053"," ","","A bowling ball dropped and smashed a teacup","practice","practice_s","",""
"","","","","","fixation","23981","html-keyboard-response","26","32913","0.0-4.0-2.4","126","2","2022-11-17 12:51:05","fd252370c17a9971d68c1d4354a03c2e","","Mozilla/5.0 (Windows NT 10.0; Win64; x64) AppleWebKit/537.36 (KHTML, like Gecko) Chrome/107.0.0.0 Safari/537.36","WebKit","Chrome","107.0.0.0","Windows","10.0","null","null","","<p style=""font-size: 48px;"">+</p>","practice","practice_s","",""
"","","","","","picture","23981","image-keyboard-response","27","33935","0.0-4.0-3.4","126","2","2022-11-17 12:51:05","fd252370c17a9971d68c1d4354a03c2e","","Mozilla/5.0 (Windows NT 10.0; Win64; x64) AppleWebKit/537.36 (KHTML, like Gecko) Chrome/107.0.0.0 Safari/537.36","WebKit","Chrome","107.0.0.0","Windows","10.0","1021","s","","cupB.jpg","practice","practice_s","true",""
"","","","","","","","html-keyboard-response","28","35938","0.0-4.0-4.4","126","2","2022-11-17 12:51:05","fd252370c17a9971d68c1d4354a03c2e","","Mozilla/5.0 (Windows NT 10.0; Win64; x64) AppleWebKit/537.36 (KHTML, like Gecko) Chrome/107.0.0.0 Safari/537.36","WebKit","Chrome","107.0.0.0","Windows","10.0","null","null","","CORRECT!","","","",""
"","","","","","fixation","23981","html-keyboard-response","29","36945","0.0-4.0-0.5","126","2","2022-11-17 12:51:05","fd252370c17a9971d68c1d4354a03c2e","","Mozilla/5.0 (Windows NT 10.0; Win64; x64) AppleWebKit/537.36 (KHTML, like Gecko) Chrome/107.0.0.0 Safari/537.36","WebKit","Chrome","107.0.0.0","Windows","10.0","null","null","","<p style=""font-size: 48px;"">+</p>","practice","practice_s","",""
"","","","","","sentence","23981","html-keyboard-response","30","38423","0.0-4.0-1.5","126","2","2022-11-17 12:51:05","fd252370c17a9971d68c1d4354a03c2e","","Mozilla/5.0 (Windows NT 10.0; Win64; x64) AppleWebKit/537.36 (KHTML, like Gecko) Chrome/107.0.0.0 Safari/537.36","WebKit","Chrome","107.0.0.0","Windows","10.0","1478"," ","","A knife was placed on a hammer","practice","practice_s","",""
"","","","","","fixation","23981","html-keyboard-response","31","38930","0.0-4.0-2.5","126","2","2022-11-17 12:51:05","fd252370c17a9971d68c1d4354a03c2e","","Mozilla/5.0 (Windows NT 10.0; Win64; x64) AppleWebKit/537.36 (KHTML, like Gecko) Chrome/107.0.0.0 Safari/537.36","WebKit","Chrome","107.0.0.0","Windows","10.0","null","null","","<p style=""font-size: 48px;"">+</p>","practice","practice_s","",""
"","","","","","picture","23981","image-keyboard-response","32","39856","0.0-4.0-3.5","126","2","2022-11-17 12:51:05","fd252370c17a9971d68c1d4354a03c2e","","Mozilla/5.0 (Windows NT 10.0; Win64; x64) AppleWebKit/537.36 (KHTML, like Gecko) Chrome/107.0.0.0 Safari/537.36","WebKit","Chrome","107.0.0.0","Windows","10.0","924","s","","hammerB.jpg","practice","practice_s","true",""
"","","","","","","","html-keyboard-response","33","41861","0.0-4.0-4.5","126","2","2022-11-17 12:51:05","fd252370c17a9971d68c1d4354a03c2e","","Mozilla/5.0 (Windows NT 10.0; Win64; x64) AppleWebKit/537.36 (KHTML, like Gecko) Chrome/107.0.0.0 Safari/537.36","WebKit","Chrome","107.0.0.0","Windows","10.0","null","null","","CORRECT!","","","",""
"","","","","","movetoexp","23981","html-button-response","34","67410","0.0-5.0","126","2","2022-11-17 12:51:05","fd252370c17a9971d68c1d4354a03c2e","","Mozilla/5.0 (Windows NT 10.0; Win64; x64) AppleWebKit/537.36 (KHTML, like Gecko) Chrome/107.0.0.0 Safari/537.36","WebKit","Chrome","107.0.0.0","Windows","10.0","25549","0","","<p style=""font-size:20px;"">You have now completed the practice session! </p>
                    <p style=""font-size:20px;"">You will now move on to the main experiment, where you will not be provided any feedback. </p>
                    <p style=""font-size:20px;"">Remember, you should press <strong>S</strong> if the pictured object was mentioned in the preceding sentence<br> and <strong>N</strong> if the pictured object was not mentioned in the preceding sentence.</p>
                    <p style=""font-size:20px;"">Please click the button below to continue to the main experiment. </p>","","","",""
"","","","","","fixation","23981","html-keyboard-response","35","68417","0.0-6.0-0.0","126","2","2022-11-17 12:51:05","fd252370c17a9971d68c1d4354a03c2e","","Mozilla/5.0 (Windows NT 10.0; Win64; x64) AppleWebKit/537.36 (KHTML, like Gecko) Chrome/107.0.0.0 Safari/537.36","WebKit","Chrome","107.0.0.0","Windows","10.0","null","null","","<p style=""font-size: 48px;"">+</p>","2","Filler","",""
"","","","","","sentence","23981","html-keyboard-response","36","70079","0.0-6.0-1.0","126","2","2022-11-17 12:51:05","fd252370c17a9971d68c1d4354a03c2e","","Mozilla/5.0 (Windows NT 10.0; Win64; x64) AppleWebKit/537.36 (KHTML, like Gecko) Chrome/107.0.0.0 Safari/537.36","WebKit","Chrome","107.0.0.0","Windows","10.0","1661"," ","","A pilot is reading a book","2","Filler","",""
"","","","","","fixation","23981","html-keyboard-response","37","70585","0.0-6.0-2.0","126","2","2022-11-17 12:51:05","fd252370c17a9971d68c1d4354a03c2e","","Mozilla/5.0 (Windows NT 10.0; Win64; x64) AppleWebKit/537.36 (KHTML, like Gecko) Chrome/107.0.0.0 Safari/537.36","WebKit","Chrome","107.0.0.0","Windows","10.0","null","null","","<p style=""font-size: 48px;"">+</p>","2","Filler","",""
"","","","","","picture","23981","image-keyboard-response","38","71375","0.0-6.0-3.0","126","2","2022-11-17 12:51:05","fd252370c17a9971d68c1d4354a03c2e","","Mozilla/5.0 (Windows NT 10.0; Win64; x64) AppleWebKit/537.36 (KHTML, like Gecko) Chrome/107.0.0.0 Safari/537.36","WebKit","Chrome","107.0.0.0","Windows","10.0","789","n","","spoon.jpg","2","Filler","true",""
"","","","","","fixation","23981","html-keyboard-response","39","72389","0.0-6.0-0.1","126","2","2022-11-17 12:51:05","fd252370c17a9971d68c1d4354a03c2e","","Mozilla/5.0 (Windows NT 10.0; Win64; x64) AppleWebKit/537.36 (KHTML, like Gecko) Chrome/107.0.0.0 Safari/537.36","WebKit","Chrome","107.0.0.0","Windows","10.0","null","null","","<p style=""font-size: 48px;"">+</p>","2","Filler","",""
"","","","","","sentence","23981","html-keyboard-response","40","73423","0.0-6.0-1.1","126","2","2022-11-17 12:51:05","fd252370c17a9971d68c1d4354a03c2e","","Mozilla/5.0 (Windows NT 10.0; Win64; x64) AppleWebKit/537.36 (KHTML, like Gecko) Chrome/107.0.0.0 Safari/537.36","WebKit","Chrome","107.0.0.0","Windows","10.0","1033"," ","","A doctor is taking a stethoscope","2","Filler","",""
"","","","","","fixation","23981","html-keyboard-response","41","73930","0.0-6.0-2.1","126","2","2022-11-17 12:51:05","fd252370c17a9971d68c1d4354a03c2e","","Mozilla/5.0 (Windows NT 10.0; Win64; x64) AppleWebKit/537.36 (KHTML, like Gecko) Chrome/107.0.0.0 Safari/537.36","WebKit","Chrome","107.0.0.0","Windows","10.0","null","null","","<p style=""font-size: 48px;"">+</p>","2","Filler","",""
"","","","","","picture","23981","image-keyboard-response","42","74591","0.0-6.0-3.1","126","2","2022-11-17 12:51:05","fd252370c17a9971d68c1d4354a03c2e","","Mozilla/5.0 (Windows NT 10.0; Win64; x64) AppleWebKit/537.36 (KHTML, like Gecko) Chrome/107.0.0.0 Safari/537.36","WebKit","Chrome","107.0.0.0","Windows","10.0","660","n","","matchesbox.jpg","2","Filler","true",""
"","","","","","fixation","23981","html-keyboard-response","43","75594","0.0-6.0-0.2","126","2","2022-11-17 12:51:05","fd252370c17a9971d68c1d4354a03c2e","","Mozilla/5.0 (Windows NT 10.0; Win64; x64) AppleWebKit/537.36 (KHTML, like Gecko) Chrome/107.0.0.0 Safari/537.36","WebKit","Chrome","107.0.0.0","Windows","10.0","null","null","","<p style=""font-size: 48px;"">+</p>","2","Filler","",""
"","","","","","sentence","23981","html-keyboard-response","44","76448","0.0-6.0-1.2","126","2","2022-11-17 12:51:05","fd252370c17a9971d68c1d4354a03c2e","","Mozilla/5.0 (Windows NT 10.0; Win64; x64) AppleWebKit/537.36 (KHTML, like Gecko) Chrome/107.0.0.0 Safari/537.36","WebKit","Chrome","107.0.0.0","Windows","10.0","853"," ","","A keyboard was placed on the bed","2","Filler","",""
"","","","","","fixation","23981","html-keyboard-response","45","76953","0.0-6.0-2.2","126","2","2022-11-17 12:51:05","fd252370c17a9971d68c1d4354a03c2e","","Mozilla/5.0 (Windows NT 10.0; Win64; x64) AppleWebKit/537.36 (KHTML, like Gecko) Chrome/107.0.0.0 Safari/537.36","WebKit","Chrome","107.0.0.0","Windows","10.0","null","null","","<p style=""font-size: 48px;"">+</p>","2","Filler","",""
"","","","","","picture","23981","image-keyboard-response","46","77583","0.0-6.0-3.2","126","2","2022-11-17 12:51:05","fd252370c17a9971d68c1d4354a03c2e","","Mozilla/5.0 (Windows NT 10.0; Win64; x64) AppleWebKit/537.36 (KHTML, like Gecko) Chrome/107.0.0.0 Safari/537.36","WebKit","Chrome","107.0.0.0","Windows","10.0","629","n","","bottlecap.jpg","2","Filler","true",""
"","","","","","fixation","23981","html-keyboard-response","47","78585","0.0-6.0-0.3","126","2","2022-11-17 12:51:05","fd252370c17a9971d68c1d4354a03c2e","","Mozilla/5.0 (Windows NT 10.0; Win64; x64) AppleWebKit/537.36 (KHTML, like Gecko) Chrome/107.0.0.0 Safari/537.36","WebKit","Chrome","107.0.0.0","Windows","10.0","null","null","","<p style=""font-size: 48px;"">+</p>","2","Filler","",""
"","","","","","sentence","23981","html-keyboard-response","48","78855","0.0-6.0-1.3","126","2","2022-11-17 12:51:05","fd252370c17a9971d68c1d4354a03c2e","","Mozilla/5.0 (Windows NT 10.0; Win64; x64) AppleWebKit/537.36 (KHTML, like Gecko) Chrome/107.0.0.0 Safari/537.36","WebKit","Chrome","107.0.0.0","Windows","10.0","269"," ","","An astronaut is putting on a space suit","2","Filler","",""
"","","","","","fixation","23981","html-keyboard-response","49","79363","0.0-6.0-2.3","126","2","2022-11-17 12:51:05","fd252370c17a9971d68c1d4354a03c2e","","Mozilla/5.0 (Windows NT 10.0; Win64; x64) AppleWebKit/537.36 (KHTML, like Gecko) Chrome/107.0.0.0 Safari/537.36","WebKit","Chrome","107.0.0.0","Windows","10.0","null","null","","<p style=""font-size: 48px;"">+</p>","2","Filler","",""
"","","","","","picture","23981","image-keyboard-response","50","80143","0.0-6.0-3.3","126","2","2022-11-17 12:51:05","fd252370c17a9971d68c1d4354a03c2e","","Mozilla/5.0 (Windows NT 10.0; Win64; x64) AppleWebKit/537.36 (KHTML, like Gecko) Chrome/107.0.0.0 Safari/537.36","WebKit","Chrome","107.0.0.0","Windows","10.0","779","s","","spacesuit.jpg","2","Filler","true",""
"","","","","","fixation","23981","html-keyboard-response","51","81146","0.0-6.0-0.4","126","2","2022-11-17 12:51:05","fd252370c17a9971d68c1d4354a03c2e","","Mozilla/5.0 (Windows NT 10.0; Win64; x64) AppleWebKit/537.36 (KHTML, like Gecko) Chrome/107.0.0.0 Safari/537.36","WebKit","Chrome","107.0.0.0","Windows","10.0","null","null","","<p style=""font-size: 48px;"">+</p>","2","Filler","",""
"","","","","","sentence","23981","html-keyboard-response","52","82143","0.0-6.0-1.4","126","2","2022-11-17 12:51:05","fd252370c17a9971d68c1d4354a03c2e","","Mozilla/5.0 (Windows NT 10.0; Win64; x64) AppleWebKit/537.36 (KHTML, like Gecko) Chrome/107.0.0.0 Safari/537.36","WebKit","Chrome","107.0.0.0","Windows","10.0","996"," ","","A panda is resting on a tree","2","Filler","",""
"","","","","","fixation","23981","html-keyboard-response","53","82649","0.0-6.0-2.4","126","2","2022-11-17 12:51:05","fd252370c17a9971d68c1d4354a03c2e","","Mozilla/5.0 (Windows NT 10.0; Win64; x64) AppleWebKit/537.36 (KHTML, like Gecko) Chrome/107.0.0.0 Safari/537.36","WebKit","Chrome","107.0.0.0","Windows","10.0","null","null","","<p style=""font-size: 48px;"">+</p>","2","Filler","",""
"","","","","","picture","23981","image-keyboard-response","54","83191","0.0-6.0-3.4","126","2","2022-11-17 12:51:05","fd252370c17a9971d68c1d4354a03c2e","","Mozilla/5.0 (Windows NT 10.0; Win64; x64) AppleWebKit/537.36 (KHTML, like Gecko) Chrome/107.0.0.0 Safari/537.36","WebKit","Chrome","107.0.0.0","Windows","10.0","541","n","","dollar.jpg","2","Filler","true",""
"","","","","","fixation","23981","html-keyboard-response","55","84194","0.0-6.0-0.5","126","2","2022-11-17 12:51:05","fd252370c17a9971d68c1d4354a03c2e","","Mozilla/5.0 (Windows NT 10.0; Win64; x64) AppleWebKit/537.36 (KHTML, like Gecko) Chrome/107.0.0.0 Safari/537.36","WebKit","Chrome","107.0.0.0","Windows","10.0","null","null","","<p style=""font-size: 48px;"">+</p>","2","Heavy_Matched","",""
"","","","","","sentence","23981","html-keyboard-response","56","85335","0.0-6.0-1.5","126","2","2022-11-17 12:51:05","fd252370c17a9971d68c1d4354a03c2e","","Mozilla/5.0 (Windows NT 10.0; Win64; x64) AppleWebKit/537.36 (KHTML, like Gecko) Chrome/107.0.0.0 Safari/537.36","WebKit","Chrome","107.0.0.0","Windows","10.0","1140"," ","","A bowling ball dropped and smashed a blackberry","2","Heavy_Matched","",""
"","","","","","fixation","23981","html-keyboard-response","57","85842","0.0-6.0-2.5","126","2","2022-11-17 12:51:05","fd252370c17a9971d68c1d4354a03c2e","","Mozilla/5.0 (Windows NT 10.0; Win64; x64) AppleWebKit/537.36 (KHTML, like Gecko) Chrome/107.0.0.0 Safari/537.36","WebKit","Chrome","107.0.0.0","Windows","10.0","null","null","","<p style=""font-size: 48px;"">+</p>","2","Heavy_Matched","",""
"","","","","","picture","23981","image-keyboard-response","58","86871","0.0-6.0-3.5","126","2","2022-11-17 12:51:05","fd252370c17a9971d68c1d4354a03c2e","","Mozilla/5.0 (Windows NT 10.0; Win64; x64) AppleWebKit/537.36 (KHTML, like Gecko) Chrome/107.0.0.0 Safari/537.36","WebKit","Chrome","107.0.0.0","Windows","10.0","1028","s","","blackberryS.jpg","2","Heavy_Matched","true",""
"","","","","","fixation","23981","html-keyboard-response","59","87874","0.0-6.0-0.6","126","2","2022-11-17 12:51:05","fd252370c17a9971d68c1d4354a03c2e","","Mozilla/5.0 (Windows NT 10.0; Win64; x64) AppleWebKit/537.36 (KHTML, like Gecko) Chrome/107.0.0.0 Safari/537.36","WebKit","Chrome","107.0.0.0","Windows","10.0","null","null","","<p style=""font-size: 48px;"">+</p>","2","Heavy_Contradictory","",""
"","","","","","sentence","23981","html-keyboard-response","60","88887","0.0-6.0-1.6","126","2","2022-11-17 12:51:05","fd252370c17a9971d68c1d4354a03c2e","","Mozilla/5.0 (Windows NT 10.0; Win64; x64) AppleWebKit/537.36 (KHTML, like Gecko) Chrome/107.0.0.0 Safari/537.36","WebKit","Chrome","107.0.0.0","Windows","10.0","1012"," ","","A bowling ball dropped and touched a mirror","2","Heavy_Contradictory","",""
"","","","","","fixation","23981","html-keyboard-response","61","89400","0.0-6.0-2.6","126","2","2022-11-17 12:51:05","fd252370c17a9971d68c1d4354a03c2e","","Mozilla/5.0 (Windows NT 10.0; Win64; x64) AppleWebKit/537.36 (KHTML, like Gecko) Chrome/107.0.0.0 Safari/537.36","WebKit","Chrome","107.0.0.0","Windows","10.0","null","null","","<p style=""font-size: 48px;"">+</p>","2","Heavy_Contradictory","",""
"","","","","","picture","23981","image-keyboard-response","62","90527","0.0-6.0-3.6","126","2","2022-11-17 12:51:05","fd252370c17a9971d68c1d4354a03c2e","","Mozilla/5.0 (Windows NT 10.0; Win64; x64) AppleWebKit/537.36 (KHTML, like Gecko) Chrome/107.0.0.0 Safari/537.36","WebKit","Chrome","107.0.0.0","Windows","10.0","1126","s","","mirrorS.jpg","2","Heavy_Contradictory","true",""
"","","","","","fixation","23981","html-keyboard-response","63","91542","0.0-6.0-0.7","126","2","2022-11-17 12:51:05","fd252370c17a9971d68c1d4354a03c2e","","Mozilla/5.0 (Windows NT 10.0; Win64; x64) AppleWebKit/537.36 (KHTML, like Gecko) Chrome/107.0.0.0 Safari/537.36","WebKit","Chrome","107.0.0.0","Windows","10.0","null","null","","<p style=""font-size: 48px;"">+</p>","2","Filler","",""
"","","","","","sentence","23981","html-keyboard-response","64","104544","0.0-6.0-1.7","126","2","2022-11-17 12:51:05","fd252370c17a9971d68c1d4354a03c2e","","Mozilla/5.0 (Windows NT 10.0; Win64; x64) AppleWebKit/537.36 (KHTML, like Gecko) Chrome/107.0.0.0 Safari/537.36","WebKit","Chrome","107.0.0.0","Windows","10.0","13000"," ","","A fork was placed on the plate","2","Filler","",""
"","","","","","fixation","23981","html-keyboard-response","65","105050","0.0-6.0-2.7","126","2","2022-11-17 12:51:05","fd252370c17a9971d68c1d4354a03c2e","","Mozilla/5.0 (Windows NT 10.0; Win64; x64) AppleWebKit/537.36 (KHTML, like Gecko) Chrome/107.0.0.0 Safari/537.36","WebKit","Chrome","107.0.0.0","Windows","10.0","null","null","","<p style=""font-size: 48px;"">+</p>","2","Filler","",""
"","","","","","picture","23981","image-keyboard-response","66","105871","0.0-6.0-3.7","126","2","2022-11-17 12:51:05","fd252370c17a9971d68c1d4354a03c2e","","Mozilla/5.0 (Windows NT 10.0; Win64; x64) AppleWebKit/537.36 (KHTML, like Gecko) Chrome/107.0.0.0 Safari/537.36","WebKit","Chrome","107.0.0.0","Windows","10.0","820","s","","plate.jpg","2","Filler","true",""
"","","","","","fixation","23981","html-keyboard-response","67","106873","0.0-6.0-0.8","126","2","2022-11-17 12:51:05","fd252370c17a9971d68c1d4354a03c2e","","Mozilla/5.0 (Windows NT 10.0; Win64; x64) AppleWebKit/537.36 (KHTML, like Gecko) Chrome/107.0.0.0 Safari/537.36","WebKit","Chrome","107.0.0.0","Windows","10.0","null","null","","<p style=""font-size: 48px;"">+</p>","2","Filler","",""
"","","","","","sentence","23981","html-keyboard-response","68","107599","0.0-6.0-1.8","126","2","2022-11-17 12:51:05","fd252370c17a9971d68c1d4354a03c2e","","Mozilla/5.0 (Windows NT 10.0; Win64; x64) AppleWebKit/537.36 (KHTML, like Gecko) Chrome/107.0.0.0 Safari/537.36","WebKit","Chrome","107.0.0.0","Windows","10.0","725"," ","","A parrot is eating an apple","2","Filler","",""
"","","","","","fixation","23981","html-keyboard-response","69","108106","0.0-6.0-2.8","126","2","2022-11-17 12:51:05","fd252370c17a9971d68c1d4354a03c2e","","Mozilla/5.0 (Windows NT 10.0; Win64; x64) AppleWebKit/537.36 (KHTML, like Gecko) Chrome/107.0.0.0 Safari/537.36","WebKit","Chrome","107.0.0.0","Windows","10.0","null","null","","<p style=""font-size: 48px;"">+</p>","2","Filler","",""
"","","","","","picture","23981","image-keyboard-response","70","109479","0.0-6.0-3.8","126","2","2022-11-17 12:51:05","fd252370c17a9971d68c1d4354a03c2e","","Mozilla/5.0 (Windows NT 10.0; Win64; x64) AppleWebKit/537.36 (KHTML, like Gecko) Chrome/107.0.0.0 Safari/537.36","WebKit","Chrome","107.0.0.0","Windows","10.0","1372","n","","shirt.jpg","2","Filler","true",""
"","","","","","fixation","23981","html-keyboard-response","71","110481","0.0-6.0-0.9","126","2","2022-11-17 12:51:05","fd252370c17a9971d68c1d4354a03c2e","","Mozilla/5.0 (Windows NT 10.0; Win64; x64) AppleWebKit/537.36 (KHTML, like Gecko) Chrome/107.0.0.0 Safari/537.36","WebKit","Chrome","107.0.0.0","Windows","10.0","null","null","","<p style=""font-size: 48px;"">+</p>","2","Heavy_Contradictory","",""
"","","","","","sentence","23981","html-keyboard-response","72","111559","0.0-6.0-1.9","126","2","2022-11-17 12:51:05","fd252370c17a9971d68c1d4354a03c2e","","Mozilla/5.0 (Windows NT 10.0; Win64; x64) AppleWebKit/537.36 (KHTML, like Gecko) Chrome/107.0.0.0 Safari/537.36","WebKit","Chrome","107.0.0.0","Windows","10.0","1077"," ","","A bowling ball dropped and touched a light bulb","2","Heavy_Contradictory","",""
"","","","","","fixation","23981","html-keyboard-response","73","112066","0.0-6.0-2.9","126","2","2022-11-17 12:51:05","fd252370c17a9971d68c1d4354a03c2e","","Mozilla/5.0 (Windows NT 10.0; Win64; x64) AppleWebKit/537.36 (KHTML, like Gecko) Chrome/107.0.0.0 Safari/537.36","WebKit","Chrome","107.0.0.0","Windows","10.0","null","null","","<p style=""font-size: 48px;"">+</p>","2","Heavy_Contradictory","",""
"","","","","","picture","23981","image-keyboard-response","74","112807","0.0-6.0-3.9","126","2","2022-11-17 12:51:05","fd252370c17a9971d68c1d4354a03c2e","","Mozilla/5.0 (Windows NT 10.0; Win64; x64) AppleWebKit/537.36 (KHTML, like Gecko) Chrome/107.0.0.0 Safari/537.36","WebKit","Chrome","107.0.0.0","Windows","10.0","739","s","","lampS.jpg","2","Heavy_Contradictory","true",""
"","","","","","fixation","23981","html-keyboard-response","75","113809","0.0-6.0-0.10","126","2","2022-11-17 12:51:05","fd252370c17a9971d68c1d4354a03c2e","","Mozilla/5.0 (Windows NT 10.0; Win64; x64) AppleWebKit/537.36 (KHTML, like Gecko) Chrome/107.0.0.0 Safari/537.36","WebKit","Chrome","107.0.0.0","Windows","10.0","null","null","","<p style=""font-size: 48px;"">+</p>","2","Light_Matched","",""
"","","","","","sentence","23981","html-keyboard-response","76","114911","0.0-6.0-1.10","126","2","2022-11-17 12:51:05","fd252370c17a9971d68c1d4354a03c2e","","Mozilla/5.0 (Windows NT 10.0; Win64; x64) AppleWebKit/537.36 (KHTML, like Gecko) Chrome/107.0.0.0 Safari/537.36","WebKit","Chrome","107.0.0.0","Windows","10.0","1101"," ","","A balloon dropped and touched a strawberry","2","Light_Matched","",""
"","","","","","fixation","23981","html-keyboard-response","77","115418","0.0-6.0-2.10","126","2","2022-11-17 12:51:05","fd252370c17a9971d68c1d4354a03c2e","","Mozilla/5.0 (Windows NT 10.0; Win64; x64) AppleWebKit/537.36 (KHTML, like Gecko) Chrome/107.0.0.0 Safari/537.36","WebKit","Chrome","107.0.0.0","Windows","10.0","null","null","","<p style=""font-size: 48px;"">+</p>","2","Light_Matched","",""
"","","","","","picture","23981","image-keyboard-response","78","115887","0.0-6.0-3.10","126","2","2022-11-17 12:51:05","fd252370c17a9971d68c1d4354a03c2e","","Mozilla/5.0 (Windows NT 10.0; Win64; x64) AppleWebKit/537.36 (KHTML, like Gecko) Chrome/107.0.0.0 Safari/537.36","WebKit","Chrome","107.0.0.0","Windows","10.0","467","s","","strawberryS.jpg","2","Light_Matched","true",""
"","","","","","fixation","23981","html-keyboard-response","79","116890","0.0-6.0-0.11","126","2","2022-11-17 12:51:05","fd252370c17a9971d68c1d4354a03c2e","","Mozilla/5.0 (Windows NT 10.0; Win64; x64) AppleWebKit/537.36 (KHTML, like Gecko) Chrome/107.0.0.0 Safari/537.36","WebKit","Chrome","107.0.0.0","Windows","10.0","null","null","","<p style=""font-size: 48px;"">+</p>","2","Heavy_Matched","",""
"","","","","","sentence","23981","html-keyboard-response","80","118079","0.0-6.0-1.11","126","2","2022-11-17 12:51:05","fd252370c17a9971d68c1d4354a03c2e","","Mozilla/5.0 (Windows NT 10.0; Win64; x64) AppleWebKit/537.36 (KHTML, like Gecko) Chrome/107.0.0.0 Safari/537.36","WebKit","Chrome","107.0.0.0","Windows","10.0","1189"," ","","A bowling ball dropped and smashed glasses","2","Heavy_Matched","",""
"","","","","","fixation","23981","html-keyboard-response","81","118585","0.0-6.0-2.11","126","2","2022-11-17 12:51:05","fd252370c17a9971d68c1d4354a03c2e","","Mozilla/5.0 (Windows NT 10.0; Win64; x64) AppleWebKit/537.36 (KHTML, like Gecko) Chrome/107.0.0.0 Safari/537.36","WebKit","Chrome","107.0.0.0","Windows","10.0","null","null","","<p style=""font-size: 48px;"">+</p>","2","Heavy_Matched","",""
"","","","","","picture","23981","image-keyboard-response","82","119239","0.0-6.0-3.11","126","2","2022-11-17 12:51:05","fd252370c17a9971d68c1d4354a03c2e","","Mozilla/5.0 (Windows NT 10.0; Win64; x64) AppleWebKit/537.36 (KHTML, like Gecko) Chrome/107.0.0.0 Safari/537.36","WebKit","Chrome","107.0.0.0","Windows","10.0","652","s","","glassesS.jpg","2","Heavy_Matched","true",""
"","","","","","fixation","23981","html-keyboard-response","83","120242","0.0-6.0-0.12","126","2","2022-11-17 12:51:05","fd252370c17a9971d68c1d4354a03c2e","","Mozilla/5.0 (Windows NT 10.0; Win64; x64) AppleWebKit/537.36 (KHTML, like Gecko) Chrome/107.0.0.0 Safari/537.36","WebKit","Chrome","107.0.0.0","Windows","10.0","null","null","","<p style=""font-size: 48px;"">+</p>","2","Filler","",""
"","","","","","sentence","23981","html-keyboard-response","84","121167","0.0-6.0-1.12","126","2","2022-11-17 12:51:05","fd252370c17a9971d68c1d4354a03c2e","","Mozilla/5.0 (Windows NT 10.0; Win64; x64) AppleWebKit/537.36 (KHTML, like Gecko) Chrome/107.0.0.0 Safari/537.36","WebKit","Chrome","107.0.0.0","Windows","10.0","923"," ","","An elephant is eating a watermelon","2","Filler","",""
"","","","","","fixation","23981","html-keyboard-response","85","121673","0.0-6.0-2.12","126","2","2022-11-17 12:51:05","fd252370c17a9971d68c1d4354a03c2e","","Mozilla/5.0 (Windows NT 10.0; Win64; x64) AppleWebKit/537.36 (KHTML, like Gecko) Chrome/107.0.0.0 Safari/537.36","WebKit","Chrome","107.0.0.0","Windows","10.0","null","null","","<p style=""font-size: 48px;"">+</p>","2","Filler","",""
"","","","","","picture","23981","image-keyboard-response","86","122351","0.0-6.0-3.12","126","2","2022-11-17 12:51:05","fd252370c17a9971d68c1d4354a03c2e","","Mozilla/5.0 (Windows NT 10.0; Win64; x64) AppleWebKit/537.36 (KHTML, like Gecko) Chrome/107.0.0.0 Safari/537.36","WebKit","Chrome","107.0.0.0","Windows","10.0","676","s","","watermelon.jpg","2","Filler","true",""
"","","","","","fixation","23981","html-keyboard-response","87","123354","0.0-6.0-0.13","126","2","2022-11-17 12:51:05","fd252370c17a9971d68c1d4354a03c2e","","Mozilla/5.0 (Windows NT 10.0; Win64; x64) AppleWebKit/537.36 (KHTML, like Gecko) Chrome/107.0.0.0 Safari/537.36","WebKit","Chrome","107.0.0.0","Windows","10.0","null","null","","<p style=""font-size: 48px;"">+</p>","2","Light_Matched","",""
"","","","","","sentence","23981","html-keyboard-response","88","124159","0.0-6.0-1.13","126","2","2022-11-17 12:51:05","fd252370c17a9971d68c1d4354a03c2e","","Mozilla/5.0 (Windows NT 10.0; Win64; x64) AppleWebKit/537.36 (KHTML, like Gecko) Chrome/107.0.0.0 Safari/537.36","WebKit","Chrome","107.0.0.0","Windows","10.0","804"," ","","A balloon dropped and touched a tomato","2","Light_Matched","",""
"","","","","","fixation","23981","html-keyboard-response","89","124665","0.0-6.0-2.13","126","2","2022-11-17 12:51:05","fd252370c17a9971d68c1d4354a03c2e","","Mozilla/5.0 (Windows NT 10.0; Win64; x64) AppleWebKit/537.36 (KHTML, like Gecko) Chrome/107.0.0.0 Safari/537.36","WebKit","Chrome","107.0.0.0","Windows","10.0","null","null","","<p style=""font-size: 48px;"">+</p>","2","Light_Matched","",""
"","","","","","picture","23981","image-keyboard-response","90","125247","0.0-6.0-3.13","126","2","2022-11-17 12:51:05","fd252370c17a9971d68c1d4354a03c2e","","Mozilla/5.0 (Windows NT 10.0; Win64; x64) AppleWebKit/537.36 (KHTML, like Gecko) Chrome/107.0.0.0 Safari/537.36","WebKit","Chrome","107.0.0.0","Windows","10.0","580","s","","tomatoS.jpg","2","Light_Matched","true",""
"","","","","","fixation","23981","html-keyboard-response","91","126258","0.0-6.0-0.14","126","2","2022-11-17 12:51:05","fd252370c17a9971d68c1d4354a03c2e","","Mozilla/5.0 (Windows NT 10.0; Win64; x64) AppleWebKit/537.36 (KHTML, like Gecko) Chrome/107.0.0.0 Safari/537.36","WebKit","Chrome","107.0.0.0","Windows","10.0","null","null","","<p style=""font-size: 48px;"">+</p>","2","Filler","",""
"","","","","","sentence","23981","html-keyboard-response","92","127063","0.0-6.0-1.14","126","2","2022-11-17 12:51:05","fd252370c17a9971d68c1d4354a03c2e","","Mozilla/5.0 (Windows NT 10.0; Win64; x64) AppleWebKit/537.36 (KHTML, like Gecko) Chrome/107.0.0.0 Safari/537.36","WebKit","Chrome","107.0.0.0","Windows","10.0","803"," ","","An old man is hammering a nail","2","Filler","",""
"","","","","","fixation","23981","html-keyboard-response","93","127570","0.0-6.0-2.14","126","2","2022-11-17 12:51:05","fd252370c17a9971d68c1d4354a03c2e","","Mozilla/5.0 (Windows NT 10.0; Win64; x64) AppleWebKit/537.36 (KHTML, like Gecko) Chrome/107.0.0.0 Safari/537.36","WebKit","Chrome","107.0.0.0","Windows","10.0","null","null","","<p style=""font-size: 48px;"">+</p>","2","Filler","",""
"","","","","","picture","23981","image-keyboard-response","94","128575","0.0-6.0-3.14","126","2","2022-11-17 12:51:05","fd252370c17a9971d68c1d4354a03c2e","","Mozilla/5.0 (Windows NT 10.0; Win64; x64) AppleWebKit/537.36 (KHTML, like Gecko) Chrome/107.0.0.0 Safari/537.36","WebKit","Chrome","107.0.0.0","Windows","10.0","1003","s","","nail.jpg","2","Filler","true",""
"","","","","","fixation","23981","html-keyboard-response","95","129595","0.0-6.0-0.15","126","2","2022-11-17 12:51:05","fd252370c17a9971d68c1d4354a03c2e","","Mozilla/5.0 (Windows NT 10.0; Win64; x64) AppleWebKit/537.36 (KHTML, like Gecko) Chrome/107.0.0.0 Safari/537.36","WebKit","Chrome","107.0.0.0","Windows","10.0","null","null","","<p style=""font-size: 48px;"">+</p>","2","Filler","",""
"","","","","","sentence","23981","html-keyboard-response","96","130535","0.0-6.0-1.15","126","2","2022-11-17 12:51:05","fd252370c17a9971d68c1d4354a03c2e","","Mozilla/5.0 (Windows NT 10.0; Win64; x64) AppleWebKit/537.36 (KHTML, like Gecko) Chrome/107.0.0.0 Safari/537.36","WebKit","Chrome","107.0.0.0","Windows","10.0","939"," ","","A musician is playing a guitar","2","Filler","",""
"","","","","","fixation","23981","html-keyboard-response","97","131043","0.0-6.0-2.15","126","2","2022-11-17 12:51:05","fd252370c17a9971d68c1d4354a03c2e","","Mozilla/5.0 (Windows NT 10.0; Win64; x64) AppleWebKit/537.36 (KHTML, like Gecko) Chrome/107.0.0.0 Safari/537.36","WebKit","Chrome","107.0.0.0","Windows","10.0","null","null","","<p style=""font-size: 48px;"">+</p>","2","Filler","",""
"","","","","","picture","23981","image-keyboard-response","98","131495","0.0-6.0-3.15","126","2","2022-11-17 12:51:05","fd252370c17a9971d68c1d4354a03c2e","","Mozilla/5.0 (Windows NT 10.0; Win64; x64) AppleWebKit/537.36 (KHTML, like Gecko) Chrome/107.0.0.0 Safari/537.36","WebKit","Chrome","107.0.0.0","Windows","10.0","451","s","","guitar.jpg","2","Filler","true",""
"","","","","","fixation","23981","html-keyboard-response","99","132506","0.0-6.0-0.16","126","2","2022-11-17 12:51:05","fd252370c17a9971d68c1d4354a03c2e","","Mozilla/5.0 (Windows NT 10.0; Win64; x64) AppleWebKit/537.36 (KHTML, like Gecko) Chrome/107.0.0.0 Safari/537.36","WebKit","Chrome","107.0.0.0","Windows","10.0","null","null","","<p style=""font-size: 48px;"">+</p>","2","Filler","",""
"","","","","","sentence","23981","html-keyboard-response","100","132751","0.0-6.0-1.16","126","2","2022-11-17 12:51:05","fd252370c17a9971d68c1d4354a03c2e","","Mozilla/5.0 (Windows NT 10.0; Win64; x64) AppleWebKit/537.36 (KHTML, like Gecko) Chrome/107.0.0.0 Safari/537.36","WebKit","Chrome","107.0.0.0","Windows","10.0","243"," ","","A towel was placed on the TV","2","Filler","",""
"","","","","","fixation","23981","html-keyboard-response","101","133257","0.0-6.0-2.16","126","2","2022-11-17 12:51:05","fd252370c17a9971d68c1d4354a03c2e","","Mozilla/5.0 (Windows NT 10.0; Win64; x64) AppleWebKit/537.36 (KHTML, like Gecko) Chrome/107.0.0.0 Safari/537.36","WebKit","Chrome","107.0.0.0","Windows","10.0","null","null","","<p style=""font-size: 48px;"">+</p>","2","Filler","",""
"","","","","","picture","23981","image-keyboard-response","102","134031","0.0-6.0-3.16","126","2","2022-11-17 12:51:05","fd252370c17a9971d68c1d4354a03c2e","","Mozilla/5.0 (Windows NT 10.0; Win64; x64) AppleWebKit/537.36 (KHTML, like Gecko) Chrome/107.0.0.0 Safari/537.36","WebKit","Chrome","107.0.0.0","Windows","10.0","772","n","","pencil.jpg","2","Filler","true",""
"","","","","","fixation","23981","html-keyboard-response","103","135043","0.0-6.0-0.17","126","2","2022-11-17 12:51:05","fd252370c17a9971d68c1d4354a03c2e","","Mozilla/5.0 (Windows NT 10.0; Win64; x64) AppleWebKit/537.36 (KHTML, like Gecko) Chrome/107.0.0.0 Safari/537.36","WebKit","Chrome","107.0.0.0","Windows","10.0","null","null","","<p style=""font-size: 48px;"">+</p>","2","Filler","",""
"","","","","","sentence","23981","html-keyboard-response","104","135783","0.0-6.0-1.17","126","2","2022-11-17 12:51:05","fd252370c17a9971d68c1d4354a03c2e","","Mozilla/5.0 (Windows NT 10.0; Win64; x64) AppleWebKit/537.36 (KHTML, like Gecko) Chrome/107.0.0.0 Safari/537.36","WebKit","Chrome","107.0.0.0","Windows","10.0","739"," ","","A giraffe is playing with a zebra","2","Filler","",""
"","","","","","fixation","23981","html-keyboard-response","105","136304","0.0-6.0-2.17","126","2","2022-11-17 12:51:05","fd252370c17a9971d68c1d4354a03c2e","","Mozilla/5.0 (Windows NT 10.0; Win64; x64) AppleWebKit/537.36 (KHTML, like Gecko) Chrome/107.0.0.0 Safari/537.36","WebKit","Chrome","107.0.0.0","Windows","10.0","null","null","","<p style=""font-size: 48px;"">+</p>","2","Filler","",""
"","","","","","picture","23981","image-keyboard-response","106","136928","0.0-6.0-3.17","126","2","2022-11-17 12:51:05","fd252370c17a9971d68c1d4354a03c2e","","Mozilla/5.0 (Windows NT 10.0; Win64; x64) AppleWebKit/537.36 (KHTML, like Gecko) Chrome/107.0.0.0 Safari/537.36","WebKit","Chrome","107.0.0.0","Windows","10.0","623","n","","wallet.jpg","2","Filler","true",""
"","","","","","fixation","23981","html-keyboard-response","107","137937","0.0-6.0-0.18","126","2","2022-11-17 12:51:05","fd252370c17a9971d68c1d4354a03c2e","","Mozilla/5.0 (Windows NT 10.0; Win64; x64) AppleWebKit/537.36 (KHTML, like Gecko) Chrome/107.0.0.0 Safari/537.36","WebKit","Chrome","107.0.0.0","Windows","10.0","null","null","","<p style=""font-size: 48px;"">+</p>","2","Filler","",""
"","","","","","sentence","23981","html-keyboard-response","108","138791","0.0-6.0-1.18","126","2","2022-11-17 12:51:05","fd252370c17a9971d68c1d4354a03c2e","","Mozilla/5.0 (Windows NT 10.0; Win64; x64) AppleWebKit/537.36 (KHTML, like Gecko) Chrome/107.0.0.0 Safari/537.36","WebKit","Chrome","107.0.0.0","Windows","10.0","853"," ","","A cat is drinking water from a bowl","2","Filler","",""
"","","","","","fixation","23981","html-keyboard-response","109","139298","0.0-6.0-2.18","126","2","2022-11-17 12:51:05","fd252370c17a9971d68c1d4354a03c2e","","Mozilla/5.0 (Windows NT 10.0; Win64; x64) AppleWebKit/537.36 (KHTML, like Gecko) Chrome/107.0.0.0 Safari/537.36","WebKit","Chrome","107.0.0.0","Windows","10.0","null","null","","<p style=""font-size: 48px;"">+</p>","2","Filler","",""
"","","","","","picture","23981","image-keyboard-response","110","140095","0.0-6.0-3.18","126","2","2022-11-17 12:51:05","fd252370c17a9971d68c1d4354a03c2e","","Mozilla/5.0 (Windows NT 10.0; Win64; x64) AppleWebKit/537.36 (KHTML, like Gecko) Chrome/107.0.0.0 Safari/537.36","WebKit","Chrome","107.0.0.0","Windows","10.0","796","s","","bowl.jpg","2","Filler","true",""
"","","","","","fixation","23981","html-keyboard-response","111","141098","0.0-6.0-0.19","126","2","2022-11-17 12:51:05","fd252370c17a9971d68c1d4354a03c2e","","Mozilla/5.0 (Windows NT 10.0; Win64; x64) AppleWebKit/537.36 (KHTML, like Gecko) Chrome/107.0.0.0 Safari/537.36","WebKit","Chrome","107.0.0.0","Windows","10.0","null","null","","<p style=""font-size: 48px;"">+</p>","2","Filler","",""
"","","","","","sentence","23981","html-keyboard-response","112","141871","0.0-6.0-1.19","126","2","2022-11-17 12:51:05","fd252370c17a9971d68c1d4354a03c2e","","Mozilla/5.0 (Windows NT 10.0; Win64; x64) AppleWebKit/537.36 (KHTML, like Gecko) Chrome/107.0.0.0 Safari/537.36","WebKit","Chrome","107.0.0.0","Windows","10.0","772"," ","","A president is writing in the notebook","2","Filler","",""
"","","","","","fixation","23981","html-keyboard-response","113","142384","0.0-6.0-2.19","126","2","2022-11-17 12:51:05","fd252370c17a9971d68c1d4354a03c2e","","Mozilla/5.0 (Windows NT 10.0; Win64; x64) AppleWebKit/537.36 (KHTML, like Gecko) Chrome/107.0.0.0 Safari/537.36","WebKit","Chrome","107.0.0.0","Windows","10.0","null","null","","<p style=""font-size: 48px;"">+</p>","2","Filler","",""
"","","","","","picture","23981","image-keyboard-response","114","143031","0.0-6.0-3.19","126","2","2022-11-17 12:51:05","fd252370c17a9971d68c1d4354a03c2e","","Mozilla/5.0 (Windows NT 10.0; Win64; x64) AppleWebKit/537.36 (KHTML, like Gecko) Chrome/107.0.0.0 Safari/537.36","WebKit","Chrome","107.0.0.0","Windows","10.0","646","n","","can.jpg","2","Filler","true",""
"","","","","","fixation","23981","html-keyboard-response","115","144042","0.0-6.0-0.20","126","2","2022-11-17 12:51:05","fd252370c17a9971d68c1d4354a03c2e","","Mozilla/5.0 (Windows NT 10.0; Win64; x64) AppleWebKit/537.36 (KHTML, like Gecko) Chrome/107.0.0.0 Safari/537.36","WebKit","Chrome","107.0.0.0","Windows","10.0","null","null","","<p style=""font-size: 48px;"">+</p>","2","Filler","",""
"","","","","","sentence","23981","html-keyboard-response","116","144535","0.0-6.0-1.20","126","2","2022-11-17 12:51:05","fd252370c17a9971d68c1d4354a03c2e","","Mozilla/5.0 (Windows NT 10.0; Win64; x64) AppleWebKit/537.36 (KHTML, like Gecko) Chrome/107.0.0.0 Safari/537.36","WebKit","Chrome","107.0.0.0","Windows","10.0","492"," ","","A photographer is taking a photo of a lion","2","Filler","",""
"","","","","","fixation","23981","html-keyboard-response","117","145042","0.0-6.0-2.20","126","2","2022-11-17 12:51:05","fd252370c17a9971d68c1d4354a03c2e","","Mozilla/5.0 (Windows NT 10.0; Win64; x64) AppleWebKit/537.36 (KHTML, like Gecko) Chrome/107.0.0.0 Safari/537.36","WebKit","Chrome","107.0.0.0","Windows","10.0","null","null","","<p style=""font-size: 48px;"">+</p>","2","Filler","",""
"","","","","","picture","23981","image-keyboard-response","118","145671","0.0-6.0-3.20","126","2","2022-11-17 12:51:05","fd252370c17a9971d68c1d4354a03c2e","","Mozilla/5.0 (Windows NT 10.0; Win64; x64) AppleWebKit/537.36 (KHTML, like Gecko) Chrome/107.0.0.0 Safari/537.36","WebKit","Chrome","107.0.0.0","Windows","10.0","628","n","","lion.jpg","2","Filler","false",""
"","","","","","fixation","23981","html-keyboard-response","119","146682","0.0-6.0-0.21","126","2","2022-11-17 12:51:05","fd252370c17a9971d68c1d4354a03c2e","","Mozilla/5.0 (Windows NT 10.0; Win64; x64) AppleWebKit/537.36 (KHTML, like Gecko) Chrome/107.0.0.0 Safari/537.36","WebKit","Chrome","107.0.0.0","Windows","10.0","null","null","","<p style=""font-size: 48px;"">+</p>","2","Filler","",""
"","","","","","sentence","23981","html-keyboard-response","120","148991","0.0-6.0-1.21","126","2","2022-11-17 12:51:05","fd252370c17a9971d68c1d4354a03c2e","","Mozilla/5.0 (Windows NT 10.0; Win64; x64) AppleWebKit/537.36 (KHTML, like Gecko) Chrome/107.0.0.0 Safari/537.36","WebKit","Chrome","107.0.0.0","Windows","10.0","2308"," ","","A remote was placed on the rug","2","Filler","",""
"","","","","","fixation","23981","html-keyboard-response","121","149497","0.0-6.0-2.21","126","2","2022-11-17 12:51:05","fd252370c17a9971d68c1d4354a03c2e","","Mozilla/5.0 (Windows NT 10.0; Win64; x64) AppleWebKit/537.36 (KHTML, like Gecko) Chrome/107.0.0.0 Safari/537.36","WebKit","Chrome","107.0.0.0","Windows","10.0","null","null","","<p style=""font-size: 48px;"">+</p>","2","Filler","",""
"","","","","","picture","23981","image-keyboard-response","122","150623","0.0-6.0-3.21","126","2","2022-11-17 12:51:05","fd252370c17a9971d68c1d4354a03c2e","","Mozilla/5.0 (Windows NT 10.0; Win64; x64) AppleWebKit/537.36 (KHTML, like Gecko) Chrome/107.0.0.0 Safari/537.36","WebKit","Chrome","107.0.0.0","Windows","10.0","1124","n","","CD.jpg","2","Filler","true",""
"","","","","","fixation","23981","html-keyboard-response","123","151641","0.0-6.0-0.22","126","2","2022-11-17 12:51:05","fd252370c17a9971d68c1d4354a03c2e","","Mozilla/5.0 (Windows NT 10.0; Win64; x64) AppleWebKit/537.36 (KHTML, like Gecko) Chrome/107.0.0.0 Safari/537.36","WebKit","Chrome","107.0.0.0","Windows","10.0","null","null","","<p style=""font-size: 48px;"">+</p>","2","Filler","",""
"","","","","","sentence","23981","html-keyboard-response","124","152271","0.0-6.0-1.22","126","2","2022-11-17 12:51:05","fd252370c17a9971d68c1d4354a03c2e","","Mozilla/5.0 (Windows NT 10.0; Win64; x64) AppleWebKit/537.36 (KHTML, like Gecko) Chrome/107.0.0.0 Safari/537.36","WebKit","Chrome","107.0.0.0","Windows","10.0","628"," ","","A zebra is playing with a horse","2","Filler","",""
"","","","","","fixation","23981","html-keyboard-response","125","152777","0.0-6.0-2.22","126","2","2022-11-17 12:51:05","fd252370c17a9971d68c1d4354a03c2e","","Mozilla/5.0 (Windows NT 10.0; Win64; x64) AppleWebKit/537.36 (KHTML, like Gecko) Chrome/107.0.0.0 Safari/537.36","WebKit","Chrome","107.0.0.0","Windows","10.0","null","null","","<p style=""font-size: 48px;"">+</p>","2","Filler","",""
"","","","","","picture","23981","image-keyboard-response","126","153255","0.0-6.0-3.22","126","2","2022-11-17 12:51:05","fd252370c17a9971d68c1d4354a03c2e","","Mozilla/5.0 (Windows NT 10.0; Win64; x64) AppleWebKit/537.36 (KHTML, like Gecko) Chrome/107.0.0.0 Safari/537.36","WebKit","Chrome","107.0.0.0","Windows","10.0","476","n","","watch.jpg","2","Filler","true",""
"","","","","","fixation","23981","html-keyboard-response","127","154265","0.0-6.0-0.23","126","2","2022-11-17 12:51:05","fd252370c17a9971d68c1d4354a03c2e","","Mozilla/5.0 (Windows NT 10.0; Win64; x64) AppleWebKit/537.36 (KHTML, like Gecko) Chrome/107.0.0.0 Safari/537.36","WebKit","Chrome","107.0.0.0","Windows","10.0","null","null","","<p style=""font-size: 48px;"">+</p>","2","Light_Contradictory","",""
"","","","","","sentence","23981","html-keyboard-response","128","155199","0.0-6.0-1.23","126","2","2022-11-17 12:51:05","fd252370c17a9971d68c1d4354a03c2e","","Mozilla/5.0 (Windows NT 10.0; Win64; x64) AppleWebKit/537.36 (KHTML, like Gecko) Chrome/107.0.0.0 Safari/537.36","WebKit","Chrome","107.0.0.0","Windows","10.0","932"," ","","A balloon dropped and smashed a piece of cake","2","Light_Contradictory","",""
"","","","","","fixation","23981","html-keyboard-response","129","155705","0.0-6.0-2.23","126","2","2022-11-17 12:51:05","fd252370c17a9971d68c1d4354a03c2e","","Mozilla/5.0 (Windows NT 10.0; Win64; x64) AppleWebKit/537.36 (KHTML, like Gecko) Chrome/107.0.0.0 Safari/537.36","WebKit","Chrome","107.0.0.0","Windows","10.0","null","null","","<p style=""font-size: 48px;"">+</p>","2","Light_Contradictory","",""
"","","","","","picture","23981","image-keyboard-response","130","156823","0.0-6.0-3.23","126","2","2022-11-17 12:51:05","fd252370c17a9971d68c1d4354a03c2e","","Mozilla/5.0 (Windows NT 10.0; Win64; x64) AppleWebKit/537.36 (KHTML, like Gecko) Chrome/107.0.0.0 Safari/537.36","WebKit","Chrome","107.0.0.0","Windows","10.0","1116","s","","cakeS.jpg","2","Light_Contradictory","true",""
"","","","","","fixation","23981","html-keyboard-response","131","157834","0.0-6.0-0.24","126","2","2022-11-17 12:51:05","fd252370c17a9971d68c1d4354a03c2e","","Mozilla/5.0 (Windows NT 10.0; Win64; x64) AppleWebKit/537.36 (KHTML, like Gecko) Chrome/107.0.0.0 Safari/537.36","WebKit","Chrome","107.0.0.0","Windows","10.0","null","null","","<p style=""font-size: 48px;"">+</p>","2","Heavy_Contradictory","",""
"","","","","","sentence","23981","html-keyboard-response","132","159031","0.0-6.0-1.24","126","2","2022-11-17 12:51:05","fd252370c17a9971d68c1d4354a03c2e","","Mozilla/5.0 (Windows NT 10.0; Win64; x64) AppleWebKit/537.36 (KHTML, like Gecko) Chrome/107.0.0.0 Safari/537.36","WebKit","Chrome","107.0.0.0","Windows","10.0","1196"," ","","A bowling ball dropped and touched a chocolate muffin","2","Heavy_Contradictory","",""
"","","","","","fixation","23981","html-keyboard-response","133","159538","0.0-6.0-2.24","126","2","2022-11-17 12:51:05","fd252370c17a9971d68c1d4354a03c2e","","Mozilla/5.0 (Windows NT 10.0; Win64; x64) AppleWebKit/537.36 (KHTML, like Gecko) Chrome/107.0.0.0 Safari/537.36","WebKit","Chrome","107.0.0.0","Windows","10.0","null","null","","<p style=""font-size: 48px;"">+</p>","2","Heavy_Contradictory","",""
"","","","","","picture","23981","image-keyboard-response","134","160087","0.0-6.0-3.24","126","2","2022-11-17 12:51:05","fd252370c17a9971d68c1d4354a03c2e","","Mozilla/5.0 (Windows NT 10.0; Win64; x64) AppleWebKit/537.36 (KHTML, like Gecko) Chrome/107.0.0.0 Safari/537.36","WebKit","Chrome","107.0.0.0","Windows","10.0","546","s","","muffinS.jpg","2","Heavy_Contradictory","true",""
"","","","","","fixation","23981","html-keyboard-response","135","161097","0.0-6.0-0.25","126","2","2022-11-17 12:51:05","fd252370c17a9971d68c1d4354a03c2e","","Mozilla/5.0 (Windows NT 10.0; Win64; x64) AppleWebKit/537.36 (KHTML, like Gecko) Chrome/107.0.0.0 Safari/537.36","WebKit","Chrome","107.0.0.0","Windows","10.0","null","null","","<p style=""font-size: 48px;"">+</p>","2","Filler","",""
"","","","","","sentence","23981","html-keyboard-response","136","161647","0.0-6.0-1.25","126","2","2022-11-17 12:51:05","fd252370c17a9971d68c1d4354a03c2e","","Mozilla/5.0 (Windows NT 10.0; Win64; x64) AppleWebKit/537.36 (KHTML, like Gecko) Chrome/107.0.0.0 Safari/537.36","WebKit","Chrome","107.0.0.0","Windows","10.0","549"," ","","A puppy is playing with a ball","2","Filler","",""
"","","","","","fixation","23981","html-keyboard-response","137","162153","0.0-6.0-2.25","126","2","2022-11-17 12:51:05","fd252370c17a9971d68c1d4354a03c2e","","Mozilla/5.0 (Windows NT 10.0; Win64; x64) AppleWebKit/537.36 (KHTML, like Gecko) Chrome/107.0.0.0 Safari/537.36","WebKit","Chrome","107.0.0.0","Windows","10.0","null","null","","<p style=""font-size: 48px;"">+</p>","2","Filler","",""
"","","","","","picture","23981","image-keyboard-response","138","162743","0.0-6.0-3.25","126","2","2022-11-17 12:51:05","fd252370c17a9971d68c1d4354a03c2e","","Mozilla/5.0 (Windows NT 10.0; Win64; x64) AppleWebKit/537.36 (KHTML, like Gecko) Chrome/107.0.0.0 Safari/537.36","WebKit","Chrome","107.0.0.0","Windows","10.0","588","s","","tennisball.jpg","2","Filler","true",""
"","","","","","fixation","23981","html-keyboard-response","139","163753","0.0-6.0-0.26","126","2","2022-11-17 12:51:05","fd252370c17a9971d68c1d4354a03c2e","","Mozilla/5.0 (Windows NT 10.0; Win64; x64) AppleWebKit/537.36 (KHTML, like Gecko) Chrome/107.0.0.0 Safari/537.36","WebKit","Chrome","107.0.0.0","Windows","10.0","null","null","","<p style=""font-size: 48px;"">+</p>","2","Filler","",""
"","","","","","sentence","23981","html-keyboard-response","140","164575","0.0-6.0-1.26","126","2","2022-11-17 12:51:05","fd252370c17a9971d68c1d4354a03c2e","","Mozilla/5.0 (Windows NT 10.0; Win64; x64) AppleWebKit/537.36 (KHTML, like Gecko) Chrome/107.0.0.0 Safari/537.36","WebKit","Chrome","107.0.0.0","Windows","10.0","820"," ","","A woman is taking money out of a wallet","2","Filler","",""
"","","","","","fixation","23981","html-keyboard-response","141","165082","0.0-6.0-2.26","126","2","2022-11-17 12:51:05","fd252370c17a9971d68c1d4354a03c2e","","Mozilla/5.0 (Windows NT 10.0; Win64; x64) AppleWebKit/537.36 (KHTML, like Gecko) Chrome/107.0.0.0 Safari/537.36","WebKit","Chrome","107.0.0.0","Windows","10.0","null","null","","<p style=""font-size: 48px;"">+</p>","2","Filler","",""
"","","","","","picture","23981","image-keyboard-response","142","165695","0.0-6.0-3.26","126","2","2022-11-17 12:51:05","fd252370c17a9971d68c1d4354a03c2e","","Mozilla/5.0 (Windows NT 10.0; Win64; x64) AppleWebKit/537.36 (KHTML, like Gecko) Chrome/107.0.0.0 Safari/537.36","WebKit","Chrome","107.0.0.0","Windows","10.0","611","n","","coconut.jpg","2","Filler","true",""
"","","","","","fixation","23981","html-keyboard-response","143","166706","0.0-6.0-0.27","126","2","2022-11-17 12:51:05","fd252370c17a9971d68c1d4354a03c2e","","Mozilla/5.0 (Windows NT 10.0; Win64; x64) AppleWebKit/537.36 (KHTML, like Gecko) Chrome/107.0.0.0 Safari/537.36","WebKit","Chrome","107.0.0.0","Windows","10.0","null","null","","<p style=""font-size: 48px;"">+</p>","2","Light_Contradictory","",""
"","","","","","sentence","23981","html-keyboard-response","144","167471","0.0-6.0-1.27","126","2","2022-11-17 12:51:05","fd252370c17a9971d68c1d4354a03c2e","","Mozilla/5.0 (Windows NT 10.0; Win64; x64) AppleWebKit/537.36 (KHTML, like Gecko) Chrome/107.0.0.0 Safari/537.36","WebKit","Chrome","107.0.0.0","Windows","10.0","763"," ","","A balloon dropped and smashed a TV","2","Light_Contradictory","",""
"","","","","","fixation","23981","html-keyboard-response","145","167979","0.0-6.0-2.27","126","2","2022-11-17 12:51:05","fd252370c17a9971d68c1d4354a03c2e","","Mozilla/5.0 (Windows NT 10.0; Win64; x64) AppleWebKit/537.36 (KHTML, like Gecko) Chrome/107.0.0.0 Safari/537.36","WebKit","Chrome","107.0.0.0","Windows","10.0","null","null","","<p style=""font-size: 48px;"">+</p>","2","Light_Contradictory","",""
"","","","","","picture","23981","image-keyboard-response","146","169031","0.0-6.0-3.27","126","2","2022-11-17 12:51:05","fd252370c17a9971d68c1d4354a03c2e","","Mozilla/5.0 (Windows NT 10.0; Win64; x64) AppleWebKit/537.36 (KHTML, like Gecko) Chrome/107.0.0.0 Safari/537.36","WebKit","Chrome","107.0.0.0","Windows","10.0","1050","s","","tvS.jpg","2","Light_Contradictory","true",""
"","","","","","fixation","23981","html-keyboard-response","147","170042","0.0-6.0-0.28","126","2","2022-11-17 12:51:05","fd252370c17a9971d68c1d4354a03c2e","","Mozilla/5.0 (Windows NT 10.0; Win64; x64) AppleWebKit/537.36 (KHTML, like Gecko) Chrome/107.0.0.0 Safari/537.36","WebKit","Chrome","107.0.0.0","Windows","10.0","null","null","","<p style=""font-size: 48px;"">+</p>","2","Filler","",""
"","","","","","sentence","23981","html-keyboard-response","148","170831","0.0-6.0-1.28","126","2","2022-11-17 12:51:05","fd252370c17a9971d68c1d4354a03c2e","","Mozilla/5.0 (Windows NT 10.0; Win64; x64) AppleWebKit/537.36 (KHTML, like Gecko) Chrome/107.0.0.0 Safari/537.36","WebKit","Chrome","107.0.0.0","Windows","10.0","787"," ","","A man is playing with a cat","2","Filler","",""
"","","","","","fixation","23981","html-keyboard-response","149","171337","0.0-6.0-2.28","126","2","2022-11-17 12:51:05","fd252370c17a9971d68c1d4354a03c2e","","Mozilla/5.0 (Windows NT 10.0; Win64; x64) AppleWebKit/537.36 (KHTML, like Gecko) Chrome/107.0.0.0 Safari/537.36","WebKit","Chrome","107.0.0.0","Windows","10.0","null","null","","<p style=""font-size: 48px;"">+</p>","2","Filler","",""
"","","","","","picture","23981","image-keyboard-response","150","171895","0.0-6.0-3.28","126","2","2022-11-17 12:51:05","fd252370c17a9971d68c1d4354a03c2e","","Mozilla/5.0 (Windows NT 10.0; Win64; x64) AppleWebKit/537.36 (KHTML, like Gecko) Chrome/107.0.0.0 Safari/537.36","WebKit","Chrome","107.0.0.0","Windows","10.0","555","n","","ceramicplate.jpg","2","Filler","true",""
"","","","","","fixation","23981","html-keyboard-response","151","172907","0.0-6.0-0.29","126","2","2022-11-17 12:51:05","fd252370c17a9971d68c1d4354a03c2e","","Mozilla/5.0 (Windows NT 10.0; Win64; x64) AppleWebKit/537.36 (KHTML, like Gecko) Chrome/107.0.0.0 Safari/537.36","WebKit","Chrome","107.0.0.0","Windows","10.0","null","null","","<p style=""font-size: 48px;"">+</p>","2","Filler","",""
"","","","","","sentence","23981","html-keyboard-response","152","173479","0.0-6.0-1.29","126","2","2022-11-17 12:51:05","fd252370c17a9971d68c1d4354a03c2e","","Mozilla/5.0 (Windows NT 10.0; Win64; x64) AppleWebKit/537.36 (KHTML, like Gecko) Chrome/107.0.0.0 Safari/537.36","WebKit","Chrome","107.0.0.0","Windows","10.0","570"," ","","A pencil was placed on the shoe","2","Filler","",""
"","","","","","fixation","23981","html-keyboard-response","153","173985","0.0-6.0-2.29","126","2","2022-11-17 12:51:05","fd252370c17a9971d68c1d4354a03c2e","","Mozilla/5.0 (Windows NT 10.0; Win64; x64) AppleWebKit/537.36 (KHTML, like Gecko) Chrome/107.0.0.0 Safari/537.36","WebKit","Chrome","107.0.0.0","Windows","10.0","null","null","","<p style=""font-size: 48px;"">+</p>","2","Filler","",""
"","","","","","picture","23981","image-keyboard-response","154","174527","0.0-6.0-3.29","126","2","2022-11-17 12:51:05","fd252370c17a9971d68c1d4354a03c2e","","Mozilla/5.0 (Windows NT 10.0; Win64; x64) AppleWebKit/537.36 (KHTML, like Gecko) Chrome/107.0.0.0 Safari/537.36","WebKit","Chrome","107.0.0.0","Windows","10.0","540","n","","perfume.jpg","2","Filler","true",""
"","","","","","fixation","23981","html-keyboard-response","155","175538","0.0-6.0-0.30","126","2","2022-11-17 12:51:05","fd252370c17a9971d68c1d4354a03c2e","","Mozilla/5.0 (Windows NT 10.0; Win64; x64) AppleWebKit/537.36 (KHTML, like Gecko) Chrome/107.0.0.0 Safari/537.36","WebKit","Chrome","107.0.0.0","Windows","10.0","null","null","","<p style=""font-size: 48px;"">+</p>","2","Filler","",""
"","","","","","sentence","23981","html-keyboard-response","156","176095","0.0-6.0-1.30","126","2","2022-11-17 12:51:05","fd252370c17a9971d68c1d4354a03c2e","","Mozilla/5.0 (Windows NT 10.0; Win64; x64) AppleWebKit/537.36 (KHTML, like Gecko) Chrome/107.0.0.0 Safari/537.36","WebKit","Chrome","107.0.0.0","Windows","10.0","555"," ","","A man is boiling potatoes.","2","Filler","",""
"","","","","","fixation","23981","html-keyboard-response","157","176602","0.0-6.0-2.30","126","2","2022-11-17 12:51:05","fd252370c17a9971d68c1d4354a03c2e","","Mozilla/5.0 (Windows NT 10.0; Win64; x64) AppleWebKit/537.36 (KHTML, like Gecko) Chrome/107.0.0.0 Safari/537.36","WebKit","Chrome","107.0.0.0","Windows","10.0","null","null","","<p style=""font-size: 48px;"">+</p>","2","Filler","",""
"","","","","","picture","23981","image-keyboard-response","158","177287","0.0-6.0-3.30","126","2","2022-11-17 12:51:05","fd252370c17a9971d68c1d4354a03c2e","","Mozilla/5.0 (Windows NT 10.0; Win64; x64) AppleWebKit/537.36 (KHTML, like Gecko) Chrome/107.0.0.0 Safari/537.36","WebKit","Chrome","107.0.0.0","Windows","10.0","682","n","","cup.jpg","2","Filler","true",""
"","","","","","fixation","23981","html-keyboard-response","159","178297","0.0-6.0-0.31","126","2","2022-11-17 12:51:05","fd252370c17a9971d68c1d4354a03c2e","","Mozilla/5.0 (Windows NT 10.0; Win64; x64) AppleWebKit/537.36 (KHTML, like Gecko) Chrome/107.0.0.0 Safari/537.36","WebKit","Chrome","107.0.0.0","Windows","10.0","null","null","","<p style=""font-size: 48px;"">+</p>","2","Light_Contradictory","",""
"","","","","","sentence","23981","html-keyboard-response","160","178807","0.0-6.0-1.31","126","2","2022-11-17 12:51:05","fd252370c17a9971d68c1d4354a03c2e","","Mozilla/5.0 (Windows NT 10.0; Win64; x64) AppleWebKit/537.36 (KHTML, like Gecko) Chrome/107.0.0.0 Safari/537.36","WebKit","Chrome","107.0.0.0","Windows","10.0","507"," ","","A balloon dropped and smashed an egg","2","Light_Contradictory","",""
"","","","","","fixation","23981","html-keyboard-response","161","179313","0.0-6.0-2.31","126","2","2022-11-17 12:51:05","fd252370c17a9971d68c1d4354a03c2e","","Mozilla/5.0 (Windows NT 10.0; Win64; x64) AppleWebKit/537.36 (KHTML, like Gecko) Chrome/107.0.0.0 Safari/537.36","WebKit","Chrome","107.0.0.0","Windows","10.0","null","null","","<p style=""font-size: 48px;"">+</p>","2","Light_Contradictory","",""
"","","","","","picture","23981","image-keyboard-response","162","180215","0.0-6.0-3.31","126","2","2022-11-17 12:51:05","fd252370c17a9971d68c1d4354a03c2e","","Mozilla/5.0 (Windows NT 10.0; Win64; x64) AppleWebKit/537.36 (KHTML, like Gecko) Chrome/107.0.0.0 Safari/537.36","WebKit","Chrome","107.0.0.0","Windows","10.0","899","n","","eggS.jpg","2","Light_Contradictory","false",""
"","","","","","fixation","23981","html-keyboard-response","163","181226","0.0-6.0-0.32","126","2","2022-11-17 12:51:05","fd252370c17a9971d68c1d4354a03c2e","","Mozilla/5.0 (Windows NT 10.0; Win64; x64) AppleWebKit/537.36 (KHTML, like Gecko) Chrome/107.0.0.0 Safari/537.36","WebKit","Chrome","107.0.0.0","Windows","10.0","null","null","","<p style=""font-size: 48px;"">+</p>","2","Filler","",""
"","","","","","sentence","23981","html-keyboard-response","164","181895","0.0-6.0-1.32","126","2","2022-11-17 12:51:05","fd252370c17a9971d68c1d4354a03c2e","","Mozilla/5.0 (Windows NT 10.0; Win64; x64) AppleWebKit/537.36 (KHTML, like Gecko) Chrome/107.0.0.0 Safari/537.36","WebKit","Chrome","107.0.0.0","Windows","10.0","666"," ","","A kitten is playing in the sandbox","2","Filler","",""
"","","","","","fixation","23981","html-keyboard-response","165","182403","0.0-6.0-2.32","126","2","2022-11-17 12:51:05","fd252370c17a9971d68c1d4354a03c2e","","Mozilla/5.0 (Windows NT 10.0; Win64; x64) AppleWebKit/537.36 (KHTML, like Gecko) Chrome/107.0.0.0 Safari/537.36","WebKit","Chrome","107.0.0.0","Windows","10.0","null","null","","<p style=""font-size: 48px;"">+</p>","2","Filler","",""
"","","","","","picture","23981","image-keyboard-response","166","183399","0.0-6.0-3.32","126","2","2022-11-17 12:51:05","fd252370c17a9971d68c1d4354a03c2e","","Mozilla/5.0 (Windows NT 10.0; Win64; x64) AppleWebKit/537.36 (KHTML, like Gecko) Chrome/107.0.0.0 Safari/537.36","WebKit","Chrome","107.0.0.0","Windows","10.0","994","n","","dustbin.jpg","2","Filler","true",""
"","","","","","fixation","23981","html-keyboard-response","167","184408","0.0-6.0-0.33","126","2","2022-11-17 12:51:05","fd252370c17a9971d68c1d4354a03c2e","","Mozilla/5.0 (Windows NT 10.0; Win64; x64) AppleWebKit/537.36 (KHTML, like Gecko) Chrome/107.0.0.0 Safari/537.36","WebKit","Chrome","107.0.0.0","Windows","10.0","null","null","","<p style=""font-size: 48px;"">+</p>","2","Filler","",""
"","","","","","sentence","23981","html-keyboard-response","168","184959","0.0-6.0-1.33","126","2","2022-11-17 12:51:05","fd252370c17a9971d68c1d4354a03c2e","","Mozilla/5.0 (Windows NT 10.0; Win64; x64) AppleWebKit/537.36 (KHTML, like Gecko) Chrome/107.0.0.0 Safari/537.36","WebKit","Chrome","107.0.0.0","Windows","10.0","548"," ","","A needle was placed on the mouse pad","2","Filler","",""
"","","","","","fixation","23981","html-keyboard-response","169","185466","0.0-6.0-2.33","126","2","2022-11-17 12:51:05","fd252370c17a9971d68c1d4354a03c2e","","Mozilla/5.0 (Windows NT 10.0; Win64; x64) AppleWebKit/537.36 (KHTML, like Gecko) Chrome/107.0.0.0 Safari/537.36","WebKit","Chrome","107.0.0.0","Windows","10.0","null","null","","<p style=""font-size: 48px;"">+</p>","2","Filler","",""
"","","","","","picture","23981","image-keyboard-response","170","186287","0.0-6.0-3.33","126","2","2022-11-17 12:51:05","fd252370c17a9971d68c1d4354a03c2e","","Mozilla/5.0 (Windows NT 10.0; Win64; x64) AppleWebKit/537.36 (KHTML, like Gecko) Chrome/107.0.0.0 Safari/537.36","WebKit","Chrome","107.0.0.0","Windows","10.0","818","n","","chocolate.jpg","2","Filler","true",""
"","","","","","fixation","23981","html-keyboard-response","171","187298","0.0-6.0-0.34","126","2","2022-11-17 12:51:05","fd252370c17a9971d68c1d4354a03c2e","","Mozilla/5.0 (Windows NT 10.0; Win64; x64) AppleWebKit/537.36 (KHTML, like Gecko) Chrome/107.0.0.0 Safari/537.36","WebKit","Chrome","107.0.0.0","Windows","10.0","null","null","","<p style=""font-size: 48px;"">+</p>","2","Filler","",""
"","","","","","sentence","23981","html-keyboard-response","172","187935","0.0-6.0-1.34","126","2","2022-11-17 12:51:05","fd252370c17a9971d68c1d4354a03c2e","","Mozilla/5.0 (Windows NT 10.0; Win64; x64) AppleWebKit/537.36 (KHTML, like Gecko) Chrome/107.0.0.0 Safari/537.36","WebKit","Chrome","107.0.0.0","Windows","10.0","635"," ","","A boy is wearing a hat","2","Filler","",""
"","","","","","fixation","23981","html-keyboard-response","173","188442","0.0-6.0-2.34","126","2","2022-11-17 12:51:05","fd252370c17a9971d68c1d4354a03c2e","","Mozilla/5.0 (Windows NT 10.0; Win64; x64) AppleWebKit/537.36 (KHTML, like Gecko) Chrome/107.0.0.0 Safari/537.36","WebKit","Chrome","107.0.0.0","Windows","10.0","null","null","","<p style=""font-size: 48px;"">+</p>","2","Filler","",""
"","","","","","picture","23981","image-keyboard-response","174","188951","0.0-6.0-3.34","126","2","2022-11-17 12:51:05","fd252370c17a9971d68c1d4354a03c2e","","Mozilla/5.0 (Windows NT 10.0; Win64; x64) AppleWebKit/537.36 (KHTML, like Gecko) Chrome/107.0.0.0 Safari/537.36","WebKit","Chrome","107.0.0.0","Windows","10.0","506","s","","hat.jpg","2","Filler","true",""
"","","","","","fixation","23981","html-keyboard-response","175","189961","0.0-6.0-0.35","126","2","2022-11-17 12:51:05","fd252370c17a9971d68c1d4354a03c2e","","Mozilla/5.0 (Windows NT 10.0; Win64; x64) AppleWebKit/537.36 (KHTML, like Gecko) Chrome/107.0.0.0 Safari/537.36","WebKit","Chrome","107.0.0.0","Windows","10.0","null","null","","<p style=""font-size: 48px;"">+</p>","2","Heavy_Contradictory","",""
"","","","","","sentence","23981","html-keyboard-response","176","190959","0.0-6.0-1.35","126","2","2022-11-17 12:51:05","fd252370c17a9971d68c1d4354a03c2e","","Mozilla/5.0 (Windows NT 10.0; Win64; x64) AppleWebKit/537.36 (KHTML, like Gecko) Chrome/107.0.0.0 Safari/537.36","WebKit","Chrome","107.0.0.0","Windows","10.0","996"," ","","A bowling ball dropped and touched a rice cake","2","Heavy_Contradictory","",""
"","","","","","fixation","23981","html-keyboard-response","177","191464","0.0-6.0-2.35","126","2","2022-11-17 12:51:05","fd252370c17a9971d68c1d4354a03c2e","","Mozilla/5.0 (Windows NT 10.0; Win64; x64) AppleWebKit/537.36 (KHTML, like Gecko) Chrome/107.0.0.0 Safari/537.36","WebKit","Chrome","107.0.0.0","Windows","10.0","null","null","","<p style=""font-size: 48px;"">+</p>","2","Heavy_Contradictory","",""
"","","","","","picture","23981","image-keyboard-response","178","194927","0.0-6.0-3.35","126","2","2022-11-17 12:51:05","fd252370c17a9971d68c1d4354a03c2e","","Mozilla/5.0 (Windows NT 10.0; Win64; x64) AppleWebKit/537.36 (KHTML, like Gecko) Chrome/107.0.0.0 Safari/537.36","WebKit","Chrome","107.0.0.0","Windows","10.0","3460","s","","tortitaS.jpg","2","Heavy_Contradictory","true",""
"","","","","","fixation","23981","html-keyboard-response","179","195937","0.0-6.0-0.36","126","2","2022-11-17 12:51:05","fd252370c17a9971d68c1d4354a03c2e","","Mozilla/5.0 (Windows NT 10.0; Win64; x64) AppleWebKit/537.36 (KHTML, like Gecko) Chrome/107.0.0.0 Safari/537.36","WebKit","Chrome","107.0.0.0","Windows","10.0","null","null","","<p style=""font-size: 48px;"">+</p>","2","Filler","",""
"","","","","","sentence","23981","html-keyboard-response","180","196623","0.0-6.0-1.36","126","2","2022-11-17 12:51:05","fd252370c17a9971d68c1d4354a03c2e","","Mozilla/5.0 (Windows NT 10.0; Win64; x64) AppleWebKit/537.36 (KHTML, like Gecko) Chrome/107.0.0.0 Safari/537.36","WebKit","Chrome","107.0.0.0","Windows","10.0","684"," ","","A student is writing on a board","2","Filler","",""
"","","","","","fixation","23981","html-keyboard-response","181","197129","0.0-6.0-2.36","126","2","2022-11-17 12:51:05","fd252370c17a9971d68c1d4354a03c2e","","Mozilla/5.0 (Windows NT 10.0; Win64; x64) AppleWebKit/537.36 (KHTML, like Gecko) Chrome/107.0.0.0 Safari/537.36","WebKit","Chrome","107.0.0.0","Windows","10.0","null","null","","<p style=""font-size: 48px;"">+</p>","2","Filler","",""
"","","","","","picture","23981","image-keyboard-response","182","197767","0.0-6.0-3.36","126","2","2022-11-17 12:51:05","fd252370c17a9971d68c1d4354a03c2e","","Mozilla/5.0 (Windows NT 10.0; Win64; x64) AppleWebKit/537.36 (KHTML, like Gecko) Chrome/107.0.0.0 Safari/537.36","WebKit","Chrome","107.0.0.0","Windows","10.0","634","n","","owl.jpg","2","Filler","true",""
"","","","","","fixation","23981","html-keyboard-response","183","198778","0.0-6.0-0.37","126","2","2022-11-17 12:51:05","fd252370c17a9971d68c1d4354a03c2e","","Mozilla/5.0 (Windows NT 10.0; Win64; x64) AppleWebKit/537.36 (KHTML, like Gecko) Chrome/107.0.0.0 Safari/537.36","WebKit","Chrome","107.0.0.0","Windows","10.0","null","null","","<p style=""font-size: 48px;"">+</p>","2","Light_Matched","",""
"","","","","","sentence","23981","html-keyboard-response","184","199399","0.0-6.0-1.37","126","2","2022-11-17 12:51:05","fd252370c17a9971d68c1d4354a03c2e","","Mozilla/5.0 (Windows NT 10.0; Win64; x64) AppleWebKit/537.36 (KHTML, like Gecko) Chrome/107.0.0.0 Safari/537.36","WebKit","Chrome","107.0.0.0","Windows","10.0","618"," ","","A balloon dropped and touched a vase","2","Light_Matched","",""
"","","","","","fixation","23981","html-keyboard-response","185","199905","0.0-6.0-2.37","126","2","2022-11-17 12:51:05","fd252370c17a9971d68c1d4354a03c2e","","Mozilla/5.0 (Windows NT 10.0; Win64; x64) AppleWebKit/537.36 (KHTML, like Gecko) Chrome/107.0.0.0 Safari/537.36","WebKit","Chrome","107.0.0.0","Windows","10.0","null","null","","<p style=""font-size: 48px;"">+</p>","2","Light_Matched","",""
"","","","","","picture","23981","image-keyboard-response","186","200879","0.0-6.0-3.37","126","2","2022-11-17 12:51:05","fd252370c17a9971d68c1d4354a03c2e","","Mozilla/5.0 (Windows NT 10.0; Win64; x64) AppleWebKit/537.36 (KHTML, like Gecko) Chrome/107.0.0.0 Safari/537.36","WebKit","Chrome","107.0.0.0","Windows","10.0","971","s","","vaseS.jpg","2","Light_Matched","true",""
"","","","","","fixation","23981","html-keyboard-response","187","201888","0.0-6.0-0.38","126","2","2022-11-17 12:51:05","fd252370c17a9971d68c1d4354a03c2e","","Mozilla/5.0 (Windows NT 10.0; Win64; x64) AppleWebKit/537.36 (KHTML, like Gecko) Chrome/107.0.0.0 Safari/537.36","WebKit","Chrome","107.0.0.0","Windows","10.0","null","null","","<p style=""font-size: 48px;"">+</p>","2","Filler","",""
"","","","","","sentence","23981","html-keyboard-response","188","202863","0.0-6.0-1.38","126","2","2022-11-17 12:51:05","fd252370c17a9971d68c1d4354a03c2e","","Mozilla/5.0 (Windows NT 10.0; Win64; x64) AppleWebKit/537.36 (KHTML, like Gecko) Chrome/107.0.0.0 Safari/537.36","WebKit","Chrome","107.0.0.0","Windows","10.0","972"," ","","A mouse is eating cheese","2","Filler","",""
"","","","","","fixation","23981","html-keyboard-response","189","203376","0.0-6.0-2.38","126","2","2022-11-17 12:51:05","fd252370c17a9971d68c1d4354a03c2e","","Mozilla/5.0 (Windows NT 10.0; Win64; x64) AppleWebKit/537.36 (KHTML, like Gecko) Chrome/107.0.0.0 Safari/537.36","WebKit","Chrome","107.0.0.0","Windows","10.0","null","null","","<p style=""font-size: 48px;"">+</p>","2","Filler","",""
"","","","","","picture","23981","image-keyboard-response","190","204503","0.0-6.0-3.38","126","2","2022-11-17 12:51:05","fd252370c17a9971d68c1d4354a03c2e","","Mozilla/5.0 (Windows NT 10.0; Win64; x64) AppleWebKit/537.36 (KHTML, like Gecko) Chrome/107.0.0.0 Safari/537.36","WebKit","Chrome","107.0.0.0","Windows","10.0","1124","n","","ring.jpg","2","Filler","true",""
"","","","","","fixation","23981","html-keyboard-response","191","205513","0.0-6.0-0.39","126","2","2022-11-17 12:51:05","fd252370c17a9971d68c1d4354a03c2e","","Mozilla/5.0 (Windows NT 10.0; Win64; x64) AppleWebKit/537.36 (KHTML, like Gecko) Chrome/107.0.0.0 Safari/537.36","WebKit","Chrome","107.0.0.0","Windows","10.0","null","null","","<p style=""font-size: 48px;"">+</p>","2","Filler","",""
"","","","","","sentence","23981","html-keyboard-response","192","314823","0.0-6.0-1.39","126","2","2022-11-17 12:51:05","fd252370c17a9971d68c1d4354a03c2e","","Mozilla/5.0 (Windows NT 10.0; Win64; x64) AppleWebKit/537.36 (KHTML, like Gecko) Chrome/107.0.0.0 Safari/537.36","WebKit","Chrome","107.0.0.0","Windows","10.0","109308"," ","","A woman is paying with a debit card","2","Filler","",""
"","","","","","fixation","23981","html-keyboard-response","193","315329","0.0-6.0-2.39","126","2","2022-11-17 12:51:05","fd252370c17a9971d68c1d4354a03c2e","","Mozilla/5.0 (Windows NT 10.0; Win64; x64) AppleWebKit/537.36 (KHTML, like Gecko) Chrome/107.0.0.0 Safari/537.36","WebKit","Chrome","107.0.0.0","Windows","10.0","null","null","","<p style=""font-size: 48px;"">+</p>","2","Filler","",""
"","","","","","picture","23981","image-keyboard-response","194","316543","0.0-6.0-3.39","126","2","2022-11-17 12:51:05","fd252370c17a9971d68c1d4354a03c2e","","Mozilla/5.0 (Windows NT 10.0; Win64; x64) AppleWebKit/537.36 (KHTML, like Gecko) Chrome/107.0.0.0 Safari/537.36","WebKit","Chrome","107.0.0.0","Windows","10.0","1211","n","","papercup.jpg","2","Filler","true",""
"","","","","","fixation","23981","html-keyboard-response","195","317564","0.0-6.0-0.40","126","2","2022-11-17 12:51:05","fd252370c17a9971d68c1d4354a03c2e","","Mozilla/5.0 (Windows NT 10.0; Win64; x64) AppleWebKit/537.36 (KHTML, like Gecko) Chrome/107.0.0.0 Safari/537.36","WebKit","Chrome","107.0.0.0","Windows","10.0","null","null","","<p style=""font-size: 48px;"">+</p>","2","Filler","",""
"","","","","","sentence","23981","html-keyboard-response","196","318095","0.0-6.0-1.40","126","2","2022-11-17 12:51:05","fd252370c17a9971d68c1d4354a03c2e","","Mozilla/5.0 (Windows NT 10.0; Win64; x64) AppleWebKit/537.36 (KHTML, like Gecko) Chrome/107.0.0.0 Safari/537.36","WebKit","Chrome","107.0.0.0","Windows","10.0","528"," ","","A hairdresser is taking scissors","2","Filler","",""
"","","","","","fixation","23981","html-keyboard-response","197","318602","0.0-6.0-2.40","126","2","2022-11-17 12:51:05","fd252370c17a9971d68c1d4354a03c2e","","Mozilla/5.0 (Windows NT 10.0; Win64; x64) AppleWebKit/537.36 (KHTML, like Gecko) Chrome/107.0.0.0 Safari/537.36","WebKit","Chrome","107.0.0.0","Windows","10.0","null","null","","<p style=""font-size: 48px;"">+</p>","2","Filler","",""
"","","","","","picture","23981","image-keyboard-response","198","319039","0.0-6.0-3.40","126","2","2022-11-17 12:51:05","fd252370c17a9971d68c1d4354a03c2e","","Mozilla/5.0 (Windows NT 10.0; Win64; x64) AppleWebKit/537.36 (KHTML, like Gecko) Chrome/107.0.0.0 Safari/537.36","WebKit","Chrome","107.0.0.0","Windows","10.0","434","n","","sock.jpg","2","Filler","true",""
"","","","","","fixation","23981","html-keyboard-response","199","320050","0.0-6.0-0.41","126","2","2022-11-17 12:51:05","fd252370c17a9971d68c1d4354a03c2e","","Mozilla/5.0 (Windows NT 10.0; Win64; x64) AppleWebKit/537.36 (KHTML, like Gecko) Chrome/107.0.0.0 Safari/537.36","WebKit","Chrome","107.0.0.0","Windows","10.0","null","null","","<p style=""font-size: 48px;"">+</p>","2","Filler","",""
"","","","","","sentence","23981","html-keyboard-response","200","320543","0.0-6.0-1.41","126","2","2022-11-17 12:51:05","fd252370c17a9971d68c1d4354a03c2e","","Mozilla/5.0 (Windows NT 10.0; Win64; x64) AppleWebKit/537.36 (KHTML, like Gecko) Chrome/107.0.0.0 Safari/537.36","WebKit","Chrome","107.0.0.0","Windows","10.0","490"," ","","An owl is sitting on the branch","2","Filler","",""
"","","","","","fixation","23981","html-keyboard-response","201","321058","0.0-6.0-2.41","126","2","2022-11-17 12:51:05","fd252370c17a9971d68c1d4354a03c2e","","Mozilla/5.0 (Windows NT 10.0; Win64; x64) AppleWebKit/537.36 (KHTML, like Gecko) Chrome/107.0.0.0 Safari/537.36","WebKit","Chrome","107.0.0.0","Windows","10.0","null","null","","<p style=""font-size: 48px;"">+</p>","2","Filler","",""
"","","","","","picture","23981","image-keyboard-response","202","321583","0.0-6.0-3.41","126","2","2022-11-17 12:51:05","fd252370c17a9971d68c1d4354a03c2e","","Mozilla/5.0 (Windows NT 10.0; Win64; x64) AppleWebKit/537.36 (KHTML, like Gecko) Chrome/107.0.0.0 Safari/537.36","WebKit","Chrome","107.0.0.0","Windows","10.0","521","n","","rubberduck.jpg","2","Filler","true",""
"","","","","","fixation","23981","html-keyboard-response","203","322593","0.0-6.0-0.42","126","2","2022-11-17 12:51:05","fd252370c17a9971d68c1d4354a03c2e","","Mozilla/5.0 (Windows NT 10.0; Win64; x64) AppleWebKit/537.36 (KHTML, like Gecko) Chrome/107.0.0.0 Safari/537.36","WebKit","Chrome","107.0.0.0","Windows","10.0","null","null","","<p style=""font-size: 48px;"">+</p>","2","Filler","",""
"","","","","","sentence","23981","html-keyboard-response","204","323216","0.0-6.0-1.42","126","2","2022-11-17 12:51:05","fd252370c17a9971d68c1d4354a03c2e","","Mozilla/5.0 (Windows NT 10.0; Win64; x64) AppleWebKit/537.36 (KHTML, like Gecko) Chrome/107.0.0.0 Safari/537.36","WebKit","Chrome","107.0.0.0","Windows","10.0","620"," ","","An actress is taking a microphone","2","Filler","",""
"","","","","","fixation","23981","html-keyboard-response","205","323721","0.0-6.0-2.42","126","2","2022-11-17 12:51:05","fd252370c17a9971d68c1d4354a03c2e","","Mozilla/5.0 (Windows NT 10.0; Win64; x64) AppleWebKit/537.36 (KHTML, like Gecko) Chrome/107.0.0.0 Safari/537.36","WebKit","Chrome","107.0.0.0","Windows","10.0","null","null","","<p style=""font-size: 48px;"">+</p>","2","Filler","",""
"","","","","","picture","23981","image-keyboard-response","206","324208","0.0-6.0-3.42","126","2","2022-11-17 12:51:05","fd252370c17a9971d68c1d4354a03c2e","","Mozilla/5.0 (Windows NT 10.0; Win64; x64) AppleWebKit/537.36 (KHTML, like Gecko) Chrome/107.0.0.0 Safari/537.36","WebKit","Chrome","107.0.0.0","Windows","10.0","481","n","","pants.jpg","2","Filler","true",""
"","","","","","fixation","23981","html-keyboard-response","207","325218","0.0-6.0-0.43","126","2","2022-11-17 12:51:05","fd252370c17a9971d68c1d4354a03c2e","","Mozilla/5.0 (Windows NT 10.0; Win64; x64) AppleWebKit/537.36 (KHTML, like Gecko) Chrome/107.0.0.0 Safari/537.36","WebKit","Chrome","107.0.0.0","Windows","10.0","null","null","","<p style=""font-size: 48px;"">+</p>","2","Filler","",""
"","","","","","sentence","23981","html-keyboard-response","208","325831","0.0-6.0-1.43","126","2","2022-11-17 12:51:05","fd252370c17a9971d68c1d4354a03c2e","","Mozilla/5.0 (Windows NT 10.0; Win64; x64) AppleWebKit/537.36 (KHTML, like Gecko) Chrome/107.0.0.0 Safari/537.36","WebKit","Chrome","107.0.0.0","Windows","10.0","610"," ","","A watch was placed on the laptop","2","Filler","",""
"","","","","","fixation","23981","html-keyboard-response","209","326336","0.0-6.0-2.43","126","2","2022-11-17 12:51:05","fd252370c17a9971d68c1d4354a03c2e","","Mozilla/5.0 (Windows NT 10.0; Win64; x64) AppleWebKit/537.36 (KHTML, like Gecko) Chrome/107.0.0.0 Safari/537.36","WebKit","Chrome","107.0.0.0","Windows","10.0","null","null","","<p style=""font-size: 48px;"">+</p>","2","Filler","",""
"","","","","","picture","23981","image-keyboard-response","210","326887","0.0-6.0-3.43","126","2","2022-11-17 12:51:05","fd252370c17a9971d68c1d4354a03c2e","","Mozilla/5.0 (Windows NT 10.0; Win64; x64) AppleWebKit/537.36 (KHTML, like Gecko) Chrome/107.0.0.0 Safari/537.36","WebKit","Chrome","107.0.0.0","Windows","10.0","547","n","","bow.jpg","2","Filler","true",""
"","","","","","fixation","23981","html-keyboard-response","211","327898","0.0-6.0-0.44","126","2","2022-11-17 12:51:05","fd252370c17a9971d68c1d4354a03c2e","","Mozilla/5.0 (Windows NT 10.0; Win64; x64) AppleWebKit/537.36 (KHTML, like Gecko) Chrome/107.0.0.0 Safari/537.36","WebKit","Chrome","107.0.0.0","Windows","10.0","null","null","","<p style=""font-size: 48px;"">+</p>","2","Light_Contradictory","",""
"","","","","","sentence","23981","html-keyboard-response","212","328703","0.0-6.0-1.44","126","2","2022-11-17 12:51:05","fd252370c17a9971d68c1d4354a03c2e","","Mozilla/5.0 (Windows NT 10.0; Win64; x64) AppleWebKit/537.36 (KHTML, like Gecko) Chrome/107.0.0.0 Safari/537.36","WebKit","Chrome","107.0.0.0","Windows","10.0","803"," ","","A balloon dropped and smashed a cracker","2","Light_Contradictory","",""
"","","","","","fixation","23981","html-keyboard-response","213","329209","0.0-6.0-2.44","126","2","2022-11-17 12:51:05","fd252370c17a9971d68c1d4354a03c2e","","Mozilla/5.0 (Windows NT 10.0; Win64; x64) AppleWebKit/537.36 (KHTML, like Gecko) Chrome/107.0.0.0 Safari/537.36","WebKit","Chrome","107.0.0.0","Windows","10.0","null","null","","<p style=""font-size: 48px;"">+</p>","2","Light_Contradictory","",""
"","","","","","picture","23981","image-keyboard-response","214","329759","0.0-6.0-3.44","126","2","2022-11-17 12:51:05","fd252370c17a9971d68c1d4354a03c2e","","Mozilla/5.0 (Windows NT 10.0; Win64; x64) AppleWebKit/537.36 (KHTML, like Gecko) Chrome/107.0.0.0 Safari/537.36","WebKit","Chrome","107.0.0.0","Windows","10.0","547","s","","crackerS.jpg","2","Light_Contradictory","true",""
"","","","","","fixation","23981","html-keyboard-response","215","330769","0.0-6.0-0.45","126","2","2022-11-17 12:51:05","fd252370c17a9971d68c1d4354a03c2e","","Mozilla/5.0 (Windows NT 10.0; Win64; x64) AppleWebKit/537.36 (KHTML, like Gecko) Chrome/107.0.0.0 Safari/537.36","WebKit","Chrome","107.0.0.0","Windows","10.0","null","null","","<p style=""font-size: 48px;"">+</p>","2","Filler","",""
"","","","","","sentence","23981","html-keyboard-response","216","331279","0.0-6.0-1.45","126","2","2022-11-17 12:51:05","fd252370c17a9971d68c1d4354a03c2e","","Mozilla/5.0 (Windows NT 10.0; Win64; x64) AppleWebKit/537.36 (KHTML, like Gecko) Chrome/107.0.0.0 Safari/537.36","WebKit","Chrome","107.0.0.0","Windows","10.0","508"," ","","A cabbage was placed on the table","2","Filler","",""
"","","","","","fixation","23981","html-keyboard-response","217","331785","0.0-6.0-2.45","126","2","2022-11-17 12:51:05","fd252370c17a9971d68c1d4354a03c2e","","Mozilla/5.0 (Windows NT 10.0; Win64; x64) AppleWebKit/537.36 (KHTML, like Gecko) Chrome/107.0.0.0 Safari/537.36","WebKit","Chrome","107.0.0.0","Windows","10.0","null","null","","<p style=""font-size: 48px;"">+</p>","2","Filler","",""
"","","","","","picture","23981","image-keyboard-response","218","332575","0.0-6.0-3.45","126","2","2022-11-17 12:51:05","fd252370c17a9971d68c1d4354a03c2e","","Mozilla/5.0 (Windows NT 10.0; Win64; x64) AppleWebKit/537.36 (KHTML, like Gecko) Chrome/107.0.0.0 Safari/537.36","WebKit","Chrome","107.0.0.0","Windows","10.0","787","n","","ladder.jpg","2","Filler","true",""
"","","","","","fixation","23981","html-keyboard-response","219","333585","0.0-6.0-0.46","126","2","2022-11-17 12:51:05","fd252370c17a9971d68c1d4354a03c2e","","Mozilla/5.0 (Windows NT 10.0; Win64; x64) AppleWebKit/537.36 (KHTML, like Gecko) Chrome/107.0.0.0 Safari/537.36","WebKit","Chrome","107.0.0.0","Windows","10.0","null","null","","<p style=""font-size: 48px;"">+</p>","2","Light_Contradictory","",""
"","","","","","sentence","23981","html-keyboard-response","220","334847","0.0-6.0-1.46","126","2","2022-11-17 12:51:05","fd252370c17a9971d68c1d4354a03c2e","","Mozilla/5.0 (Windows NT 10.0; Win64; x64) AppleWebKit/537.36 (KHTML, like Gecko) Chrome/107.0.0.0 Safari/537.36","WebKit","Chrome","107.0.0.0","Windows","10.0","1260"," ","","A balloon dropped and smashed a porcelain figure","2","Light_Contradictory","",""
"","","","","","fixation","23981","html-keyboard-response","221","335353","0.0-6.0-2.46","126","2","2022-11-17 12:51:05","fd252370c17a9971d68c1d4354a03c2e","","Mozilla/5.0 (Windows NT 10.0; Win64; x64) AppleWebKit/537.36 (KHTML, like Gecko) Chrome/107.0.0.0 Safari/537.36","WebKit","Chrome","107.0.0.0","Windows","10.0","null","null","","<p style=""font-size: 48px;"">+</p>","2","Light_Contradictory","",""
"","","","","","picture","23981","image-keyboard-response","222","335879","0.0-6.0-3.46","126","2","2022-11-17 12:51:05","fd252370c17a9971d68c1d4354a03c2e","","Mozilla/5.0 (Windows NT 10.0; Win64; x64) AppleWebKit/537.36 (KHTML, like Gecko) Chrome/107.0.0.0 Safari/537.36","WebKit","Chrome","107.0.0.0","Windows","10.0","522","s","","figureS.jpg","2","Light_Contradictory","true",""
"","","","","","fixation","23981","html-keyboard-response","223","336890","0.0-6.0-0.47","126","2","2022-11-17 12:51:05","fd252370c17a9971d68c1d4354a03c2e","","Mozilla/5.0 (Windows NT 10.0; Win64; x64) AppleWebKit/537.36 (KHTML, like Gecko) Chrome/107.0.0.0 Safari/537.36","WebKit","Chrome","107.0.0.0","Windows","10.0","null","null","","<p style=""font-size: 48px;"">+</p>","2","Filler","",""
"","","","","","sentence","23981","html-keyboard-response","224","337455","0.0-6.0-1.47","126","2","2022-11-17 12:51:05","fd252370c17a9971d68c1d4354a03c2e","","Mozilla/5.0 (Windows NT 10.0; Win64; x64) AppleWebKit/537.36 (KHTML, like Gecko) Chrome/107.0.0.0 Safari/537.36","WebKit","Chrome","107.0.0.0","Windows","10.0","562"," ","","A postman is driving a car","2","Filler","",""
"","","","","","fixation","23981","html-keyboard-response","225","337961","0.0-6.0-2.47","126","2","2022-11-17 12:51:05","fd252370c17a9971d68c1d4354a03c2e","","Mozilla/5.0 (Windows NT 10.0; Win64; x64) AppleWebKit/537.36 (KHTML, like Gecko) Chrome/107.0.0.0 Safari/537.36","WebKit","Chrome","107.0.0.0","Windows","10.0","null","null","","<p style=""font-size: 48px;"">+</p>","2","Filler","",""
"","","","","","picture","23981","image-keyboard-response","226","338591","0.0-6.0-3.47","126","2","2022-11-17 12:51:05","fd252370c17a9971d68c1d4354a03c2e","","Mozilla/5.0 (Windows NT 10.0; Win64; x64) AppleWebKit/537.36 (KHTML, like Gecko) Chrome/107.0.0.0 Safari/537.36","WebKit","Chrome","107.0.0.0","Windows","10.0","627","s","","car.jpg","2","Filler","true",""
"","","","","","fixation","23981","html-keyboard-response","227","339601","0.0-6.0-0.48","126","2","2022-11-17 12:51:05","fd252370c17a9971d68c1d4354a03c2e","","Mozilla/5.0 (Windows NT 10.0; Win64; x64) AppleWebKit/537.36 (KHTML, like Gecko) Chrome/107.0.0.0 Safari/537.36","WebKit","Chrome","107.0.0.0","Windows","10.0","null","null","","<p style=""font-size: 48px;"">+</p>","2","Filler","",""
"","","","","","sentence","23981","html-keyboard-response","228","340215","0.0-6.0-1.48","126","2","2022-11-17 12:51:05","fd252370c17a9971d68c1d4354a03c2e","","Mozilla/5.0 (Windows NT 10.0; Win64; x64) AppleWebKit/537.36 (KHTML, like Gecko) Chrome/107.0.0.0 Safari/537.36","WebKit","Chrome","107.0.0.0","Windows","10.0","611"," ","","A ring was placed on the newspaper","2","Filler","",""
"","","","","","fixation","23981","html-keyboard-response","229","340722","0.0-6.0-2.48","126","2","2022-11-17 12:51:05","fd252370c17a9971d68c1d4354a03c2e","","Mozilla/5.0 (Windows NT 10.0; Win64; x64) AppleWebKit/537.36 (KHTML, like Gecko) Chrome/107.0.0.0 Safari/537.36","WebKit","Chrome","107.0.0.0","Windows","10.0","null","null","","<p style=""font-size: 48px;"">+</p>","2","Filler","",""
"","","","","","picture","23981","image-keyboard-response","230","341511","0.0-6.0-3.48","126","2","2022-11-17 12:51:05","fd252370c17a9971d68c1d4354a03c2e","","Mozilla/5.0 (Windows NT 10.0; Win64; x64) AppleWebKit/537.36 (KHTML, like Gecko) Chrome/107.0.0.0 Safari/537.36","WebKit","Chrome","107.0.0.0","Windows","10.0","786","n","","cat.jpg","2","Filler","true",""
"","","","","","fixation","23981","html-keyboard-response","231","342521","0.0-6.0-0.49","126","2","2022-11-17 12:51:05","fd252370c17a9971d68c1d4354a03c2e","","Mozilla/5.0 (Windows NT 10.0; Win64; x64) AppleWebKit/537.36 (KHTML, like Gecko) Chrome/107.0.0.0 Safari/537.36","WebKit","Chrome","107.0.0.0","Windows","10.0","null","null","","<p style=""font-size: 48px;"">+</p>","2","Filler","",""
"","","","","","sentence","23981","html-keyboard-response","232","343087","0.0-6.0-1.49","126","2","2022-11-17 12:51:05","fd252370c17a9971d68c1d4354a03c2e","","Mozilla/5.0 (Windows NT 10.0; Win64; x64) AppleWebKit/537.36 (KHTML, like Gecko) Chrome/107.0.0.0 Safari/537.36","WebKit","Chrome","107.0.0.0","Windows","10.0","563"," ","","A teenage girl is playing the piano","2","Filler","",""
"","","","","","fixation","23981","html-keyboard-response","233","343593","0.0-6.0-2.49","126","2","2022-11-17 12:51:05","fd252370c17a9971d68c1d4354a03c2e","","Mozilla/5.0 (Windows NT 10.0; Win64; x64) AppleWebKit/537.36 (KHTML, like Gecko) Chrome/107.0.0.0 Safari/537.36","WebKit","Chrome","107.0.0.0","Windows","10.0","null","null","","<p style=""font-size: 48px;"">+</p>","2","Filler","",""
"","","","","","picture","23981","image-keyboard-response","234","344191","0.0-6.0-3.49","126","2","2022-11-17 12:51:05","fd252370c17a9971d68c1d4354a03c2e","","Mozilla/5.0 (Windows NT 10.0; Win64; x64) AppleWebKit/537.36 (KHTML, like Gecko) Chrome/107.0.0.0 Safari/537.36","WebKit","Chrome","107.0.0.0","Windows","10.0","595","n","","pillow.jpg","2","Filler","true",""
"","","","","","fixation","23981","html-keyboard-response","235","345202","0.0-6.0-0.50","126","2","2022-11-17 12:51:05","fd252370c17a9971d68c1d4354a03c2e","","Mozilla/5.0 (Windows NT 10.0; Win64; x64) AppleWebKit/537.36 (KHTML, like Gecko) Chrome/107.0.0.0 Safari/537.36","WebKit","Chrome","107.0.0.0","Windows","10.0","null","null","","<p style=""font-size: 48px;"">+</p>","2","Light_Matched","",""
"","","","","","sentence","23981","html-keyboard-response","236","345303","0.0-6.0-1.50","126","2","2022-11-17 12:51:05","fd252370c17a9971d68c1d4354a03c2e","","Mozilla/5.0 (Windows NT 10.0; Win64; x64) AppleWebKit/537.36 (KHTML, like Gecko) Chrome/107.0.0.0 Safari/537.36","WebKit","Chrome","107.0.0.0","Windows","10.0","98"," ","","A balloon dropped and touched a piece of sushi","2","Light_Matched","",""
"","","","","","fixation","23981","html-keyboard-response","237","345809","0.0-6.0-2.50","126","2","2022-11-17 12:51:05","fd252370c17a9971d68c1d4354a03c2e","","Mozilla/5.0 (Windows NT 10.0; Win64; x64) AppleWebKit/537.36 (KHTML, like Gecko) Chrome/107.0.0.0 Safari/537.36","WebKit","Chrome","107.0.0.0","Windows","10.0","null","null","","<p style=""font-size: 48px;"">+</p>","2","Light_Matched","",""
"","","","","","picture","23981","image-keyboard-response","238","346327","0.0-6.0-3.50","126","2","2022-11-17 12:51:05","fd252370c17a9971d68c1d4354a03c2e","","Mozilla/5.0 (Windows NT 10.0; Win64; x64) AppleWebKit/537.36 (KHTML, like Gecko) Chrome/107.0.0.0 Safari/537.36","WebKit","Chrome","107.0.0.0","Windows","10.0","515","s","","sushiS.jpg","2","Light_Matched","true",""
"","","","","","fixation","23981","html-keyboard-response","239","347337","0.0-6.0-0.51","126","2","2022-11-17 12:51:05","fd252370c17a9971d68c1d4354a03c2e","","Mozilla/5.0 (Windows NT 10.0; Win64; x64) AppleWebKit/537.36 (KHTML, like Gecko) Chrome/107.0.0.0 Safari/537.36","WebKit","Chrome","107.0.0.0","Windows","10.0","null","null","","<p style=""font-size: 48px;"">+</p>","2","Filler","",""
"","","","","","sentence","23981","html-keyboard-response","240","348615","0.0-6.0-1.51","126","2","2022-11-17 12:51:05","fd252370c17a9971d68c1d4354a03c2e","","Mozilla/5.0 (Windows NT 10.0; Win64; x64) AppleWebKit/537.36 (KHTML, like Gecko) Chrome/107.0.0.0 Safari/537.36","WebKit","Chrome","107.0.0.0","Windows","10.0","1276"," ","","A thermometer was placed on the box","2","Filler","",""
"","","","","","fixation","23981","html-keyboard-response","241","349121","0.0-6.0-2.51","126","2","2022-11-17 12:51:05","fd252370c17a9971d68c1d4354a03c2e","","Mozilla/5.0 (Windows NT 10.0; Win64; x64) AppleWebKit/537.36 (KHTML, like Gecko) Chrome/107.0.0.0 Safari/537.36","WebKit","Chrome","107.0.0.0","Windows","10.0","null","null","","<p style=""font-size: 48px;"">+</p>","2","Filler","",""
"","","","","","picture","23981","image-keyboard-response","242","349607","0.0-6.0-3.51","126","2","2022-11-17 12:51:05","fd252370c17a9971d68c1d4354a03c2e","","Mozilla/5.0 (Windows NT 10.0; Win64; x64) AppleWebKit/537.36 (KHTML, like Gecko) Chrome/107.0.0.0 Safari/537.36","WebKit","Chrome","107.0.0.0","Windows","10.0","482","n","","button.jpg","2","Filler","true",""
"","","","","","fixation","23981","html-keyboard-response","243","350618","0.0-6.0-0.52","126","2","2022-11-17 12:51:05","fd252370c17a9971d68c1d4354a03c2e","","Mozilla/5.0 (Windows NT 10.0; Win64; x64) AppleWebKit/537.36 (KHTML, like Gecko) Chrome/107.0.0.0 Safari/537.36","WebKit","Chrome","107.0.0.0","Windows","10.0","null","null","","<p style=""font-size: 48px;"">+</p>","2","Filler","",""
"","","","","","sentence","23981","html-keyboard-response","244","351135","0.0-6.0-1.52","126","2","2022-11-17 12:51:05","fd252370c17a9971d68c1d4354a03c2e","","Mozilla/5.0 (Windows NT 10.0; Win64; x64) AppleWebKit/537.36 (KHTML, like Gecko) Chrome/107.0.0.0 Safari/537.36","WebKit","Chrome","107.0.0.0","Windows","10.0","514"," ","","A thief is stealing a wallet","2","Filler","",""
"","","","","","fixation","23981","html-keyboard-response","245","351642","0.0-6.0-2.52","126","2","2022-11-17 12:51:05","fd252370c17a9971d68c1d4354a03c2e","","Mozilla/5.0 (Windows NT 10.0; Win64; x64) AppleWebKit/537.36 (KHTML, like Gecko) Chrome/107.0.0.0 Safari/537.36","WebKit","Chrome","107.0.0.0","Windows","10.0","null","null","","<p style=""font-size: 48px;"">+</p>","2","Filler","",""
"","","","","","picture","23981","image-keyboard-response","246","352647","0.0-6.0-3.52","126","2","2022-11-17 12:51:05","fd252370c17a9971d68c1d4354a03c2e","","Mozilla/5.0 (Windows NT 10.0; Win64; x64) AppleWebKit/537.36 (KHTML, like Gecko) Chrome/107.0.0.0 Safari/537.36","WebKit","Chrome","107.0.0.0","Windows","10.0","1002","n","","teddybear.jpg","2","Filler","true",""
"","","","","","fixation","23981","html-keyboard-response","247","353658","0.0-6.0-0.53","126","2","2022-11-17 12:51:05","fd252370c17a9971d68c1d4354a03c2e","","Mozilla/5.0 (Windows NT 10.0; Win64; x64) AppleWebKit/537.36 (KHTML, like Gecko) Chrome/107.0.0.0 Safari/537.36","WebKit","Chrome","107.0.0.0","Windows","10.0","null","null","","<p style=""font-size: 48px;"">+</p>","2","Filler","",""
"","","","","","sentence","23981","html-keyboard-response","248","354255","0.0-6.0-1.53","126","2","2022-11-17 12:51:05","fd252370c17a9971d68c1d4354a03c2e","","Mozilla/5.0 (Windows NT 10.0; Win64; x64) AppleWebKit/537.36 (KHTML, like Gecko) Chrome/107.0.0.0 Safari/537.36","WebKit","Chrome","107.0.0.0","Windows","10.0","594"," ","","A dentist is drinking a can of cola","2","Filler","",""
