"success","timeout","failed_images","failed_audio","failed_video","typeoftrial","subject","trial_type","trial_index","time_elapsed","internal_node_id","run_id","condition","recorded_at","source_code_version","ip","user_agent","device","browser","browser_version","platform","platform_version","rt","response","Experiment","stimulus","list_number","trialcondition","correct","question_order"
"true","false","[]","[]","[]","preload","71323","preload","0","3822","0.0-0.0","54","1","2022-11-17 12:21:07","fd252370c17a9971d68c1d4354a03c2e","","Mozilla/5.0 (X11; Linux x86_64; rv:108.0) Gecko/20100101 Firefox/108.0","","Firefox","108.0","Linux","","","","","","","","",""
"","","","","","ID","71323","survey-text","1","14981","0.0-1.0","54","1","2022-11-17 12:21:07","fd252370c17a9971d68c1d4354a03c2e","","Mozilla/5.0 (X11; Linux x86_64; rv:108.0) Gecko/20100101 Firefox/108.0","","Firefox","108.0","Linux","","11140","{""ID"":""604b2da4f24a3d7a227553a0""}","","","","","",""
"","","","","","instructions","71323","html-button-response","2","31752","0.0-2.0","54","1","2022-11-17 12:21:07","fd252370c17a9971d68c1d4354a03c2e","","Mozilla/5.0 (X11; Linux x86_64; rv:108.0) Gecko/20100101 Firefox/108.0","","Firefox","108.0","Linux","","16764","0","","
                    <p style=""font-size:20px;""> Welcome to the experiment! </p>
                    <p style=""font-size:20px;""> In this experiment, you will be asked to make judgments about the content of different sentences.</p>
                    <p style=""font-size:20px;""> On each trial, you will read a sentence, and will be shown a picture immediately following the sentence. </p>
                    <p style=""font-size:20px;""> Your task is to decide whether the object displayed in the picture was mentioned in the sentence or not </p>
                    <p style=""font-size:20px;""> and respond as quickly as possible by pressing <strong>S</strong> for yes or <strong>N</strong> for no. </p>
                    <p style=""font-size:20px;""> You will now do a practice session with feedback and instructions. </p>
                    <p style=""font-size:20px;""> Click the button below to continue.</p>
                    ","","","",""
"","","","","","instructions","71323","html-button-response","3","46731","0.0-3.0","54","1","2022-11-17 12:21:07","fd252370c17a9971d68c1d4354a03c2e","","Mozilla/5.0 (X11; Linux x86_64; rv:108.0) Gecko/20100101 Firefox/108.0","","Firefox","108.0","Linux","","14973","0","","
                    <p style=""font-size:20px;""> You are about to begin the practice test. </p>
                    <p style=""font-size:20px;""> On each trial, a sentence will appear on the screen. You should press SPACEBAR when you have read and understood the sentence.</p>
                    <p style=""font-size:20px;""> After you press SPACEBAR, a picture will appear on the screen. </p>
                    <p style=""font-size:20px;""> You need to indicate whether or not the pictured object was mentioned in the sentence. </p>
                    <p style=""font-size:20px;""> If the object WAS mentioned in the preceding sentence, you should press <strong>S</strong> </p>
                    <p style=""font-size:20px;""> If the object was NOT mentioned in the preceding sentence, you should press <strong>N</strong>. </p>
                    <p style=""font-size:20px;""> Click the button below to continue to the practice session.</p>
                    ","","","",""
"","","","","","fixation","71323","html-keyboard-response","4","47739","0.0-4.0-0.0","54","1","2022-11-17 12:21:07","fd252370c17a9971d68c1d4354a03c2e","","Mozilla/5.0 (X11; Linux x86_64; rv:108.0) Gecko/20100101 Firefox/108.0","","Firefox","108.0","Linux","","null","null","","<p style=""font-size: 48px;"">+</p>","practice","practice_n","",""
"","","","","","sentence","71323","html-keyboard-response","5","51330","0.0-4.0-1.0","54","1","2022-11-17 12:21:07","fd252370c17a9971d68c1d4354a03c2e","","Mozilla/5.0 (X11; Linux x86_64; rv:108.0) Gecko/20100101 Firefox/108.0","","Firefox","108.0","Linux","","3587"," ","","A fork was placed on a stool","practice","practice_n","",""
"","","","","","fixation","71323","html-keyboard-response","6","51835","0.0-4.0-2.0","54","1","2022-11-17 12:21:07","fd252370c17a9971d68c1d4354a03c2e","","Mozilla/5.0 (X11; Linux x86_64; rv:108.0) Gecko/20100101 Firefox/108.0","","Firefox","108.0","Linux","","null","null","","<p style=""font-size: 48px;"">+</p>","practice","practice_n","",""
"","","","","","picture","71323","image-keyboard-response","7","53697","0.0-4.0-3.0","54","1","2022-11-17 12:21:07","fd252370c17a9971d68c1d4354a03c2e","","Mozilla/5.0 (X11; Linux x86_64; rv:108.0) Gecko/20100101 Firefox/108.0","","Firefox","108.0","Linux","","1849","n","","tableB.jpg","practice","practice_n","true",""
"","","","","","","","html-keyboard-response","8","55701","0.0-4.0-4.0","54","1","2022-11-17 12:21:07","fd252370c17a9971d68c1d4354a03c2e","","Mozilla/5.0 (X11; Linux x86_64; rv:108.0) Gecko/20100101 Firefox/108.0","","Firefox","108.0","Linux","","null","null","","CORRECT!","","","",""
"","","","","","fixation","71323","html-keyboard-response","9","56704","0.0-4.0-0.1","54","1","2022-11-17 12:21:07","fd252370c17a9971d68c1d4354a03c2e","","Mozilla/5.0 (X11; Linux x86_64; rv:108.0) Gecko/20100101 Firefox/108.0","","Firefox","108.0","Linux","","null","null","","<p style=""font-size: 48px;"">+</p>","practice","practice_s","",""
"","","","","","sentence","71323","html-keyboard-response","10","58634","0.0-4.0-1.1","54","1","2022-11-17 12:21:07","fd252370c17a9971d68c1d4354a03c2e","","Mozilla/5.0 (X11; Linux x86_64; rv:108.0) Gecko/20100101 Firefox/108.0","","Firefox","108.0","Linux","","1926"," ","","A knife was placed on a hammer","practice","practice_s","",""
"","","","","","fixation","71323","html-keyboard-response","11","59137","0.0-4.0-2.1","54","1","2022-11-17 12:21:07","fd252370c17a9971d68c1d4354a03c2e","","Mozilla/5.0 (X11; Linux x86_64; rv:108.0) Gecko/20100101 Firefox/108.0","","Firefox","108.0","Linux","","null","null","","<p style=""font-size: 48px;"">+</p>","practice","practice_s","",""
"","","","","","picture","71323","image-keyboard-response","12","60558","0.0-4.0-3.1","54","1","2022-11-17 12:21:07","fd252370c17a9971d68c1d4354a03c2e","","Mozilla/5.0 (X11; Linux x86_64; rv:108.0) Gecko/20100101 Firefox/108.0","","Firefox","108.0","Linux","","1413","s","","hammerB.jpg","practice","practice_s","true",""
"","","","","","","","html-keyboard-response","13","62561","0.0-4.0-4.1","54","1","2022-11-17 12:21:07","fd252370c17a9971d68c1d4354a03c2e","","Mozilla/5.0 (X11; Linux x86_64; rv:108.0) Gecko/20100101 Firefox/108.0","","Firefox","108.0","Linux","","null","null","","CORRECT!","","","",""
"","","","","","fixation","71323","html-keyboard-response","14","63564","0.0-4.0-0.2","54","1","2022-11-17 12:21:07","fd252370c17a9971d68c1d4354a03c2e","","Mozilla/5.0 (X11; Linux x86_64; rv:108.0) Gecko/20100101 Firefox/108.0","","Firefox","108.0","Linux","","null","null","","<p style=""font-size: 48px;"">+</p>","practice","practice_n","",""
"","","","","","sentence","71323","html-keyboard-response","15","65919","0.0-4.0-1.2","54","1","2022-11-17 12:21:07","fd252370c17a9971d68c1d4354a03c2e","","Mozilla/5.0 (X11; Linux x86_64; rv:108.0) Gecko/20100101 Firefox/108.0","","Firefox","108.0","Linux","","2353"," ","","A balloon dropped and smashed a cup","practice","practice_n","",""
"","","","","","fixation","71323","html-keyboard-response","16","66423","0.0-4.0-2.2","54","1","2022-11-17 12:21:07","fd252370c17a9971d68c1d4354a03c2e","","Mozilla/5.0 (X11; Linux x86_64; rv:108.0) Gecko/20100101 Firefox/108.0","","Firefox","108.0","Linux","","null","null","","<p style=""font-size: 48px;"">+</p>","practice","practice_n","",""
"","","","","","picture","71323","image-keyboard-response","17","67380","0.0-4.0-3.2","54","1","2022-11-17 12:21:07","fd252370c17a9971d68c1d4354a03c2e","","Mozilla/5.0 (X11; Linux x86_64; rv:108.0) Gecko/20100101 Firefox/108.0","","Firefox","108.0","Linux","","947","n","","bananaB.jpg","practice","practice_n","true",""
"","","","","","","","html-keyboard-response","18","69382","0.0-4.0-4.2","54","1","2022-11-17 12:21:07","fd252370c17a9971d68c1d4354a03c2e","","Mozilla/5.0 (X11; Linux x86_64; rv:108.0) Gecko/20100101 Firefox/108.0","","Firefox","108.0","Linux","","null","null","","CORRECT!","","","",""
"","","","","","fixation","71323","html-keyboard-response","19","70385","0.0-4.0-0.3","54","1","2022-11-17 12:21:07","fd252370c17a9971d68c1d4354a03c2e","","Mozilla/5.0 (X11; Linux x86_64; rv:108.0) Gecko/20100101 Firefox/108.0","","Firefox","108.0","Linux","","null","null","","<p style=""font-size: 48px;"">+</p>","practice","practice_n","",""
"","","","","","sentence","71323","html-keyboard-response","20","72181","0.0-4.0-1.3","54","1","2022-11-17 12:21:07","fd252370c17a9971d68c1d4354a03c2e","","Mozilla/5.0 (X11; Linux x86_64; rv:108.0) Gecko/20100101 Firefox/108.0","","Firefox","108.0","Linux","","1793"," ","","A bowling ball dropped and touched a bottle","practice","practice_n","",""
"","","","","","fixation","71323","html-keyboard-response","21","72684","0.0-4.0-2.3","54","1","2022-11-17 12:21:07","fd252370c17a9971d68c1d4354a03c2e","","Mozilla/5.0 (X11; Linux x86_64; rv:108.0) Gecko/20100101 Firefox/108.0","","Firefox","108.0","Linux","","null","null","","<p style=""font-size: 48px;"">+</p>","practice","practice_n","",""
"","","","","","picture","71323","image-keyboard-response","22","73627","0.0-4.0-3.3","54","1","2022-11-17 12:21:07","fd252370c17a9971d68c1d4354a03c2e","","Mozilla/5.0 (X11; Linux x86_64; rv:108.0) Gecko/20100101 Firefox/108.0","","Firefox","108.0","Linux","","934","n","","bookB.jpg","practice","practice_n","true",""
"","","","","","","","html-keyboard-response","23","75630","0.0-4.0-4.3","54","1","2022-11-17 12:21:07","fd252370c17a9971d68c1d4354a03c2e","","Mozilla/5.0 (X11; Linux x86_64; rv:108.0) Gecko/20100101 Firefox/108.0","","Firefox","108.0","Linux","","null","null","","CORRECT!","","","",""
"","","","","","fixation","71323","html-keyboard-response","24","76633","0.0-4.0-0.4","54","1","2022-11-17 12:21:07","fd252370c17a9971d68c1d4354a03c2e","","Mozilla/5.0 (X11; Linux x86_64; rv:108.0) Gecko/20100101 Firefox/108.0","","Firefox","108.0","Linux","","null","null","","<p style=""font-size: 48px;"">+</p>","practice","practice_s","",""
"","","","","","sentence","71323","html-keyboard-response","25","78258","0.0-4.0-1.4","54","1","2022-11-17 12:21:07","fd252370c17a9971d68c1d4354a03c2e","","Mozilla/5.0 (X11; Linux x86_64; rv:108.0) Gecko/20100101 Firefox/108.0","","Firefox","108.0","Linux","","1623"," ","","A bowling ball dropped and smashed a teacup","practice","practice_s","",""
"","","","","","fixation","71323","html-keyboard-response","26","78761","0.0-4.0-2.4","54","1","2022-11-17 12:21:07","fd252370c17a9971d68c1d4354a03c2e","","Mozilla/5.0 (X11; Linux x86_64; rv:108.0) Gecko/20100101 Firefox/108.0","","Firefox","108.0","Linux","","null","null","","<p style=""font-size: 48px;"">+</p>","practice","practice_s","",""
"","","","","","picture","71323","image-keyboard-response","27","80393","0.0-4.0-3.4","54","1","2022-11-17 12:21:07","fd252370c17a9971d68c1d4354a03c2e","","Mozilla/5.0 (X11; Linux x86_64; rv:108.0) Gecko/20100101 Firefox/108.0","","Firefox","108.0","Linux","","1624","s","","cupB.jpg","practice","practice_s","true",""
"","","","","","","","html-keyboard-response","28","82396","0.0-4.0-4.4","54","1","2022-11-17 12:21:07","fd252370c17a9971d68c1d4354a03c2e","","Mozilla/5.0 (X11; Linux x86_64; rv:108.0) Gecko/20100101 Firefox/108.0","","Firefox","108.0","Linux","","null","null","","CORRECT!","","","",""
"","","","","","fixation","71323","html-keyboard-response","29","83400","0.0-4.0-0.5","54","1","2022-11-17 12:21:07","fd252370c17a9971d68c1d4354a03c2e","","Mozilla/5.0 (X11; Linux x86_64; rv:108.0) Gecko/20100101 Firefox/108.0","","Firefox","108.0","Linux","","null","null","","<p style=""font-size: 48px;"">+</p>","practice","practice_s","",""
"","","","","","sentence","71323","html-keyboard-response","30","85057","0.0-4.0-1.5","54","1","2022-11-17 12:21:07","fd252370c17a9971d68c1d4354a03c2e","","Mozilla/5.0 (X11; Linux x86_64; rv:108.0) Gecko/20100101 Firefox/108.0","","Firefox","108.0","Linux","","1655"," ","","A balloon dropped and touched a cigarette","practice","practice_s","",""
"","","","","","fixation","71323","html-keyboard-response","31","85561","0.0-4.0-2.5","54","1","2022-11-17 12:21:07","fd252370c17a9971d68c1d4354a03c2e","","Mozilla/5.0 (X11; Linux x86_64; rv:108.0) Gecko/20100101 Firefox/108.0","","Firefox","108.0","Linux","","null","null","","<p style=""font-size: 48px;"">+</p>","practice","practice_s","",""
"","","","","","picture","71323","image-keyboard-response","32","86589","0.0-4.0-3.5","54","1","2022-11-17 12:21:07","fd252370c17a9971d68c1d4354a03c2e","","Mozilla/5.0 (X11; Linux x86_64; rv:108.0) Gecko/20100101 Firefox/108.0","","Firefox","108.0","Linux","","1018","s","","cigaretteB.jpg","practice","practice_s","true",""
"","","","","","","","html-keyboard-response","33","88593","0.0-4.0-4.5","54","1","2022-11-17 12:21:07","fd252370c17a9971d68c1d4354a03c2e","","Mozilla/5.0 (X11; Linux x86_64; rv:108.0) Gecko/20100101 Firefox/108.0","","Firefox","108.0","Linux","","null","null","","CORRECT!","","","",""
"","","","","","movetoexp","71323","html-button-response","34","99348","0.0-5.0","54","1","2022-11-17 12:21:07","fd252370c17a9971d68c1d4354a03c2e","","Mozilla/5.0 (X11; Linux x86_64; rv:108.0) Gecko/20100101 Firefox/108.0","","Firefox","108.0","Linux","","10753","0","","<p style=""font-size:20px;"">You have now completed the practice session! </p>
                    <p style=""font-size:20px;"">You will now move on to the main experiment, where you will not be provided any feedback. </p>
                    <p style=""font-size:20px;"">Remember, you should press <strong>S</strong> if the pictured object was mentioned in the preceding sentence<br> and <strong>N</strong> if the pictured object was not mentioned in the preceding sentence.</p>
                    <p style=""font-size:20px;"">Please click the button below to continue to the main experiment. </p>","","","",""
"","","","","","fixation","71323","html-keyboard-response","35","100355","0.0-6.0-0.0","54","1","2022-11-17 12:21:07","fd252370c17a9971d68c1d4354a03c2e","","Mozilla/5.0 (X11; Linux x86_64; rv:108.0) Gecko/20100101 Firefox/108.0","","Firefox","108.0","Linux","","null","null","","<p style=""font-size: 48px;"">+</p>","1","Filler","",""
"","","","","","sentence","71323","html-keyboard-response","36","102144","0.0-6.0-1.0","54","1","2022-11-17 12:21:07","fd252370c17a9971d68c1d4354a03c2e","","Mozilla/5.0 (X11; Linux x86_64; rv:108.0) Gecko/20100101 Firefox/108.0","","Firefox","108.0","Linux","","1785"," ","","A kitten is playing in the sandbox","1","Filler","",""
"","","","","","fixation","71323","html-keyboard-response","37","102648","0.0-6.0-2.0","54","1","2022-11-17 12:21:07","fd252370c17a9971d68c1d4354a03c2e","","Mozilla/5.0 (X11; Linux x86_64; rv:108.0) Gecko/20100101 Firefox/108.0","","Firefox","108.0","Linux","","null","null","","<p style=""font-size: 48px;"">+</p>","1","Filler","",""
"","","","","","picture","71323","image-keyboard-response","38","104119","0.0-6.0-3.0","54","1","2022-11-17 12:21:07","fd252370c17a9971d68c1d4354a03c2e","","Mozilla/5.0 (X11; Linux x86_64; rv:108.0) Gecko/20100101 Firefox/108.0","","Firefox","108.0","Linux","","1462","n","","dustbin.jpg","1","Filler","true",""
"","","","","","fixation","71323","html-keyboard-response","39","105123","0.0-6.0-0.1","54","1","2022-11-17 12:21:07","fd252370c17a9971d68c1d4354a03c2e","","Mozilla/5.0 (X11; Linux x86_64; rv:108.0) Gecko/20100101 Firefox/108.0","","Firefox","108.0","Linux","","null","null","","<p style=""font-size: 48px;"">+</p>","1","Filler","",""
"","","","","","sentence","71323","html-keyboard-response","40","107251","0.0-6.0-1.1","54","1","2022-11-17 12:21:07","fd252370c17a9971d68c1d4354a03c2e","","Mozilla/5.0 (X11; Linux x86_64; rv:108.0) Gecko/20100101 Firefox/108.0","","Firefox","108.0","Linux","","2124"," ","","A donkey is drinking water.","1","Filler","",""
"","","","","","fixation","71323","html-keyboard-response","41","107763","0.0-6.0-2.1","54","1","2022-11-17 12:21:07","fd252370c17a9971d68c1d4354a03c2e","","Mozilla/5.0 (X11; Linux x86_64; rv:108.0) Gecko/20100101 Firefox/108.0","","Firefox","108.0","Linux","","null","null","","<p style=""font-size: 48px;"">+</p>","1","Filler","",""
"","","","","","picture","71323","image-keyboard-response","42","108673","0.0-6.0-3.1","54","1","2022-11-17 12:21:07","fd252370c17a9971d68c1d4354a03c2e","","Mozilla/5.0 (X11; Linux x86_64; rv:108.0) Gecko/20100101 Firefox/108.0","","Firefox","108.0","Linux","","894","n","","couch.jpg","1","Filler","true",""
"","","","","","fixation","71323","html-keyboard-response","43","109683","0.0-6.0-0.2","54","1","2022-11-17 12:21:07","fd252370c17a9971d68c1d4354a03c2e","","Mozilla/5.0 (X11; Linux x86_64; rv:108.0) Gecko/20100101 Firefox/108.0","","Firefox","108.0","Linux","","null","null","","<p style=""font-size: 48px;"">+</p>","1","Filler","",""
"","","","","","sentence","71323","html-keyboard-response","44","111241","0.0-6.0-1.2","54","1","2022-11-17 12:21:07","fd252370c17a9971d68c1d4354a03c2e","","Mozilla/5.0 (X11; Linux x86_64; rv:108.0) Gecko/20100101 Firefox/108.0","","Firefox","108.0","Linux","","1551"," ","","A cushion was placed on the magazine","1","Filler","",""
"","","","","","fixation","71323","html-keyboard-response","45","111755","0.0-6.0-2.2","54","1","2022-11-17 12:21:07","fd252370c17a9971d68c1d4354a03c2e","","Mozilla/5.0 (X11; Linux x86_64; rv:108.0) Gecko/20100101 Firefox/108.0","","Firefox","108.0","Linux","","null","null","","<p style=""font-size: 48px;"">+</p>","1","Filler","",""
"","","","","","picture","71323","image-keyboard-response","46","112947","0.0-6.0-3.2","54","1","2022-11-17 12:21:07","fd252370c17a9971d68c1d4354a03c2e","","Mozilla/5.0 (X11; Linux x86_64; rv:108.0) Gecko/20100101 Firefox/108.0","","Firefox","108.0","Linux","","1177","n","","box.jpg","1","Filler","true",""
"","","","","","fixation","71323","html-keyboard-response","47","113952","0.0-6.0-0.3","54","1","2022-11-17 12:21:07","fd252370c17a9971d68c1d4354a03c2e","","Mozilla/5.0 (X11; Linux x86_64; rv:108.0) Gecko/20100101 Firefox/108.0","","Firefox","108.0","Linux","","null","null","","<p style=""font-size: 48px;"">+</p>","1","Light_Matched","",""
"","","","","","sentence","71323","html-keyboard-response","48","115620","0.0-6.0-1.3","54","1","2022-11-17 12:21:07","fd252370c17a9971d68c1d4354a03c2e","","Mozilla/5.0 (X11; Linux x86_64; rv:108.0) Gecko/20100101 Firefox/108.0","","Firefox","108.0","Linux","","1662"," ","","A balloon dropped and touched an iPhone","1","Light_Matched","",""
"","","","","","fixation","71323","html-keyboard-response","49","116125","0.0-6.0-2.3","54","1","2022-11-17 12:21:07","fd252370c17a9971d68c1d4354a03c2e","","Mozilla/5.0 (X11; Linux x86_64; rv:108.0) Gecko/20100101 Firefox/108.0","","Firefox","108.0","Linux","","null","null","","<p style=""font-size: 48px;"">+</p>","1","Light_Matched","",""
"","","","","","picture","71323","image-keyboard-response","50","117197","0.0-6.0-3.3","54","1","2022-11-17 12:21:07","fd252370c17a9971d68c1d4354a03c2e","","Mozilla/5.0 (X11; Linux x86_64; rv:108.0) Gecko/20100101 Firefox/108.0","","Firefox","108.0","Linux","","1059","s","","iphoneS.png","1","Light_Matched","true",""
"","","","","","fixation","71323","html-keyboard-response","51","118203","0.0-6.0-0.4","54","1","2022-11-17 12:21:07","fd252370c17a9971d68c1d4354a03c2e","","Mozilla/5.0 (X11; Linux x86_64; rv:108.0) Gecko/20100101 Firefox/108.0","","Firefox","108.0","Linux","","null","null","","<p style=""font-size: 48px;"">+</p>","1","Light_Contradictory","",""
"","","","","","sentence","71323","html-keyboard-response","52","119411","0.0-6.0-1.4","54","1","2022-11-17 12:21:07","fd252370c17a9971d68c1d4354a03c2e","","Mozilla/5.0 (X11; Linux x86_64; rv:108.0) Gecko/20100101 Firefox/108.0","","Firefox","108.0","Linux","","1203"," ","","A balloon dropped and smashed a tile","1","Light_Contradictory","",""
"","","","","","fixation","71323","html-keyboard-response","53","119916","0.0-6.0-2.4","54","1","2022-11-17 12:21:07","fd252370c17a9971d68c1d4354a03c2e","","Mozilla/5.0 (X11; Linux x86_64; rv:108.0) Gecko/20100101 Firefox/108.0","","Firefox","108.0","Linux","","null","null","","<p style=""font-size: 48px;"">+</p>","1","Light_Contradictory","",""
"","","","","","picture","71323","image-keyboard-response","54","121025","0.0-6.0-3.4","54","1","2022-11-17 12:21:07","fd252370c17a9971d68c1d4354a03c2e","","Mozilla/5.0 (X11; Linux x86_64; rv:108.0) Gecko/20100101 Firefox/108.0","","Firefox","108.0","Linux","","1090","s","","tileS.jpg","1","Light_Contradictory","true",""
"","","","","","fixation","71323","html-keyboard-response","55","122030","0.0-6.0-0.5","54","1","2022-11-17 12:21:07","fd252370c17a9971d68c1d4354a03c2e","","Mozilla/5.0 (X11; Linux x86_64; rv:108.0) Gecko/20100101 Firefox/108.0","","Firefox","108.0","Linux","","null","null","","<p style=""font-size: 48px;"">+</p>","1","Filler","",""
"","","","","","sentence","71323","html-keyboard-response","56","123594","0.0-6.0-1.5","54","1","2022-11-17 12:21:07","fd252370c17a9971d68c1d4354a03c2e","","Mozilla/5.0 (X11; Linux x86_64; rv:108.0) Gecko/20100101 Firefox/108.0","","Firefox","108.0","Linux","","1559"," ","","A cat is drinking water from a bowl","1","Filler","",""
"","","","","","fixation","71323","html-keyboard-response","57","124099","0.0-6.0-2.5","54","1","2022-11-17 12:21:07","fd252370c17a9971d68c1d4354a03c2e","","Mozilla/5.0 (X11; Linux x86_64; rv:108.0) Gecko/20100101 Firefox/108.0","","Firefox","108.0","Linux","","null","null","","<p style=""font-size: 48px;"">+</p>","1","Filler","",""
"","","","","","picture","71323","image-keyboard-response","58","125058","0.0-6.0-3.5","54","1","2022-11-17 12:21:07","fd252370c17a9971d68c1d4354a03c2e","","Mozilla/5.0 (X11; Linux x86_64; rv:108.0) Gecko/20100101 Firefox/108.0","","Firefox","108.0","Linux","","950","s","","bowl.jpg","1","Filler","true",""
"","","","","","fixation","71323","html-keyboard-response","59","126062","0.0-6.0-0.6","54","1","2022-11-17 12:21:07","fd252370c17a9971d68c1d4354a03c2e","","Mozilla/5.0 (X11; Linux x86_64; rv:108.0) Gecko/20100101 Firefox/108.0","","Firefox","108.0","Linux","","null","null","","<p style=""font-size: 48px;"">+</p>","1","Filler","",""
"","","","","","sentence","71323","html-keyboard-response","60","127087","0.0-6.0-1.6","54","1","2022-11-17 12:21:07","fd252370c17a9971d68c1d4354a03c2e","","Mozilla/5.0 (X11; Linux x86_64; rv:108.0) Gecko/20100101 Firefox/108.0","","Firefox","108.0","Linux","","1020"," ","","A pilot is reading a book","1","Filler","",""
"","","","","","fixation","71323","html-keyboard-response","61","127591","0.0-6.0-2.6","54","1","2022-11-17 12:21:07","fd252370c17a9971d68c1d4354a03c2e","","Mozilla/5.0 (X11; Linux x86_64; rv:108.0) Gecko/20100101 Firefox/108.0","","Firefox","108.0","Linux","","null","null","","<p style=""font-size: 48px;"">+</p>","1","Filler","",""
"","","","","","picture","71323","image-keyboard-response","62","128521","0.0-6.0-3.6","54","1","2022-11-17 12:21:07","fd252370c17a9971d68c1d4354a03c2e","","Mozilla/5.0 (X11; Linux x86_64; rv:108.0) Gecko/20100101 Firefox/108.0","","Firefox","108.0","Linux","","920","n","","spoon.jpg","1","Filler","true",""
"","","","","","fixation","71323","html-keyboard-response","63","129525","0.0-6.0-0.7","54","1","2022-11-17 12:21:07","fd252370c17a9971d68c1d4354a03c2e","","Mozilla/5.0 (X11; Linux x86_64; rv:108.0) Gecko/20100101 Firefox/108.0","","Firefox","108.0","Linux","","null","null","","<p style=""font-size: 48px;"">+</p>","1","Light_Matched","",""
"","","","","","sentence","71323","html-keyboard-response","64","131011","0.0-6.0-1.7","54","1","2022-11-17 12:21:07","fd252370c17a9971d68c1d4354a03c2e","","Mozilla/5.0 (X11; Linux x86_64; rv:108.0) Gecko/20100101 Firefox/108.0","","Firefox","108.0","Linux","","1481"," ","","A balloon dropped and touched a light bulb","1","Light_Matched","",""
"","","","","","fixation","71323","html-keyboard-response","65","131515","0.0-6.0-2.7","54","1","2022-11-17 12:21:07","fd252370c17a9971d68c1d4354a03c2e","","Mozilla/5.0 (X11; Linux x86_64; rv:108.0) Gecko/20100101 Firefox/108.0","","Firefox","108.0","Linux","","null","null","","<p style=""font-size: 48px;"">+</p>","1","Light_Matched","",""
"","","","","","picture","71323","image-keyboard-response","66","132820","0.0-6.0-3.7","54","1","2022-11-17 12:21:07","fd252370c17a9971d68c1d4354a03c2e","","Mozilla/5.0 (X11; Linux x86_64; rv:108.0) Gecko/20100101 Firefox/108.0","","Firefox","108.0","Linux","","1291","s","","lampS.jpg","1","Light_Matched","true",""
"","","","","","fixation","71323","html-keyboard-response","67","133825","0.0-6.0-0.8","54","1","2022-11-17 12:21:07","fd252370c17a9971d68c1d4354a03c2e","","Mozilla/5.0 (X11; Linux x86_64; rv:108.0) Gecko/20100101 Firefox/108.0","","Firefox","108.0","Linux","","null","null","","<p style=""font-size: 48px;"">+</p>","1","Heavy_Matched","",""
"","","","","","sentence","71323","html-keyboard-response","68","135793","0.0-6.0-1.8","54","1","2022-11-17 12:21:07","fd252370c17a9971d68c1d4354a03c2e","","Mozilla/5.0 (X11; Linux x86_64; rv:108.0) Gecko/20100101 Firefox/108.0","","Firefox","108.0","Linux","","1963"," ","","A bowling ball dropped and smashed a piece of cake","1","Heavy_Matched","",""
"","","","","","fixation","71323","html-keyboard-response","69","136299","0.0-6.0-2.8","54","1","2022-11-17 12:21:07","fd252370c17a9971d68c1d4354a03c2e","","Mozilla/5.0 (X11; Linux x86_64; rv:108.0) Gecko/20100101 Firefox/108.0","","Firefox","108.0","Linux","","null","null","","<p style=""font-size: 48px;"">+</p>","1","Heavy_Matched","",""
"","","","","","picture","71323","image-keyboard-response","70","137498","0.0-6.0-3.8","54","1","2022-11-17 12:21:07","fd252370c17a9971d68c1d4354a03c2e","","Mozilla/5.0 (X11; Linux x86_64; rv:108.0) Gecko/20100101 Firefox/108.0","","Firefox","108.0","Linux","","1186","s","","cakeS.jpg","1","Heavy_Matched","true",""
"","","","","","fixation","71323","html-keyboard-response","71","138502","0.0-6.0-0.9","54","1","2022-11-17 12:21:07","fd252370c17a9971d68c1d4354a03c2e","","Mozilla/5.0 (X11; Linux x86_64; rv:108.0) Gecko/20100101 Firefox/108.0","","Firefox","108.0","Linux","","null","null","","<p style=""font-size: 48px;"">+</p>","1","Filler","",""
"","","","","","sentence","71323","html-keyboard-response","72","140143","0.0-6.0-1.9","54","1","2022-11-17 12:21:07","fd252370c17a9971d68c1d4354a03c2e","","Mozilla/5.0 (X11; Linux x86_64; rv:108.0) Gecko/20100101 Firefox/108.0","","Firefox","108.0","Linux","","1636"," ","","A man is boiling potatoes.","1","Filler","",""
"","","","","","fixation","71323","html-keyboard-response","73","140649","0.0-6.0-2.9","54","1","2022-11-17 12:21:07","fd252370c17a9971d68c1d4354a03c2e","","Mozilla/5.0 (X11; Linux x86_64; rv:108.0) Gecko/20100101 Firefox/108.0","","Firefox","108.0","Linux","","null","null","","<p style=""font-size: 48px;"">+</p>","1","Filler","",""
"","","","","","picture","71323","image-keyboard-response","74","141605","0.0-6.0-3.9","54","1","2022-11-17 12:21:07","fd252370c17a9971d68c1d4354a03c2e","","Mozilla/5.0 (X11; Linux x86_64; rv:108.0) Gecko/20100101 Firefox/108.0","","Firefox","108.0","Linux","","944","n","","cup.jpg","1","Filler","true",""
"","","","","","fixation","71323","html-keyboard-response","75","142611","0.0-6.0-0.10","54","1","2022-11-17 12:21:07","fd252370c17a9971d68c1d4354a03c2e","","Mozilla/5.0 (X11; Linux x86_64; rv:108.0) Gecko/20100101 Firefox/108.0","","Firefox","108.0","Linux","","null","null","","<p style=""font-size: 48px;"">+</p>","1","Heavy_Contradictory","",""
"","","","","","sentence","71323","html-keyboard-response","76","144432","0.0-6.0-1.10","54","1","2022-11-17 12:21:07","fd252370c17a9971d68c1d4354a03c2e","","Mozilla/5.0 (X11; Linux x86_64; rv:108.0) Gecko/20100101 Firefox/108.0","","Firefox","108.0","Linux","","1817"," ","","A bowling ball dropped and touched a chocolate ice-cream","1","Heavy_Contradictory","",""
"","","","","","fixation","71323","html-keyboard-response","77","144936","0.0-6.0-2.10","54","1","2022-11-17 12:21:07","fd252370c17a9971d68c1d4354a03c2e","","Mozilla/5.0 (X11; Linux x86_64; rv:108.0) Gecko/20100101 Firefox/108.0","","Firefox","108.0","Linux","","null","null","","<p style=""font-size: 48px;"">+</p>","1","Heavy_Contradictory","",""
"","","","","","picture","71323","image-keyboard-response","78","146030","0.0-6.0-3.10","54","1","2022-11-17 12:21:07","fd252370c17a9971d68c1d4354a03c2e","","Mozilla/5.0 (X11; Linux x86_64; rv:108.0) Gecko/20100101 Firefox/108.0","","Firefox","108.0","Linux","","1078","s","","icecreamS.jpg","1","Heavy_Contradictory","true",""
"","","","","","fixation","71323","html-keyboard-response","79","147035","0.0-6.0-0.11","54","1","2022-11-17 12:21:07","fd252370c17a9971d68c1d4354a03c2e","","Mozilla/5.0 (X11; Linux x86_64; rv:108.0) Gecko/20100101 Firefox/108.0","","Firefox","108.0","Linux","","null","null","","<p style=""font-size: 48px;"">+</p>","1","Filler","",""
"","","","","","sentence","71323","html-keyboard-response","80","148770","0.0-6.0-1.11","54","1","2022-11-17 12:21:07","fd252370c17a9971d68c1d4354a03c2e","","Mozilla/5.0 (X11; Linux x86_64; rv:108.0) Gecko/20100101 Firefox/108.0","","Firefox","108.0","Linux","","1729"," ","","A woman is taking money out of a wallet","1","Filler","",""
"","","","","","fixation","71323","html-keyboard-response","81","149276","0.0-6.0-2.11","54","1","2022-11-17 12:21:07","fd252370c17a9971d68c1d4354a03c2e","","Mozilla/5.0 (X11; Linux x86_64; rv:108.0) Gecko/20100101 Firefox/108.0","","Firefox","108.0","Linux","","null","null","","<p style=""font-size: 48px;"">+</p>","1","Filler","",""
"","","","","","picture","71323","image-keyboard-response","82","150222","0.0-6.0-3.11","54","1","2022-11-17 12:21:07","fd252370c17a9971d68c1d4354a03c2e","","Mozilla/5.0 (X11; Linux x86_64; rv:108.0) Gecko/20100101 Firefox/108.0","","Firefox","108.0","Linux","","934","n","","coconut.jpg","1","Filler","true",""
"","","","","","fixation","71323","html-keyboard-response","83","151227","0.0-6.0-0.12","54","1","2022-11-17 12:21:07","fd252370c17a9971d68c1d4354a03c2e","","Mozilla/5.0 (X11; Linux x86_64; rv:108.0) Gecko/20100101 Firefox/108.0","","Firefox","108.0","Linux","","null","null","","<p style=""font-size: 48px;"">+</p>","1","Filler","",""
"","","","","","sentence","71323","html-keyboard-response","84","152475","0.0-6.0-1.12","54","1","2022-11-17 12:21:07","fd252370c17a9971d68c1d4354a03c2e","","Mozilla/5.0 (X11; Linux x86_64; rv:108.0) Gecko/20100101 Firefox/108.0","","Firefox","108.0","Linux","","1242"," ","","A nurse is taking a syringe","1","Filler","",""
"","","","","","fixation","71323","html-keyboard-response","85","152980","0.0-6.0-2.12","54","1","2022-11-17 12:21:07","fd252370c17a9971d68c1d4354a03c2e","","Mozilla/5.0 (X11; Linux x86_64; rv:108.0) Gecko/20100101 Firefox/108.0","","Firefox","108.0","Linux","","null","null","","<p style=""font-size: 48px;"">+</p>","1","Filler","",""
"","","","","","picture","71323","image-keyboard-response","86","153843","0.0-6.0-3.12","54","1","2022-11-17 12:21:07","fd252370c17a9971d68c1d4354a03c2e","","Mozilla/5.0 (X11; Linux x86_64; rv:108.0) Gecko/20100101 Firefox/108.0","","Firefox","108.0","Linux","","849","n","","headphones.jpg","1","Filler","true",""
"","","","","","fixation","71323","html-keyboard-response","87","154848","0.0-6.0-0.13","54","1","2022-11-17 12:21:07","fd252370c17a9971d68c1d4354a03c2e","","Mozilla/5.0 (X11; Linux x86_64; rv:108.0) Gecko/20100101 Firefox/108.0","","Firefox","108.0","Linux","","null","null","","<p style=""font-size: 48px;"">+</p>","1","Filler","",""
"","","","","","sentence","71323","html-keyboard-response","88","156200","0.0-6.0-1.13","54","1","2022-11-17 12:21:07","fd252370c17a9971d68c1d4354a03c2e","","Mozilla/5.0 (X11; Linux x86_64; rv:108.0) Gecko/20100101 Firefox/108.0","","Firefox","108.0","Linux","","1346"," ","","A cabbage was placed on the table","1","Filler","",""
"","","","","","fixation","71323","html-keyboard-response","89","156707","0.0-6.0-2.13","54","1","2022-11-17 12:21:07","fd252370c17a9971d68c1d4354a03c2e","","Mozilla/5.0 (X11; Linux x86_64; rv:108.0) Gecko/20100101 Firefox/108.0","","Firefox","108.0","Linux","","null","null","","<p style=""font-size: 48px;"">+</p>","1","Filler","",""
"","","","","","picture","71323","image-keyboard-response","90","157554","0.0-6.0-3.13","54","1","2022-11-17 12:21:07","fd252370c17a9971d68c1d4354a03c2e","","Mozilla/5.0 (X11; Linux x86_64; rv:108.0) Gecko/20100101 Firefox/108.0","","Firefox","108.0","Linux","","836","n","","ladder.jpg","1","Filler","true",""
"","","","","","fixation","71323","html-keyboard-response","91","158560","0.0-6.0-0.14","54","1","2022-11-17 12:21:07","fd252370c17a9971d68c1d4354a03c2e","","Mozilla/5.0 (X11; Linux x86_64; rv:108.0) Gecko/20100101 Firefox/108.0","","Firefox","108.0","Linux","","null","null","","<p style=""font-size: 48px;"">+</p>","1","Filler","",""
"","","","","","sentence","71323","html-keyboard-response","92","159391","0.0-6.0-1.14","54","1","2022-11-17 12:21:07","fd252370c17a9971d68c1d4354a03c2e","","Mozilla/5.0 (X11; Linux x86_64; rv:108.0) Gecko/20100101 Firefox/108.0","","Firefox","108.0","Linux","","825"," ","","A boy is wearing a hat","1","Filler","",""
"","","","","","fixation","71323","html-keyboard-response","93","159897","0.0-6.0-2.14","54","1","2022-11-17 12:21:07","fd252370c17a9971d68c1d4354a03c2e","","Mozilla/5.0 (X11; Linux x86_64; rv:108.0) Gecko/20100101 Firefox/108.0","","Firefox","108.0","Linux","","null","null","","<p style=""font-size: 48px;"">+</p>","1","Filler","",""
"","","","","","picture","71323","image-keyboard-response","94","160924","0.0-6.0-3.14","54","1","2022-11-17 12:21:07","fd252370c17a9971d68c1d4354a03c2e","","Mozilla/5.0 (X11; Linux x86_64; rv:108.0) Gecko/20100101 Firefox/108.0","","Firefox","108.0","Linux","","1009","s","","hat.jpg","1","Filler","true",""
"","","","","","fixation","71323","html-keyboard-response","95","161931","0.0-6.0-0.15","54","1","2022-11-17 12:21:07","fd252370c17a9971d68c1d4354a03c2e","","Mozilla/5.0 (X11; Linux x86_64; rv:108.0) Gecko/20100101 Firefox/108.0","","Firefox","108.0","Linux","","null","null","","<p style=""font-size: 48px;"">+</p>","1","Heavy_Matched","",""
"","","","","","sentence","71323","html-keyboard-response","96","163711","0.0-6.0-1.15","54","1","2022-11-17 12:21:07","fd252370c17a9971d68c1d4354a03c2e","","Mozilla/5.0 (X11; Linux x86_64; rv:108.0) Gecko/20100101 Firefox/108.0","","Firefox","108.0","Linux","","1774"," ","","A bowling ball dropped and smashed a cracker","1","Heavy_Matched","",""
"","","","","","fixation","71323","html-keyboard-response","97","164219","0.0-6.0-2.15","54","1","2022-11-17 12:21:07","fd252370c17a9971d68c1d4354a03c2e","","Mozilla/5.0 (X11; Linux x86_64; rv:108.0) Gecko/20100101 Firefox/108.0","","Firefox","108.0","Linux","","null","null","","<p style=""font-size: 48px;"">+</p>","1","Heavy_Matched","",""
"","","","","","picture","71323","image-keyboard-response","98","165015","0.0-6.0-3.15","54","1","2022-11-17 12:21:07","fd252370c17a9971d68c1d4354a03c2e","","Mozilla/5.0 (X11; Linux x86_64; rv:108.0) Gecko/20100101 Firefox/108.0","","Firefox","108.0","Linux","","779","s","","crackerS.jpg","1","Heavy_Matched","true",""
"","","","","","fixation","71323","html-keyboard-response","99","166021","0.0-6.0-0.16","54","1","2022-11-17 12:21:07","fd252370c17a9971d68c1d4354a03c2e","","Mozilla/5.0 (X11; Linux x86_64; rv:108.0) Gecko/20100101 Firefox/108.0","","Firefox","108.0","Linux","","null","null","","<p style=""font-size: 48px;"">+</p>","1","Filler","",""
"","","","","","sentence","71323","html-keyboard-response","100","167491","0.0-6.0-1.16","54","1","2022-11-17 12:21:07","fd252370c17a9971d68c1d4354a03c2e","","Mozilla/5.0 (X11; Linux x86_64; rv:108.0) Gecko/20100101 Firefox/108.0","","Firefox","108.0","Linux","","1462"," ","","A fork was placed on the plate","1","Filler","",""
"","","","","","fixation","71323","html-keyboard-response","101","167998","0.0-6.0-2.16","54","1","2022-11-17 12:21:07","fd252370c17a9971d68c1d4354a03c2e","","Mozilla/5.0 (X11; Linux x86_64; rv:108.0) Gecko/20100101 Firefox/108.0","","Firefox","108.0","Linux","","null","null","","<p style=""font-size: 48px;"">+</p>","1","Filler","",""
"","","","","","picture","71323","image-keyboard-response","102","169014","0.0-6.0-3.16","54","1","2022-11-17 12:21:07","fd252370c17a9971d68c1d4354a03c2e","","Mozilla/5.0 (X11; Linux x86_64; rv:108.0) Gecko/20100101 Firefox/108.0","","Firefox","108.0","Linux","","1003","s","","plate.jpg","1","Filler","true",""
"","","","","","fixation","71323","html-keyboard-response","103","170019","0.0-6.0-0.17","54","1","2022-11-17 12:21:07","fd252370c17a9971d68c1d4354a03c2e","","Mozilla/5.0 (X11; Linux x86_64; rv:108.0) Gecko/20100101 Firefox/108.0","","Firefox","108.0","Linux","","null","null","","<p style=""font-size: 48px;"">+</p>","1","Filler","",""
"","","","","","sentence","71323","html-keyboard-response","104","171080","0.0-6.0-1.17","54","1","2022-11-17 12:21:07","fd252370c17a9971d68c1d4354a03c2e","","Mozilla/5.0 (X11; Linux x86_64; rv:108.0) Gecko/20100101 Firefox/108.0","","Firefox","108.0","Linux","","1054"," ","","A man is playing with a cat","1","Filler","",""
"","","","","","fixation","71323","html-keyboard-response","105","171600","0.0-6.0-2.17","54","1","2022-11-17 12:21:07","fd252370c17a9971d68c1d4354a03c2e","","Mozilla/5.0 (X11; Linux x86_64; rv:108.0) Gecko/20100101 Firefox/108.0","","Firefox","108.0","Linux","","null","null","","<p style=""font-size: 48px;"">+</p>","1","Filler","",""
"","","","","","picture","71323","image-keyboard-response","106","173071","0.0-6.0-3.17","54","1","2022-11-17 12:21:07","fd252370c17a9971d68c1d4354a03c2e","","Mozilla/5.0 (X11; Linux x86_64; rv:108.0) Gecko/20100101 Firefox/108.0","","Firefox","108.0","Linux","","1452","n","","ceramicplate.jpg","1","Filler","true",""
"","","","","","fixation","71323","html-keyboard-response","107","174083","0.0-6.0-0.18","54","1","2022-11-17 12:21:07","fd252370c17a9971d68c1d4354a03c2e","","Mozilla/5.0 (X11; Linux x86_64; rv:108.0) Gecko/20100101 Firefox/108.0","","Firefox","108.0","Linux","","null","null","","<p style=""font-size: 48px;"">+</p>","1","Filler","",""
"","","","","","sentence","71323","html-keyboard-response","108","175622","0.0-6.0-1.18","54","1","2022-11-17 12:21:07","fd252370c17a9971d68c1d4354a03c2e","","Mozilla/5.0 (X11; Linux x86_64; rv:108.0) Gecko/20100101 Firefox/108.0","","Firefox","108.0","Linux","","1528"," ","","An elephant is eating a watermelon","1","Filler","",""
"","","","","","fixation","71323","html-keyboard-response","109","176142","0.0-6.0-2.18","54","1","2022-11-17 12:21:07","fd252370c17a9971d68c1d4354a03c2e","","Mozilla/5.0 (X11; Linux x86_64; rv:108.0) Gecko/20100101 Firefox/108.0","","Firefox","108.0","Linux","","null","null","","<p style=""font-size: 48px;"">+</p>","1","Filler","",""
"","","","","","picture","71323","image-keyboard-response","110","176883","0.0-6.0-3.18","54","1","2022-11-17 12:21:07","fd252370c17a9971d68c1d4354a03c2e","","Mozilla/5.0 (X11; Linux x86_64; rv:108.0) Gecko/20100101 Firefox/108.0","","Firefox","108.0","Linux","","723","s","","watermelon.jpg","1","Filler","true",""
"","","","","","fixation","71323","html-keyboard-response","111","177894","0.0-6.0-0.19","54","1","2022-11-17 12:21:07","fd252370c17a9971d68c1d4354a03c2e","","Mozilla/5.0 (X11; Linux x86_64; rv:108.0) Gecko/20100101 Firefox/108.0","","Firefox","108.0","Linux","","null","null","","<p style=""font-size: 48px;"">+</p>","1","Filler","",""
"","","","","","sentence","71323","html-keyboard-response","112","179222","0.0-6.0-1.19","54","1","2022-11-17 12:21:07","fd252370c17a9971d68c1d4354a03c2e","","Mozilla/5.0 (X11; Linux x86_64; rv:108.0) Gecko/20100101 Firefox/108.0","","Firefox","108.0","Linux","","1319"," ","","A doctor is taking a stethoscope","1","Filler","",""
"","","","","","fixation","71323","html-keyboard-response","113","179734","0.0-6.0-2.19","54","1","2022-11-17 12:21:07","fd252370c17a9971d68c1d4354a03c2e","","Mozilla/5.0 (X11; Linux x86_64; rv:108.0) Gecko/20100101 Firefox/108.0","","Firefox","108.0","Linux","","null","null","","<p style=""font-size: 48px;"">+</p>","1","Filler","",""
"","","","","","picture","71323","image-keyboard-response","114","181591","0.0-6.0-3.19","54","1","2022-11-17 12:21:07","fd252370c17a9971d68c1d4354a03c2e","","Mozilla/5.0 (X11; Linux x86_64; rv:108.0) Gecko/20100101 Firefox/108.0","","Firefox","108.0","Linux","","1836","n","","matchesbox.jpg","1","Filler","true",""
"","","","","","fixation","71323","html-keyboard-response","115","182604","0.0-6.0-0.20","54","1","2022-11-17 12:21:07","fd252370c17a9971d68c1d4354a03c2e","","Mozilla/5.0 (X11; Linux x86_64; rv:108.0) Gecko/20100101 Firefox/108.0","","Firefox","108.0","Linux","","null","null","","<p style=""font-size: 48px;"">+</p>","1","Filler","",""
"","","","","","sentence","71323","html-keyboard-response","116","183869","0.0-6.0-1.20","54","1","2022-11-17 12:21:07","fd252370c17a9971d68c1d4354a03c2e","","Mozilla/5.0 (X11; Linux x86_64; rv:108.0) Gecko/20100101 Firefox/108.0","","Firefox","108.0","Linux","","1256"," ","","A parrot is eating an apple","1","Filler","",""
"","","","","","fixation","71323","html-keyboard-response","117","184377","0.0-6.0-2.20","54","1","2022-11-17 12:21:07","fd252370c17a9971d68c1d4354a03c2e","","Mozilla/5.0 (X11; Linux x86_64; rv:108.0) Gecko/20100101 Firefox/108.0","","Firefox","108.0","Linux","","null","null","","<p style=""font-size: 48px;"">+</p>","1","Filler","",""
"","","","","","picture","71323","image-keyboard-response","118","185497","0.0-6.0-3.20","54","1","2022-11-17 12:21:07","fd252370c17a9971d68c1d4354a03c2e","","Mozilla/5.0 (X11; Linux x86_64; rv:108.0) Gecko/20100101 Firefox/108.0","","Firefox","108.0","Linux","","1103","n","","shirt.jpg","1","Filler","true",""
"","","","","","fixation","71323","html-keyboard-response","119","186505","0.0-6.0-0.21","54","1","2022-11-17 12:21:07","fd252370c17a9971d68c1d4354a03c2e","","Mozilla/5.0 (X11; Linux x86_64; rv:108.0) Gecko/20100101 Firefox/108.0","","Firefox","108.0","Linux","","null","null","","<p style=""font-size: 48px;"">+</p>","1","Filler","",""
"","","","","","sentence","71323","html-keyboard-response","120","188042","0.0-6.0-1.21","54","1","2022-11-17 12:21:07","fd252370c17a9971d68c1d4354a03c2e","","Mozilla/5.0 (X11; Linux x86_64; rv:108.0) Gecko/20100101 Firefox/108.0","","Firefox","108.0","Linux","","1529"," ","","A photographer is taking a photo of a lion","1","Filler","",""
"","","","","","fixation","71323","html-keyboard-response","121","188550","0.0-6.0-2.21","54","1","2022-11-17 12:21:07","fd252370c17a9971d68c1d4354a03c2e","","Mozilla/5.0 (X11; Linux x86_64; rv:108.0) Gecko/20100101 Firefox/108.0","","Firefox","108.0","Linux","","null","null","","<p style=""font-size: 48px;"">+</p>","1","Filler","",""
"","","","","","picture","71323","image-keyboard-response","122","189312","0.0-6.0-3.21","54","1","2022-11-17 12:21:07","fd252370c17a9971d68c1d4354a03c2e","","Mozilla/5.0 (X11; Linux x86_64; rv:108.0) Gecko/20100101 Firefox/108.0","","Firefox","108.0","Linux","","744","s","","lion.jpg","1","Filler","true",""
"","","","","","fixation","71323","html-keyboard-response","123","190319","0.0-6.0-0.22","54","1","2022-11-17 12:21:07","fd252370c17a9971d68c1d4354a03c2e","","Mozilla/5.0 (X11; Linux x86_64; rv:108.0) Gecko/20100101 Firefox/108.0","","Firefox","108.0","Linux","","null","null","","<p style=""font-size: 48px;"">+</p>","1","Filler","",""
"","","","","","sentence","71323","html-keyboard-response","124","191506","0.0-6.0-1.22","54","1","2022-11-17 12:21:07","fd252370c17a9971d68c1d4354a03c2e","","Mozilla/5.0 (X11; Linux x86_64; rv:108.0) Gecko/20100101 Firefox/108.0","","Firefox","108.0","Linux","","1180"," ","","A pencil was placed on the shoe","1","Filler","",""
"","","","","","fixation","71323","html-keyboard-response","125","192013","0.0-6.0-2.22","54","1","2022-11-17 12:21:07","fd252370c17a9971d68c1d4354a03c2e","","Mozilla/5.0 (X11; Linux x86_64; rv:108.0) Gecko/20100101 Firefox/108.0","","Firefox","108.0","Linux","","null","null","","<p style=""font-size: 48px;"">+</p>","1","Filler","",""
"","","","","","picture","71323","image-keyboard-response","126","193175","0.0-6.0-3.22","54","1","2022-11-17 12:21:07","fd252370c17a9971d68c1d4354a03c2e","","Mozilla/5.0 (X11; Linux x86_64; rv:108.0) Gecko/20100101 Firefox/108.0","","Firefox","108.0","Linux","","1146","n","","perfume.jpg","1","Filler","true",""
"","","","","","fixation","71323","html-keyboard-response","127","194184","0.0-6.0-0.23","54","1","2022-11-17 12:21:07","fd252370c17a9971d68c1d4354a03c2e","","Mozilla/5.0 (X11; Linux x86_64; rv:108.0) Gecko/20100101 Firefox/108.0","","Firefox","108.0","Linux","","null","null","","<p style=""font-size: 48px;"">+</p>","1","Light_Matched","",""
"","","","","","sentence","71323","html-keyboard-response","128","196372","0.0-6.0-1.23","54","1","2022-11-17 12:21:07","fd252370c17a9971d68c1d4354a03c2e","","Mozilla/5.0 (X11; Linux x86_64; rv:108.0) Gecko/20100101 Firefox/108.0","","Firefox","108.0","Linux","","2181"," ","","A balloon dropped and touched a chocolate muffin","1","Light_Matched","",""
"","","","","","fixation","71323","html-keyboard-response","129","196879","0.0-6.0-2.23","54","1","2022-11-17 12:21:07","fd252370c17a9971d68c1d4354a03c2e","","Mozilla/5.0 (X11; Linux x86_64; rv:108.0) Gecko/20100101 Firefox/108.0","","Firefox","108.0","Linux","","null","null","","<p style=""font-size: 48px;"">+</p>","1","Light_Matched","",""
"","","","","","picture","71323","image-keyboard-response","130","198001","0.0-6.0-3.23","54","1","2022-11-17 12:21:07","fd252370c17a9971d68c1d4354a03c2e","","Mozilla/5.0 (X11; Linux x86_64; rv:108.0) Gecko/20100101 Firefox/108.0","","Firefox","108.0","Linux","","1106","s","","muffinS.jpg","1","Light_Matched","true",""
"","","","","","fixation","71323","html-keyboard-response","131","199009","0.0-6.0-0.24","54","1","2022-11-17 12:21:07","fd252370c17a9971d68c1d4354a03c2e","","Mozilla/5.0 (X11; Linux x86_64; rv:108.0) Gecko/20100101 Firefox/108.0","","Firefox","108.0","Linux","","null","null","","<p style=""font-size: 48px;"">+</p>","1","Heavy_Contradictory","",""
"","","","","","sentence","71323","html-keyboard-response","132","200913","0.0-6.0-1.24","54","1","2022-11-17 12:21:07","fd252370c17a9971d68c1d4354a03c2e","","Mozilla/5.0 (X11; Linux x86_64; rv:108.0) Gecko/20100101 Firefox/108.0","","Firefox","108.0","Linux","","1895"," ","","A bowling ball dropped and touched a banana","1","Heavy_Contradictory","",""
"","","","","","fixation","71323","html-keyboard-response","133","201421","0.0-6.0-2.24","54","1","2022-11-17 12:21:07","fd252370c17a9971d68c1d4354a03c2e","","Mozilla/5.0 (X11; Linux x86_64; rv:108.0) Gecko/20100101 Firefox/108.0","","Firefox","108.0","Linux","","null","null","","<p style=""font-size: 48px;"">+</p>","1","Heavy_Contradictory","",""
"","","","","","picture","71323","image-keyboard-response","134","202552","0.0-6.0-3.24","54","1","2022-11-17 12:21:07","fd252370c17a9971d68c1d4354a03c2e","","Mozilla/5.0 (X11; Linux x86_64; rv:108.0) Gecko/20100101 Firefox/108.0","","Firefox","108.0","Linux","","1113","s","","bananaS.jpg","1","Heavy_Contradictory","true",""
"","","","","","fixation","71323","html-keyboard-response","135","203560","0.0-6.0-0.25","54","1","2022-11-17 12:21:07","fd252370c17a9971d68c1d4354a03c2e","","Mozilla/5.0 (X11; Linux x86_64; rv:108.0) Gecko/20100101 Firefox/108.0","","Firefox","108.0","Linux","","null","null","","<p style=""font-size: 48px;"">+</p>","1","Filler","",""
"","","","","","sentence","71323","html-keyboard-response","136","204628","0.0-6.0-1.25","54","1","2022-11-17 12:21:07","fd252370c17a9971d68c1d4354a03c2e","","Mozilla/5.0 (X11; Linux x86_64; rv:108.0) Gecko/20100101 Firefox/108.0","","Firefox","108.0","Linux","","1060"," ","","An actress is taking a microphone","1","Filler","",""
"","","","","","fixation","71323","html-keyboard-response","137","205136","0.0-6.0-2.25","54","1","2022-11-17 12:21:07","fd252370c17a9971d68c1d4354a03c2e","","Mozilla/5.0 (X11; Linux x86_64; rv:108.0) Gecko/20100101 Firefox/108.0","","Firefox","108.0","Linux","","null","null","","<p style=""font-size: 48px;"">+</p>","1","Filler","",""
"","","","","","picture","71323","image-keyboard-response","138","206094","0.0-6.0-3.25","54","1","2022-11-17 12:21:07","fd252370c17a9971d68c1d4354a03c2e","","Mozilla/5.0 (X11; Linux x86_64; rv:108.0) Gecko/20100101 Firefox/108.0","","Firefox","108.0","Linux","","941","n","","pants.jpg","1","Filler","true",""
"","","","","","fixation","71323","html-keyboard-response","139","207103","0.0-6.0-0.26","54","1","2022-11-17 12:21:07","fd252370c17a9971d68c1d4354a03c2e","","Mozilla/5.0 (X11; Linux x86_64; rv:108.0) Gecko/20100101 Firefox/108.0","","Firefox","108.0","Linux","","null","null","","<p style=""font-size: 48px;"">+</p>","1","Filler","",""
"","","","","","sentence","71323","html-keyboard-response","140","208310","0.0-6.0-1.26","54","1","2022-11-17 12:21:07","fd252370c17a9971d68c1d4354a03c2e","","Mozilla/5.0 (X11; Linux x86_64; rv:108.0) Gecko/20100101 Firefox/108.0","","Firefox","108.0","Linux","","1198"," ","","A postman is driving a car","1","Filler","",""
"","","","","","fixation","71323","html-keyboard-response","141","208818","0.0-6.0-2.26","54","1","2022-11-17 12:21:07","fd252370c17a9971d68c1d4354a03c2e","","Mozilla/5.0 (X11; Linux x86_64; rv:108.0) Gecko/20100101 Firefox/108.0","","Firefox","108.0","Linux","","null","null","","<p style=""font-size: 48px;"">+</p>","1","Filler","",""
"","","","","","picture","71323","image-keyboard-response","142","209945","0.0-6.0-3.26","54","1","2022-11-17 12:21:07","fd252370c17a9971d68c1d4354a03c2e","","Mozilla/5.0 (X11; Linux x86_64; rv:108.0) Gecko/20100101 Firefox/108.0","","Firefox","108.0","Linux","","1110","s","","car.jpg","1","Filler","true",""
"","","","","","fixation","71323","html-keyboard-response","143","210953","0.0-6.0-0.27","54","1","2022-11-17 12:21:07","fd252370c17a9971d68c1d4354a03c2e","","Mozilla/5.0 (X11; Linux x86_64; rv:108.0) Gecko/20100101 Firefox/108.0","","Firefox","108.0","Linux","","null","null","","<p style=""font-size: 48px;"">+</p>","1","Filler","",""
"","","","","","sentence","71323","html-keyboard-response","144","212127","0.0-6.0-1.27","54","1","2022-11-17 12:21:07","fd252370c17a9971d68c1d4354a03c2e","","Mozilla/5.0 (X11; Linux x86_64; rv:108.0) Gecko/20100101 Firefox/108.0","","Firefox","108.0","Linux","","1166"," ","","A president is writing in the notebook","1","Filler","",""
"","","","","","fixation","71323","html-keyboard-response","145","212637","0.0-6.0-2.27","54","1","2022-11-17 12:21:07","fd252370c17a9971d68c1d4354a03c2e","","Mozilla/5.0 (X11; Linux x86_64; rv:108.0) Gecko/20100101 Firefox/108.0","","Firefox","108.0","Linux","","null","null","","<p style=""font-size: 48px;"">+</p>","1","Filler","",""
"","","","","","picture","71323","image-keyboard-response","146","213710","0.0-6.0-3.27","54","1","2022-11-17 12:21:07","fd252370c17a9971d68c1d4354a03c2e","","Mozilla/5.0 (X11; Linux x86_64; rv:108.0) Gecko/20100101 Firefox/108.0","","Firefox","108.0","Linux","","1056","n","","can.jpg","1","Filler","true",""
"","","","","","fixation","71323","html-keyboard-response","147","214718","0.0-6.0-0.28","54","1","2022-11-17 12:21:07","fd252370c17a9971d68c1d4354a03c2e","","Mozilla/5.0 (X11; Linux x86_64; rv:108.0) Gecko/20100101 Firefox/108.0","","Firefox","108.0","Linux","","null","null","","<p style=""font-size: 48px;"">+</p>","1","Filler","",""
"","","","","","sentence","71323","html-keyboard-response","148","215672","0.0-6.0-1.28","54","1","2022-11-17 12:21:07","fd252370c17a9971d68c1d4354a03c2e","","Mozilla/5.0 (X11; Linux x86_64; rv:108.0) Gecko/20100101 Firefox/108.0","","Firefox","108.0","Linux","","946"," ","","A thief is stealing a wallet","1","Filler","",""
"","","","","","fixation","71323","html-keyboard-response","149","216181","0.0-6.0-2.28","54","1","2022-11-17 12:21:07","fd252370c17a9971d68c1d4354a03c2e","","Mozilla/5.0 (X11; Linux x86_64; rv:108.0) Gecko/20100101 Firefox/108.0","","Firefox","108.0","Linux","","null","null","","<p style=""font-size: 48px;"">+</p>","1","Filler","",""
"","","","","","picture","71323","image-keyboard-response","150","217079","0.0-6.0-3.28","54","1","2022-11-17 12:21:07","fd252370c17a9971d68c1d4354a03c2e","","Mozilla/5.0 (X11; Linux x86_64; rv:108.0) Gecko/20100101 Firefox/108.0","","Firefox","108.0","Linux","","883","n","","teddybear.jpg","1","Filler","true",""
"","","","","","fixation","71323","html-keyboard-response","151","218088","0.0-6.0-0.29","54","1","2022-11-17 12:21:07","fd252370c17a9971d68c1d4354a03c2e","","Mozilla/5.0 (X11; Linux x86_64; rv:108.0) Gecko/20100101 Firefox/108.0","","Firefox","108.0","Linux","","null","null","","<p style=""font-size: 48px;"">+</p>","1","Filler","",""
"","","","","","sentence","71323","html-keyboard-response","152","219272","0.0-6.0-1.29","54","1","2022-11-17 12:21:07","fd252370c17a9971d68c1d4354a03c2e","","Mozilla/5.0 (X11; Linux x86_64; rv:108.0) Gecko/20100101 Firefox/108.0","","Firefox","108.0","Linux","","1174"," ","","A toothbrush was placed on the sponge","1","Filler","",""
"","","","","","fixation","71323","html-keyboard-response","153","219780","0.0-6.0-2.29","54","1","2022-11-17 12:21:07","fd252370c17a9971d68c1d4354a03c2e","","Mozilla/5.0 (X11; Linux x86_64; rv:108.0) Gecko/20100101 Firefox/108.0","","Firefox","108.0","Linux","","null","null","","<p style=""font-size: 48px;"">+</p>","1","Filler","",""
"","","","","","picture","71323","image-keyboard-response","154","220806","0.0-6.0-3.29","54","1","2022-11-17 12:21:07","fd252370c17a9971d68c1d4354a03c2e","","Mozilla/5.0 (X11; Linux x86_64; rv:108.0) Gecko/20100101 Firefox/108.0","","Firefox","108.0","Linux","","1009","s","","sponge.jpg","1","Filler","true",""
"","","","","","fixation","71323","html-keyboard-response","155","221815","0.0-6.0-0.30","54","1","2022-11-17 12:21:07","fd252370c17a9971d68c1d4354a03c2e","","Mozilla/5.0 (X11; Linux x86_64; rv:108.0) Gecko/20100101 Firefox/108.0","","Firefox","108.0","Linux","","null","null","","<p style=""font-size: 48px;"">+</p>","1","Heavy_Matched","",""
"","","","","","sentence","71323","html-keyboard-response","156","223374","0.0-6.0-1.30","54","1","2022-11-17 12:21:07","fd252370c17a9971d68c1d4354a03c2e","","Mozilla/5.0 (X11; Linux x86_64; rv:108.0) Gecko/20100101 Firefox/108.0","","Firefox","108.0","Linux","","1550"," ","","A bowling ball dropped and smashed an egg","1","Heavy_Matched","",""
"","","","","","fixation","71323","html-keyboard-response","157","223882","0.0-6.0-2.30","54","1","2022-11-17 12:21:07","fd252370c17a9971d68c1d4354a03c2e","","Mozilla/5.0 (X11; Linux x86_64; rv:108.0) Gecko/20100101 Firefox/108.0","","Firefox","108.0","Linux","","null","null","","<p style=""font-size: 48px;"">+</p>","1","Heavy_Matched","",""
"","","","","","picture","71323","image-keyboard-response","158","224894","0.0-6.0-3.30","54","1","2022-11-17 12:21:07","fd252370c17a9971d68c1d4354a03c2e","","Mozilla/5.0 (X11; Linux x86_64; rv:108.0) Gecko/20100101 Firefox/108.0","","Firefox","108.0","Linux","","993","s","","eggS.jpg","1","Heavy_Matched","true",""
"","","","","","fixation","71323","html-keyboard-response","159","225904","0.0-6.0-0.31","54","1","2022-11-17 12:21:07","fd252370c17a9971d68c1d4354a03c2e","","Mozilla/5.0 (X11; Linux x86_64; rv:108.0) Gecko/20100101 Firefox/108.0","","Firefox","108.0","Linux","","null","null","","<p style=""font-size: 48px;"">+</p>","1","Filler","",""
"","","","","","sentence","71323","html-keyboard-response","160","227250","0.0-6.0-1.31","54","1","2022-11-17 12:21:07","fd252370c17a9971d68c1d4354a03c2e","","Mozilla/5.0 (X11; Linux x86_64; rv:108.0) Gecko/20100101 Firefox/108.0","","Firefox","108.0","Linux","","1336"," ","","A police officer is talking on the phone","1","Filler","",""
"","","","","","fixation","71323","html-keyboard-response","161","227759","0.0-6.0-2.31","54","1","2022-11-17 12:21:07","fd252370c17a9971d68c1d4354a03c2e","","Mozilla/5.0 (X11; Linux x86_64; rv:108.0) Gecko/20100101 Firefox/108.0","","Firefox","108.0","Linux","","null","null","","<p style=""font-size: 48px;"">+</p>","1","Filler","",""
"","","","","","picture","71323","image-keyboard-response","162","228719","0.0-6.0-3.31","54","1","2022-11-17 12:21:07","fd252370c17a9971d68c1d4354a03c2e","","Mozilla/5.0 (X11; Linux x86_64; rv:108.0) Gecko/20100101 Firefox/108.0","","Firefox","108.0","Linux","","945","n","","tissuebox.jpg","1","Filler","true",""
"","","","","","fixation","71323","html-keyboard-response","163","229727","0.0-6.0-0.32","54","1","2022-11-17 12:21:07","fd252370c17a9971d68c1d4354a03c2e","","Mozilla/5.0 (X11; Linux x86_64; rv:108.0) Gecko/20100101 Firefox/108.0","","Firefox","108.0","Linux","","null","null","","<p style=""font-size: 48px;"">+</p>","1","Light_Matched","",""
"","","","","","sentence","71323","html-keyboard-response","164","231120","0.0-6.0-1.32","54","1","2022-11-17 12:21:07","fd252370c17a9971d68c1d4354a03c2e","","Mozilla/5.0 (X11; Linux x86_64; rv:108.0) Gecko/20100101 Firefox/108.0","","Firefox","108.0","Linux","","1384"," ","","A balloon dropped and touched a mirror","1","Light_Matched","",""
"","","","","","fixation","71323","html-keyboard-response","165","231629","0.0-6.0-2.32","54","1","2022-11-17 12:21:07","fd252370c17a9971d68c1d4354a03c2e","","Mozilla/5.0 (X11; Linux x86_64; rv:108.0) Gecko/20100101 Firefox/108.0","","Firefox","108.0","Linux","","null","null","","<p style=""font-size: 48px;"">+</p>","1","Light_Matched","",""
"","","","","","picture","71323","image-keyboard-response","166","232454","0.0-6.0-3.32","54","1","2022-11-17 12:21:07","fd252370c17a9971d68c1d4354a03c2e","","Mozilla/5.0 (X11; Linux x86_64; rv:108.0) Gecko/20100101 Firefox/108.0","","Firefox","108.0","Linux","","806","s","","mirrorS.jpg","1","Light_Matched","true",""
"","","","","","fixation","71323","html-keyboard-response","167","233463","0.0-6.0-0.33","54","1","2022-11-17 12:21:07","fd252370c17a9971d68c1d4354a03c2e","","Mozilla/5.0 (X11; Linux x86_64; rv:108.0) Gecko/20100101 Firefox/108.0","","Firefox","108.0","Linux","","null","null","","<p style=""font-size: 48px;"">+</p>","1","Filler","",""
"","","","","","sentence","71323","html-keyboard-response","168","234837","0.0-6.0-1.33","54","1","2022-11-17 12:21:07","fd252370c17a9971d68c1d4354a03c2e","","Mozilla/5.0 (X11; Linux x86_64; rv:108.0) Gecko/20100101 Firefox/108.0","","Firefox","108.0","Linux","","1366"," ","","A thermometer was placed on the box","1","Filler","",""
"","","","","","fixation","71323","html-keyboard-response","169","235347","0.0-6.0-2.33","54","1","2022-11-17 12:21:07","fd252370c17a9971d68c1d4354a03c2e","","Mozilla/5.0 (X11; Linux x86_64; rv:108.0) Gecko/20100101 Firefox/108.0","","Firefox","108.0","Linux","","null","null","","<p style=""font-size: 48px;"">+</p>","1","Filler","",""
"","","","","","picture","71323","image-keyboard-response","170","236373","0.0-6.0-3.33","54","1","2022-11-17 12:21:07","fd252370c17a9971d68c1d4354a03c2e","","Mozilla/5.0 (X11; Linux x86_64; rv:108.0) Gecko/20100101 Firefox/108.0","","Firefox","108.0","Linux","","994","n","","button.jpg","1","Filler","true",""
"","","","","","fixation","71323","html-keyboard-response","171","237389","0.0-6.0-0.34","54","1","2022-11-17 12:21:07","fd252370c17a9971d68c1d4354a03c2e","","Mozilla/5.0 (X11; Linux x86_64; rv:108.0) Gecko/20100101 Firefox/108.0","","Firefox","108.0","Linux","","null","null","","<p style=""font-size: 48px;"">+</p>","1","Light_Contradictory","",""
"","","","","","sentence","71323","html-keyboard-response","172","238656","0.0-6.0-1.34","54","1","2022-11-17 12:21:07","fd252370c17a9971d68c1d4354a03c2e","","Mozilla/5.0 (X11; Linux x86_64; rv:108.0) Gecko/20100101 Firefox/108.0","","Firefox","108.0","Linux","","1252"," ","","A balloon dropped and smashed a ceramic plate","1","Light_Contradictory","",""
"","","","","","fixation","71323","html-keyboard-response","173","239172","0.0-6.0-2.34","54","1","2022-11-17 12:21:07","fd252370c17a9971d68c1d4354a03c2e","","Mozilla/5.0 (X11; Linux x86_64; rv:108.0) Gecko/20100101 Firefox/108.0","","Firefox","108.0","Linux","","null","null","","<p style=""font-size: 48px;"">+</p>","1","Light_Contradictory","",""
"","","","","","picture","71323","image-keyboard-response","174","240077","0.0-6.0-3.34","54","1","2022-11-17 12:21:07","fd252370c17a9971d68c1d4354a03c2e","","Mozilla/5.0 (X11; Linux x86_64; rv:108.0) Gecko/20100101 Firefox/108.0","","Firefox","108.0","Linux","","868","s","","plateS.jpg","1","Light_Contradictory","true",""
"","","","","","fixation","71323","html-keyboard-response","175","241093","0.0-6.0-0.35","54","1","2022-11-17 12:21:07","fd252370c17a9971d68c1d4354a03c2e","","Mozilla/5.0 (X11; Linux x86_64; rv:108.0) Gecko/20100101 Firefox/108.0","","Firefox","108.0","Linux","","null","null","","<p style=""font-size: 48px;"">+</p>","1","Filler","",""
"","","","","","sentence","71323","html-keyboard-response","176","242075","0.0-6.0-1.35","54","1","2022-11-17 12:21:07","fd252370c17a9971d68c1d4354a03c2e","","Mozilla/5.0 (X11; Linux x86_64; rv:108.0) Gecko/20100101 Firefox/108.0","","Firefox","108.0","Linux","","969"," ","","A musician is playing a guitar","1","Filler","",""
"","","","","","fixation","71323","html-keyboard-response","177","242587","0.0-6.0-2.35","54","1","2022-11-17 12:21:07","fd252370c17a9971d68c1d4354a03c2e","","Mozilla/5.0 (X11; Linux x86_64; rv:108.0) Gecko/20100101 Firefox/108.0","","Firefox","108.0","Linux","","null","null","","<p style=""font-size: 48px;"">+</p>","1","Filler","",""
"","","","","","picture","71323","image-keyboard-response","178","243400","0.0-6.0-3.35","54","1","2022-11-17 12:21:07","fd252370c17a9971d68c1d4354a03c2e","","Mozilla/5.0 (X11; Linux x86_64; rv:108.0) Gecko/20100101 Firefox/108.0","","Firefox","108.0","Linux","","787","s","","guitar.jpg","1","Filler","true",""
"","","","","","fixation","71323","html-keyboard-response","179","244416","0.0-6.0-0.36","54","1","2022-11-17 12:21:07","fd252370c17a9971d68c1d4354a03c2e","","Mozilla/5.0 (X11; Linux x86_64; rv:108.0) Gecko/20100101 Firefox/108.0","","Firefox","108.0","Linux","","null","null","","<p style=""font-size: 48px;"">+</p>","1","Heavy_Contradictory","",""
"","","","","","sentence","71323","html-keyboard-response","180","246173","0.0-6.0-1.36","54","1","2022-11-17 12:21:07","fd252370c17a9971d68c1d4354a03c2e","","Mozilla/5.0 (X11; Linux x86_64; rv:108.0) Gecko/20100101 Firefox/108.0","","Firefox","108.0","Linux","","1746"," ","","A bowling ball dropped and touched glasses","1","Heavy_Contradictory","",""
"","","","","","fixation","71323","html-keyboard-response","181","246683","0.0-6.0-2.36","54","1","2022-11-17 12:21:07","fd252370c17a9971d68c1d4354a03c2e","","Mozilla/5.0 (X11; Linux x86_64; rv:108.0) Gecko/20100101 Firefox/108.0","","Firefox","108.0","Linux","","null","null","","<p style=""font-size: 48px;"">+</p>","1","Heavy_Contradictory","",""
"","","","","","picture","71323","image-keyboard-response","182","247462","0.0-6.0-3.36","54","1","2022-11-17 12:21:07","fd252370c17a9971d68c1d4354a03c2e","","Mozilla/5.0 (X11; Linux x86_64; rv:108.0) Gecko/20100101 Firefox/108.0","","Firefox","108.0","Linux","","760","s","","glassesS.jpg","1","Heavy_Contradictory","true",""
"","","","","","fixation","71323","html-keyboard-response","183","248472","0.0-6.0-0.37","54","1","2022-11-17 12:21:07","fd252370c17a9971d68c1d4354a03c2e","","Mozilla/5.0 (X11; Linux x86_64; rv:108.0) Gecko/20100101 Firefox/108.0","","Firefox","108.0","Linux","","null","null","","<p style=""font-size: 48px;"">+</p>","1","Filler","",""
"","","","","","sentence","71323","html-keyboard-response","184","249547","0.0-6.0-1.37","54","1","2022-11-17 12:21:07","fd252370c17a9971d68c1d4354a03c2e","","Mozilla/5.0 (X11; Linux x86_64; rv:108.0) Gecko/20100101 Firefox/108.0","","Firefox","108.0","Linux","","1064"," ","","A puppy is playing with a ball","1","Filler","",""
"","","","","","fixation","71323","html-keyboard-response","185","250059","0.0-6.0-2.37","54","1","2022-11-17 12:21:07","fd252370c17a9971d68c1d4354a03c2e","","Mozilla/5.0 (X11; Linux x86_64; rv:108.0) Gecko/20100101 Firefox/108.0","","Firefox","108.0","Linux","","null","null","","<p style=""font-size: 48px;"">+</p>","1","Filler","",""
"","","","","","picture","71323","image-keyboard-response","186","251069","0.0-6.0-3.37","54","1","2022-11-17 12:21:07","fd252370c17a9971d68c1d4354a03c2e","","Mozilla/5.0 (X11; Linux x86_64; rv:108.0) Gecko/20100101 Firefox/108.0","","Firefox","108.0","Linux","","995","s","","tennisball.jpg","1","Filler","true",""
"","","","","","fixation","71323","html-keyboard-response","187","252079","0.0-6.0-0.38","54","1","2022-11-17 12:21:07","fd252370c17a9971d68c1d4354a03c2e","","Mozilla/5.0 (X11; Linux x86_64; rv:108.0) Gecko/20100101 Firefox/108.0","","Firefox","108.0","Linux","","null","null","","<p style=""font-size: 48px;"">+</p>","1","Heavy_Matched","",""
"","","","","","sentence","71323","html-keyboard-response","188","253875","0.0-6.0-1.38","54","1","2022-11-17 12:21:07","fd252370c17a9971d68c1d4354a03c2e","","Mozilla/5.0 (X11; Linux x86_64; rv:108.0) Gecko/20100101 Firefox/108.0","","Firefox","108.0","Linux","","1786"," ","","A bowling ball dropped and smashed a TV","1","Heavy_Matched","",""
"","","","","","fixation","71323","html-keyboard-response","189","254385","0.0-6.0-2.38","54","1","2022-11-17 12:21:07","fd252370c17a9971d68c1d4354a03c2e","","Mozilla/5.0 (X11; Linux x86_64; rv:108.0) Gecko/20100101 Firefox/108.0","","Firefox","108.0","Linux","","null","null","","<p style=""font-size: 48px;"">+</p>","1","Heavy_Matched","",""
"","","","","","picture","71323","image-keyboard-response","190","254906","0.0-6.0-3.38","54","1","2022-11-17 12:21:07","fd252370c17a9971d68c1d4354a03c2e","","Mozilla/5.0 (X11; Linux x86_64; rv:108.0) Gecko/20100101 Firefox/108.0","","Firefox","108.0","Linux","","505","s","","tvS.jpg","1","Heavy_Matched","true",""
"","","","","","fixation","71323","html-keyboard-response","191","255916","0.0-6.0-0.39","54","1","2022-11-17 12:21:07","fd252370c17a9971d68c1d4354a03c2e","","Mozilla/5.0 (X11; Linux x86_64; rv:108.0) Gecko/20100101 Firefox/108.0","","Firefox","108.0","Linux","","null","null","","<p style=""font-size: 48px;"">+</p>","1","Filler","",""
"","","","","","sentence","71323","html-keyboard-response","192","256814","0.0-6.0-1.39","54","1","2022-11-17 12:21:07","fd252370c17a9971d68c1d4354a03c2e","","Mozilla/5.0 (X11; Linux x86_64; rv:108.0) Gecko/20100101 Firefox/108.0","","Firefox","108.0","Linux","","887"," ","","A giraffe is playing with a zebra","1","Filler","",""
"","","","","","fixation","71323","html-keyboard-response","193","257325","0.0-6.0-2.39","54","1","2022-11-17 12:21:07","fd252370c17a9971d68c1d4354a03c2e","","Mozilla/5.0 (X11; Linux x86_64; rv:108.0) Gecko/20100101 Firefox/108.0","","Firefox","108.0","Linux","","null","null","","<p style=""font-size: 48px;"">+</p>","1","Filler","",""
"","","","","","picture","71323","image-keyboard-response","194","258283","0.0-6.0-3.39","54","1","2022-11-17 12:21:07","fd252370c17a9971d68c1d4354a03c2e","","Mozilla/5.0 (X11; Linux x86_64; rv:108.0) Gecko/20100101 Firefox/108.0","","Firefox","108.0","Linux","","940","n","","wallet.jpg","1","Filler","true",""
"","","","","","fixation","71323","html-keyboard-response","195","259293","0.0-6.0-0.40","54","1","2022-11-17 12:21:07","fd252370c17a9971d68c1d4354a03c2e","","Mozilla/5.0 (X11; Linux x86_64; rv:108.0) Gecko/20100101 Firefox/108.0","","Firefox","108.0","Linux","","null","null","","<p style=""font-size: 48px;"">+</p>","1","Filler","",""
"","","","","","sentence","71323","html-keyboard-response","196","260626","0.0-6.0-1.40","54","1","2022-11-17 12:21:07","fd252370c17a9971d68c1d4354a03c2e","","Mozilla/5.0 (X11; Linux x86_64; rv:108.0) Gecko/20100101 Firefox/108.0","","Firefox","108.0","Linux","","1321"," ","","A woman is paying with a debit card","1","Filler","",""
"","","","","","fixation","71323","html-keyboard-response","197","261137","0.0-6.0-2.40","54","1","2022-11-17 12:21:07","fd252370c17a9971d68c1d4354a03c2e","","Mozilla/5.0 (X11; Linux x86_64; rv:108.0) Gecko/20100101 Firefox/108.0","","Firefox","108.0","Linux","","null","null","","<p style=""font-size: 48px;"">+</p>","1","Filler","",""
"","","","","","picture","71323","image-keyboard-response","198","261940","0.0-6.0-3.40","54","1","2022-11-17 12:21:07","fd252370c17a9971d68c1d4354a03c2e","","Mozilla/5.0 (X11; Linux x86_64; rv:108.0) Gecko/20100101 Firefox/108.0","","Firefox","108.0","Linux","","783","n","","papercup.jpg","1","Filler","true",""
"","","","","","fixation","71323","html-keyboard-response","199","262951","0.0-6.0-0.41","54","1","2022-11-17 12:21:07","fd252370c17a9971d68c1d4354a03c2e","","Mozilla/5.0 (X11; Linux x86_64; rv:108.0) Gecko/20100101 Firefox/108.0","","Firefox","108.0","Linux","","null","null","","<p style=""font-size: 48px;"">+</p>","1","Light_Contradictory","",""
"","","","","","sentence","71323","html-keyboard-response","200","264002","0.0-6.0-1.41","54","1","2022-11-17 12:21:07","fd252370c17a9971d68c1d4354a03c2e","","Mozilla/5.0 (X11; Linux x86_64; rv:108.0) Gecko/20100101 Firefox/108.0","","Firefox","108.0","Linux","","1041"," ","","A balloon dropped and smashed a strawberry","1","Light_Contradictory","",""
"","","","","","fixation","71323","html-keyboard-response","201","264513","0.0-6.0-2.41","54","1","2022-11-17 12:21:07","fd252370c17a9971d68c1d4354a03c2e","","Mozilla/5.0 (X11; Linux x86_64; rv:108.0) Gecko/20100101 Firefox/108.0","","Firefox","108.0","Linux","","null","null","","<p style=""font-size: 48px;"">+</p>","1","Light_Contradictory","",""
"","","","","","picture","71323","image-keyboard-response","202","265255","0.0-6.0-3.41","54","1","2022-11-17 12:21:07","fd252370c17a9971d68c1d4354a03c2e","","Mozilla/5.0 (X11; Linux x86_64; rv:108.0) Gecko/20100101 Firefox/108.0","","Firefox","108.0","Linux","","719","s","","strawberryS.jpg","1","Light_Contradictory","true",""
"","","","","","fixation","71323","html-keyboard-response","203","266266","0.0-6.0-0.42","54","1","2022-11-17 12:21:07","fd252370c17a9971d68c1d4354a03c2e","","Mozilla/5.0 (X11; Linux x86_64; rv:108.0) Gecko/20100101 Firefox/108.0","","Firefox","108.0","Linux","","null","null","","<p style=""font-size: 48px;"">+</p>","1","Heavy_Contradictory","",""
"","","","","","sentence","71323","html-keyboard-response","204","268055","0.0-6.0-1.42","54","1","2022-11-17 12:21:07","fd252370c17a9971d68c1d4354a03c2e","","Mozilla/5.0 (X11; Linux x86_64; rv:108.0) Gecko/20100101 Firefox/108.0","","Firefox","108.0","Linux","","1778"," ","","A bowling ball dropped and touched an iPAD","1","Heavy_Contradictory","",""
"","","","","","fixation","71323","html-keyboard-response","205","268567","0.0-6.0-2.42","54","1","2022-11-17 12:21:07","fd252370c17a9971d68c1d4354a03c2e","","Mozilla/5.0 (X11; Linux x86_64; rv:108.0) Gecko/20100101 Firefox/108.0","","Firefox","108.0","Linux","","null","null","","<p style=""font-size: 48px;"">+</p>","1","Heavy_Contradictory","",""
"","","","","","picture","71323","image-keyboard-response","206","269313","0.0-6.0-3.42","54","1","2022-11-17 12:21:07","fd252370c17a9971d68c1d4354a03c2e","","Mozilla/5.0 (X11; Linux x86_64; rv:108.0) Gecko/20100101 Firefox/108.0","","Firefox","108.0","Linux","","727","s","","iPadS.jpg","1","Heavy_Contradictory","true",""
"","","","","","fixation","71323","html-keyboard-response","207","270325","0.0-6.0-0.43","54","1","2022-11-17 12:21:07","fd252370c17a9971d68c1d4354a03c2e","","Mozilla/5.0 (X11; Linux x86_64; rv:108.0) Gecko/20100101 Firefox/108.0","","Firefox","108.0","Linux","","null","null","","<p style=""font-size: 48px;"">+</p>","1","Filler","",""
"","","","","","sentence","71323","html-keyboard-response","208","271403","0.0-6.0-1.43","54","1","2022-11-17 12:21:07","fd252370c17a9971d68c1d4354a03c2e","","Mozilla/5.0 (X11; Linux x86_64; rv:108.0) Gecko/20100101 Firefox/108.0","","Firefox","108.0","Linux","","1066"," ","","A towel was placed on the TV","1","Filler","",""
"","","","","","fixation","71323","html-keyboard-response","209","271914","0.0-6.0-2.43","54","1","2022-11-17 12:21:07","fd252370c17a9971d68c1d4354a03c2e","","Mozilla/5.0 (X11; Linux x86_64; rv:108.0) Gecko/20100101 Firefox/108.0","","Firefox","108.0","Linux","","null","null","","<p style=""font-size: 48px;"">+</p>","1","Filler","",""
"","","","","","picture","71323","image-keyboard-response","210","272849","0.0-6.0-3.43","54","1","2022-11-17 12:21:07","fd252370c17a9971d68c1d4354a03c2e","","Mozilla/5.0 (X11; Linux x86_64; rv:108.0) Gecko/20100101 Firefox/108.0","","Firefox","108.0","Linux","","914","n","","pencil.jpg","1","Filler","true",""
"","","","","","fixation","71323","html-keyboard-response","211","273860","0.0-6.0-0.44","54","1","2022-11-17 12:21:07","fd252370c17a9971d68c1d4354a03c2e","","Mozilla/5.0 (X11; Linux x86_64; rv:108.0) Gecko/20100101 Firefox/108.0","","Firefox","108.0","Linux","","null","null","","<p style=""font-size: 48px;"">+</p>","1","Heavy_Contradictory","",""
"","","","","","sentence","71323","html-keyboard-response","212","275714","0.0-6.0-1.44","54","1","2022-11-17 12:21:07","fd252370c17a9971d68c1d4354a03c2e","","Mozilla/5.0 (X11; Linux x86_64; rv:108.0) Gecko/20100101 Firefox/108.0","","Firefox","108.0","Linux","","1843"," ","","A bowling ball dropped and touched an egg flan","1","Heavy_Contradictory","",""
"","","","","","fixation","71323","html-keyboard-response","213","276225","0.0-6.0-2.44","54","1","2022-11-17 12:21:07","fd252370c17a9971d68c1d4354a03c2e","","Mozilla/5.0 (X11; Linux x86_64; rv:108.0) Gecko/20100101 Firefox/108.0","","Firefox","108.0","Linux","","null","null","","<p style=""font-size: 48px;"">+</p>","1","Heavy_Contradictory","",""
"","","","","","picture","71323","image-keyboard-response","214","278221","0.0-6.0-3.44","54","1","2022-11-17 12:21:07","fd252370c17a9971d68c1d4354a03c2e","","Mozilla/5.0 (X11; Linux x86_64; rv:108.0) Gecko/20100101 Firefox/108.0","","Firefox","108.0","Linux","","1975","s","","eggflanS.jpg","1","Heavy_Contradictory","true",""
"","","","","","fixation","71323","html-keyboard-response","215","279233","0.0-6.0-0.45","54","1","2022-11-17 12:21:07","fd252370c17a9971d68c1d4354a03c2e","","Mozilla/5.0 (X11; Linux x86_64; rv:108.0) Gecko/20100101 Firefox/108.0","","Firefox","108.0","Linux","","null","null","","<p style=""font-size: 48px;"">+</p>","1","Filler","",""
"","","","","","sentence","71323","html-keyboard-response","216","280980","0.0-6.0-1.45","54","1","2022-11-17 12:21:07","fd252370c17a9971d68c1d4354a03c2e","","Mozilla/5.0 (X11; Linux x86_64; rv:108.0) Gecko/20100101 Firefox/108.0","","Firefox","108.0","Linux","","1736"," ","","A needle was placed on the mouse pad","1","Filler","",""
"","","","","","fixation","71323","html-keyboard-response","217","281495","0.0-6.0-2.45","54","1","2022-11-17 12:21:07","fd252370c17a9971d68c1d4354a03c2e","","Mozilla/5.0 (X11; Linux x86_64; rv:108.0) Gecko/20100101 Firefox/108.0","","Firefox","108.0","Linux","","null","null","","<p style=""font-size: 48px;"">+</p>","1","Filler","",""
"","","","","","picture","71323","image-keyboard-response","218","282635","0.0-6.0-3.45","54","1","2022-11-17 12:21:07","fd252370c17a9971d68c1d4354a03c2e","","Mozilla/5.0 (X11; Linux x86_64; rv:108.0) Gecko/20100101 Firefox/108.0","","Firefox","108.0","Linux","","1121","n","","chocolate.jpg","1","Filler","true",""
"","","","","","fixation","71323","html-keyboard-response","219","283647","0.0-6.0-0.46","54","1","2022-11-17 12:21:07","fd252370c17a9971d68c1d4354a03c2e","","Mozilla/5.0 (X11; Linux x86_64; rv:108.0) Gecko/20100101 Firefox/108.0","","Firefox","108.0","Linux","","null","null","","<p style=""font-size: 48px;"">+</p>","1","Filler","",""
"","","","","","sentence","71323","html-keyboard-response","220","285115","0.0-6.0-1.46","54","1","2022-11-17 12:21:07","fd252370c17a9971d68c1d4354a03c2e","","Mozilla/5.0 (X11; Linux x86_64; rv:108.0) Gecko/20100101 Firefox/108.0","","Firefox","108.0","Linux","","1457"," ","","An old man is hammering a nail","1","Filler","",""
"","","","","","fixation","71323","html-keyboard-response","221","285627","0.0-6.0-2.46","54","1","2022-11-17 12:21:07","fd252370c17a9971d68c1d4354a03c2e","","Mozilla/5.0 (X11; Linux x86_64; rv:108.0) Gecko/20100101 Firefox/108.0","","Firefox","108.0","Linux","","null","null","","<p style=""font-size: 48px;"">+</p>","1","Filler","",""
"","","","","","picture","71323","image-keyboard-response","222","287652","0.0-6.0-3.46","54","1","2022-11-17 12:21:07","fd252370c17a9971d68c1d4354a03c2e","","Mozilla/5.0 (X11; Linux x86_64; rv:108.0) Gecko/20100101 Firefox/108.0","","Firefox","108.0","Linux","","2005","s","","nail.jpg","1","Filler","true",""
"","","","","","fixation","71323","html-keyboard-response","223","288664","0.0-6.0-0.47","54","1","2022-11-17 12:21:07","fd252370c17a9971d68c1d4354a03c2e","","Mozilla/5.0 (X11; Linux x86_64; rv:108.0) Gecko/20100101 Firefox/108.0","","Firefox","108.0","Linux","","null","null","","<p style=""font-size: 48px;"">+</p>","1","Light_Matched","",""
"","","","","","sentence","71323","html-keyboard-response","224","290048","0.0-6.0-1.47","54","1","2022-11-17 12:21:07","fd252370c17a9971d68c1d4354a03c2e","","Mozilla/5.0 (X11; Linux x86_64; rv:108.0) Gecko/20100101 Firefox/108.0","","Firefox","108.0","Linux","","1372"," ","","A balloon dropped and touched a donut","1","Light_Matched","",""
"","","","","","fixation","71323","html-keyboard-response","225","290560","0.0-6.0-2.47","54","1","2022-11-17 12:21:07","fd252370c17a9971d68c1d4354a03c2e","","Mozilla/5.0 (X11; Linux x86_64; rv:108.0) Gecko/20100101 Firefox/108.0","","Firefox","108.0","Linux","","null","null","","<p style=""font-size: 48px;"">+</p>","1","Light_Matched","",""
"","","","","","picture","71323","image-keyboard-response","226","291705","0.0-6.0-3.47","54","1","2022-11-17 12:21:07","fd252370c17a9971d68c1d4354a03c2e","","Mozilla/5.0 (X11; Linux x86_64; rv:108.0) Gecko/20100101 Firefox/108.0","","Firefox","108.0","Linux","","1122","s","","donutS.jpg","1","Light_Matched","true",""
"","","","","","fixation","71323","html-keyboard-response","227","292718","0.0-6.0-0.48","54","1","2022-11-17 12:21:07","fd252370c17a9971d68c1d4354a03c2e","","Mozilla/5.0 (X11; Linux x86_64; rv:108.0) Gecko/20100101 Firefox/108.0","","Firefox","108.0","Linux","","null","null","","<p style=""font-size: 48px;"">+</p>","1","Filler","",""
"","","","","","sentence","71323","html-keyboard-response","228","294269","0.0-6.0-1.48","54","1","2022-11-17 12:21:07","fd252370c17a9971d68c1d4354a03c2e","","Mozilla/5.0 (X11; Linux x86_64; rv:108.0) Gecko/20100101 Firefox/108.0","","Firefox","108.0","Linux","","1540"," ","","A remote was placed on the rug","1","Filler","",""
"","","","","","fixation","71323","html-keyboard-response","229","294781","0.0-6.0-2.48","54","1","2022-11-17 12:21:07","fd252370c17a9971d68c1d4354a03c2e","","Mozilla/5.0 (X11; Linux x86_64; rv:108.0) Gecko/20100101 Firefox/108.0","","Firefox","108.0","Linux","","null","null","","<p style=""font-size: 48px;"">+</p>","1","Filler","",""
"","","","","","picture","71323","image-keyboard-response","230","295847","0.0-6.0-3.48","54","1","2022-11-17 12:21:07","fd252370c17a9971d68c1d4354a03c2e","","Mozilla/5.0 (X11; Linux x86_64; rv:108.0) Gecko/20100101 Firefox/108.0","","Firefox","108.0","Linux","","1046","n","","CD.jpg","1","Filler","true",""
"","","","","","fixation","71323","html-keyboard-response","231","296859","0.0-6.0-0.49","54","1","2022-11-17 12:21:07","fd252370c17a9971d68c1d4354a03c2e","","Mozilla/5.0 (X11; Linux x86_64; rv:108.0) Gecko/20100101 Firefox/108.0","","Firefox","108.0","Linux","","null","null","","<p style=""font-size: 48px;"">+</p>","1","Filler","",""
"","","","","","sentence","71323","html-keyboard-response","232","298229","0.0-6.0-1.49","54","1","2022-11-17 12:21:07","fd252370c17a9971d68c1d4354a03c2e","","Mozilla/5.0 (X11; Linux x86_64; rv:108.0) Gecko/20100101 Firefox/108.0","","Firefox","108.0","Linux","","1358"," ","","A horse is chewing hay","1","Filler","",""
"","","","","","fixation","71323","html-keyboard-response","233","298741","0.0-6.0-2.49","54","1","2022-11-17 12:21:07","fd252370c17a9971d68c1d4354a03c2e","","Mozilla/5.0 (X11; Linux x86_64; rv:108.0) Gecko/20100101 Firefox/108.0","","Firefox","108.0","Linux","","null","null","","<p style=""font-size: 48px;"">+</p>","1","Filler","",""
"","","","","","picture","71323","image-keyboard-response","234","299615","0.0-6.0-3.49","54","1","2022-11-17 12:21:07","fd252370c17a9971d68c1d4354a03c2e","","Mozilla/5.0 (X11; Linux x86_64; rv:108.0) Gecko/20100101 Firefox/108.0","","Firefox","108.0","Linux","","854","n","","purse.jpg","1","Filler","true",""
"","","","","","fixation","71323","html-keyboard-response","235","300649","0.0-6.0-0.50","54","1","2022-11-17 12:21:07","fd252370c17a9971d68c1d4354a03c2e","","Mozilla/5.0 (X11; Linux x86_64; rv:108.0) Gecko/20100101 Firefox/108.0","","Firefox","108.0","Linux","","null","null","","<p style=""font-size: 48px;"">+</p>","1","Light_Contradictory","",""
"","","","","","sentence","71323","html-keyboard-response","236","302103","0.0-6.0-1.50","54","1","2022-11-17 12:21:07","fd252370c17a9971d68c1d4354a03c2e","","Mozilla/5.0 (X11; Linux x86_64; rv:108.0) Gecko/20100101 Firefox/108.0","","Firefox","108.0","Linux","","1434"," ","","A balloon dropped and smashed a piece of sushi","1","Light_Contradictory","",""
"","","","","","fixation","71323","html-keyboard-response","237","302615","0.0-6.0-2.50","54","1","2022-11-17 12:21:07","fd252370c17a9971d68c1d4354a03c2e","","Mozilla/5.0 (X11; Linux x86_64; rv:108.0) Gecko/20100101 Firefox/108.0","","Firefox","108.0","Linux","","null","null","","<p style=""font-size: 48px;"">+</p>","1","Light_Contradictory","",""
"","","","","","picture","71323","image-keyboard-response","238","303550","0.0-6.0-3.50","54","1","2022-11-17 12:21:07","fd252370c17a9971d68c1d4354a03c2e","","Mozilla/5.0 (X11; Linux x86_64; rv:108.0) Gecko/20100101 Firefox/108.0","","Firefox","108.0","Linux","","925","s","","sushiS.jpg","1","Light_Contradictory","true",""
"","","","","","fixation","71323","html-keyboard-response","239","304580","0.0-6.0-0.51","54","1","2022-11-17 12:21:07","fd252370c17a9971d68c1d4354a03c2e","","Mozilla/5.0 (X11; Linux x86_64; rv:108.0) Gecko/20100101 Firefox/108.0","","Firefox","108.0","Linux","","null","null","","<p style=""font-size: 48px;"">+</p>","1","Filler","",""
"","","","","","sentence","71323","html-keyboard-response","240","305708","0.0-6.0-1.51","54","1","2022-11-17 12:21:07","fd252370c17a9971d68c1d4354a03c2e","","Mozilla/5.0 (X11; Linux x86_64; rv:108.0) Gecko/20100101 Firefox/108.0","","Firefox","108.0","Linux","","1104"," ","","A ring was placed on the newspaper","1","Filler","",""
"","","","","","fixation","71323","html-keyboard-response","241","306222","0.0-6.0-2.51","54","1","2022-11-17 12:21:07","fd252370c17a9971d68c1d4354a03c2e","","Mozilla/5.0 (X11; Linux x86_64; rv:108.0) Gecko/20100101 Firefox/108.0","","Firefox","108.0","Linux","","null","null","","<p style=""font-size: 48px;"">+</p>","1","Filler","",""
"","","","","","picture","71323","image-keyboard-response","242","306980","0.0-6.0-3.51","54","1","2022-11-17 12:21:07","fd252370c17a9971d68c1d4354a03c2e","","Mozilla/5.0 (X11; Linux x86_64; rv:108.0) Gecko/20100101 Firefox/108.0","","Firefox","108.0","Linux","","734","n","","cat.jpg","1","Filler","true",""
"","","","","","fixation","71323","html-keyboard-response","243","307995","0.0-6.0-0.52","54","1","2022-11-17 12:21:07","fd252370c17a9971d68c1d4354a03c2e","","Mozilla/5.0 (X11; Linux x86_64; rv:108.0) Gecko/20100101 Firefox/108.0","","Firefox","108.0","Linux","","null","null","","<p style=""font-size: 48px;"">+</p>","1","Light_Contradictory","",""
"","","","","","sentence","71323","html-keyboard-response","244","309393","0.0-6.0-1.52","54","1","2022-11-17 12:21:07","fd252370c17a9971d68c1d4354a03c2e","","Mozilla/5.0 (X11; Linux x86_64; rv:108.0) Gecko/20100101 Firefox/108.0","","Firefox","108.0","Linux","","1385"," ","","A balloon dropped and smashed a vase","1","Light_Contradictory","",""
"","","","","","fixation","71323","html-keyboard-response","245","309907","0.0-6.0-2.52","54","1","2022-11-17 12:21:07","fd252370c17a9971d68c1d4354a03c2e","","Mozilla/5.0 (X11; Linux x86_64; rv:108.0) Gecko/20100101 Firefox/108.0","","Firefox","108.0","Linux","","null","null","","<p style=""font-size: 48px;"">+</p>","1","Light_Contradictory","",""
"","","","","","picture","71323","image-keyboard-response","246","311720","0.0-6.0-3.52","54","1","2022-11-17 12:21:07","fd252370c17a9971d68c1d4354a03c2e","","Mozilla/5.0 (X11; Linux x86_64; rv:108.0) Gecko/20100101 Firefox/108.0","","Firefox","108.0","Linux","","1791","s","","vaseS.jpg","1","Light_Contradictory","true",""
"","","","","","fixation","71323","html-keyboard-response","247","312734","0.0-6.0-0.53","54","1","2022-11-17 12:21:07","fd252370c17a9971d68c1d4354a03c2e","","Mozilla/5.0 (X11; Linux x86_64; rv:108.0) Gecko/20100101 Firefox/108.0","","Firefox","108.0","Linux","","null","null","","<p style=""font-size: 48px;"">+</p>","1","Filler","",""
"","","","","","sentence","71323","html-keyboard-response","248","314305","0.0-6.0-1.53","54","1","2022-11-17 12:21:07","fd252370c17a9971d68c1d4354a03c2e","","Mozilla/5.0 (X11; Linux x86_64; rv:108.0) Gecko/20100101 Firefox/108.0","","Firefox","108.0","Linux","","1558"," ","","A hairdresser is taking scissors","1","Filler","",""
"","","","","","fixation","71323","html-keyboard-response","249","314818","0.0-6.0-2.53","54","1","2022-11-17 12:21:07","fd252370c17a9971d68c1d4354a03c2e","","Mozilla/5.0 (X11; Linux x86_64; rv:108.0) Gecko/20100101 Firefox/108.0","","Firefox","108.0","Linux","","null","null","","<p style=""font-size: 48px;"">+</p>","1","Filler","",""
"","","","","","picture","71323","image-keyboard-response","250","315883","0.0-6.0-3.53","54","1","2022-11-17 12:21:07","fd252370c17a9971d68c1d4354a03c2e","","Mozilla/5.0 (X11; Linux x86_64; rv:108.0) Gecko/20100101 Firefox/108.0","","Firefox","108.0","Linux","","1047","n","","sock.jpg","1","Filler","true",""
"","","","","","fixation","71323","html-keyboard-response","251","316897","0.0-6.0-0.54","54","1","2022-11-17 12:21:07","fd252370c17a9971d68c1d4354a03c2e","","Mozilla/5.0 (X11; Linux x86_64; rv:108.0) Gecko/20100101 Firefox/108.0","","Firefox","108.0","Linux","","null","null","","<p style=""font-size: 48px;"">+</p>","1","Light_Contradictory","",""
"","","","","","sentence","71323","html-keyboard-response","252","318063","0.0-6.0-1.54","54","1","2022-11-17 12:21:07","fd252370c17a9971d68c1d4354a03c2e","","Mozilla/5.0 (X11; Linux x86_64; rv:108.0) Gecko/20100101 Firefox/108.0","","Firefox","108.0","Linux","","1154"," ","","A balloon dropped and smashed a tomato","1","Light_Contradictory","",""
"","","","","","fixation","71323","html-keyboard-response","253","318576","0.0-6.0-2.54","54","1","2022-11-17 12:21:07","fd252370c17a9971d68c1d4354a03c2e","","Mozilla/5.0 (X11; Linux x86_64; rv:108.0) Gecko/20100101 Firefox/108.0","","Firefox","108.0","Linux","","null","null","","<p style=""font-size: 48px;"">+</p>","1","Light_Contradictory","",""
"","","","","","picture","71323","image-keyboard-response","254","319556","0.0-6.0-3.54","54","1","2022-11-17 12:21:07","fd252370c17a9971d68c1d4354a03c2e","","Mozilla/5.0 (X11; Linux x86_64; rv:108.0) Gecko/20100101 Firefox/108.0","","Firefox","108.0","Linux","","958","s","","tomatoS.jpg","1","Light_Contradictory","true",""
"","","","","","fixation","71323","html-keyboard-response","255","320571","0.0-6.0-0.55","54","1","2022-11-17 12:21:07","fd252370c17a9971d68c1d4354a03c2e","","Mozilla/5.0 (X11; Linux x86_64; rv:108.0) Gecko/20100101 Firefox/108.0","","Firefox","108.0","Linux","","null","null","","<p style=""font-size: 48px;"">+</p>","1","Filler","",""
"","","","","","sentence","71323","html-keyboard-response","256","322023","0.0-6.0-1.55","54","1","2022-11-17 12:21:07","fd252370c17a9971d68c1d4354a03c2e","","Mozilla/5.0 (X11; Linux x86_64; rv:108.0) Gecko/20100101 Firefox/108.0","","Firefox","108.0","Linux","","1421"," ","","A watch was placed on the laptop","1","Filler","",""
"","","","","","fixation","71323","html-keyboard-response","257","322548","0.0-6.0-2.55","54","1","2022-11-17 12:21:07","fd252370c17a9971d68c1d4354a03c2e","","Mozilla/5.0 (X11; Linux x86_64; rv:108.0) Gecko/20100101 Firefox/108.0","","Firefox","108.0","Linux","","null","null","","<p style=""font-size: 48px;"">+</p>","1","Filler","",""
"","","","","","picture","71323","image-keyboard-response","258","323400","0.0-6.0-3.55","54","1","2022-11-17 12:21:07","fd252370c17a9971d68c1d4354a03c2e","","Mozilla/5.0 (X11; Linux x86_64; rv:108.0) Gecko/20100101 Firefox/108.0","","Firefox","108.0","Linux","","831","n","","bow.jpg","1","Filler","true",""
"","","","","","fixation","71323","html-keyboard-response","259","324416","0.0-6.0-0.56","54","1","2022-11-17 12:21:07","fd252370c17a9971d68c1d4354a03c2e","","Mozilla/5.0 (X11; Linux x86_64; rv:108.0) Gecko/20100101 Firefox/108.0","","Firefox","108.0","Linux","","null","null","","<p style=""font-size: 48px;"">+</p>","1","Filler","",""
"","","","","","sentence","71323","html-keyboard-response","260","325875","0.0-6.0-1.56","54","1","2022-11-17 12:21:07","fd252370c17a9971d68c1d4354a03c2e","","Mozilla/5.0 (X11; Linux x86_64; rv:108.0) Gecko/20100101 Firefox/108.0","","Firefox","108.0","Linux","","1429"," ","","An owl is sitting on the branch","1","Filler","",""
"","","","","","fixation","71323","html-keyboard-response","261","326399","0.0-6.0-2.56","54","1","2022-11-17 12:21:07","fd252370c17a9971d68c1d4354a03c2e","","Mozilla/5.0 (X11; Linux x86_64; rv:108.0) Gecko/20100101 Firefox/108.0","","Firefox","108.0","Linux","","null","null","","<p style=""font-size: 48px;"">+</p>","1","Filler","",""
"","","","","","picture","71323","image-keyboard-response","262","327218","0.0-6.0-3.56","54","1","2022-11-17 12:21:07","fd252370c17a9971d68c1d4354a03c2e","","Mozilla/5.0 (X11; Linux x86_64; rv:108.0) Gecko/20100101 Firefox/108.0","","Firefox","108.0","Linux","","797","n","","rubberduck.jpg","1","Filler","true",""
"","","","","","fixation","71323","html-keyboard-response","263","328231","0.0-6.0-0.57","54","1","2022-11-17 12:21:07","fd252370c17a9971d68c1d4354a03c2e","","Mozilla/5.0 (X11; Linux x86_64; rv:108.0) Gecko/20100101 Firefox/108.0","","Firefox","108.0","Linux","","null","null","","<p style=""font-size: 48px;"">+</p>","1","Filler","",""
"","","","","","sentence","71323","html-keyboard-response","264","329336","0.0-6.0-1.57","54","1","2022-11-17 12:21:07","fd252370c17a9971d68c1d4354a03c2e","","Mozilla/5.0 (X11; Linux x86_64; rv:108.0) Gecko/20100101 Firefox/108.0","","Firefox","108.0","Linux","","1090"," ","","A cook is taking a knife","1","Filler","",""
"","","","","","fixation","71323","html-keyboard-response","265","329850","0.0-6.0-2.57","54","1","2022-11-17 12:21:07","fd252370c17a9971d68c1d4354a03c2e","","Mozilla/5.0 (X11; Linux x86_64; rv:108.0) Gecko/20100101 Firefox/108.0","","Firefox","108.0","Linux","","null","null","","<p style=""font-size: 48px;"">+</p>","1","Filler","",""
"","","","","","picture","71323","image-keyboard-response","266","330851","0.0-6.0-3.57","54","1","2022-11-17 12:21:07","fd252370c17a9971d68c1d4354a03c2e","","Mozilla/5.0 (X11; Linux x86_64; rv:108.0) Gecko/20100101 Firefox/108.0","","Firefox","108.0","Linux","","979","s","","knife.jpg","1","Filler","true",""
"","","","","","fixation","71323","html-keyboard-response","267","331866","0.0-6.0-0.58","54","1","2022-11-17 12:21:07","fd252370c17a9971d68c1d4354a03c2e","","Mozilla/5.0 (X11; Linux x86_64; rv:108.0) Gecko/20100101 Firefox/108.0","","Firefox","108.0","Linux","","null","null","","<p style=""font-size: 48px;"">+</p>","1","Light_Matched","",""
"","","","","","sentence","71323","html-keyboard-response","268","333380","0.0-6.0-1.58","54","1","2022-11-17 12:21:07","fd252370c17a9971d68c1d4354a03c2e","","Mozilla/5.0 (X11; Linux x86_64; rv:108.0) Gecko/20100101 Firefox/108.0","","Firefox","108.0","Linux","","1501"," ","","A balloon dropped and touched a rice cake","1","Light_Matched","",""
"","","","","","fixation","71323","html-keyboard-response","269","333895","0.0-6.0-2.58","54","1","2022-11-17 12:21:07","fd252370c17a9971d68c1d4354a03c2e","","Mozilla/5.0 (X11; Linux x86_64; rv:108.0) Gecko/20100101 Firefox/108.0","","Firefox","108.0","Linux","","null","null","","<p style=""font-size: 48px;"">+</p>","1","Light_Matched","",""
"","","","","","picture","71323","image-keyboard-response","270","337196","0.0-6.0-3.58","54","1","2022-11-17 12:21:07","fd252370c17a9971d68c1d4354a03c2e","","Mozilla/5.0 (X11; Linux x86_64; rv:108.0) Gecko/20100101 Firefox/108.0","","Firefox","108.0","Linux","","3278","n","","tortitaS.jpg","1","Light_Matched","false",""
"","","","","","fixation","71323","html-keyboard-response","271","338209","0.0-6.0-0.59","54","1","2022-11-17 12:21:07","fd252370c17a9971d68c1d4354a03c2e","","Mozilla/5.0 (X11; Linux x86_64; rv:108.0) Gecko/20100101 Firefox/108.0","","Firefox","108.0","Linux","","null","null","","<p style=""font-size: 48px;"">+</p>","1","Heavy_Matched","",""
"","","","","","sentence","71323","html-keyboard-response","272","341416","0.0-6.0-1.59","54","1","2022-11-17 12:21:07","fd252370c17a9971d68c1d4354a03c2e","","Mozilla/5.0 (X11; Linux x86_64; rv:108.0) Gecko/20100101 Firefox/108.0","","Firefox","108.0","Linux","","3194"," ","","A bowling ball dropped and smashed a porcelain figure","1","Heavy_Matched","",""
"","","","","","fixation","71323","html-keyboard-response","273","341930","0.0-6.0-2.59","54","1","2022-11-17 12:21:07","fd252370c17a9971d68c1d4354a03c2e","","Mozilla/5.0 (X11; Linux x86_64; rv:108.0) Gecko/20100101 Firefox/108.0","","Firefox","108.0","Linux","","null","null","","<p style=""font-size: 48px;"">+</p>","1","Heavy_Matched","",""
"","","","","","picture","71323","image-keyboard-response","274","342879","0.0-6.0-3.59","54","1","2022-11-17 12:21:07","fd252370c17a9971d68c1d4354a03c2e","","Mozilla/5.0 (X11; Linux x86_64; rv:108.0) Gecko/20100101 Firefox/108.0","","Firefox","108.0","Linux","","929","s","","figureS.jpg","1","Heavy_Matched","true",""
"","","","","","fixation","71323","html-keyboard-response","275","343893","0.0-6.0-0.60","54","1","2022-11-17 12:21:07","fd252370c17a9971d68c1d4354a03c2e","","Mozilla/5.0 (X11; Linux x86_64; rv:108.0) Gecko/20100101 Firefox/108.0","","Firefox","108.0","Linux","","null","null","","<p style=""font-size: 48px;"">+</p>","1","Filler","",""
"","","","","","sentence","71323","html-keyboard-response","276","345733","0.0-6.0-1.60","54","1","2022-11-17 12:21:07","fd252370c17a9971d68c1d4354a03c2e","","Mozilla/5.0 (X11; Linux x86_64; rv:108.0) Gecko/20100101 Firefox/108.0","","Firefox","108.0","Linux","","1825"," ","","A teenage girl is playing the piano","1","Filler","",""
"","","","","","fixation","71323","html-keyboard-response","277","346247","0.0-6.0-2.60","54","1","2022-11-17 12:21:07","fd252370c17a9971d68c1d4354a03c2e","","Mozilla/5.0 (X11; Linux x86_64; rv:108.0) Gecko/20100101 Firefox/108.0","","Firefox","108.0","Linux","","null","null","","<p style=""font-size: 48px;"">+</p>","1","Filler","",""
"","","","","","picture","71323","image-keyboard-response","278","346969","0.0-6.0-3.60","54","1","2022-11-17 12:21:07","fd252370c17a9971d68c1d4354a03c2e","","Mozilla/5.0 (X11; Linux x86_64; rv:108.0) Gecko/20100101 Firefox/108.0","","Firefox","108.0","Linux","","696","n","","pillow.jpg","1","Filler","true",""
"","","","","","fixation","71323","html-keyboard-response","279","347982","0.0-6.0-0.61","54","1","2022-11-17 12:21:07","fd252370c17a9971d68c1d4354a03c2e","","Mozilla/5.0 (X11; Linux x86_64; rv:108.0) Gecko/20100101 Firefox/108.0","","Firefox","108.0","Linux","","null","null","","<p style=""font-size: 48px;"">+</p>","1","Filler","",""
"","","","","","sentence","71323","html-keyboard-response","280","349831","0.0-6.0-1.61","54","1","2022-11-17 12:21:07","fd252370c17a9971d68c1d4354a03c2e","","Mozilla/5.0 (X11; Linux x86_64; rv:108.0) Gecko/20100101 Firefox/108.0","","Firefox","108.0","Linux","","1835"," ","","A dentist is drinking a can of cola","1","Filler","",""
"","","","","","fixation","71323","html-keyboard-response","281","350346","0.0-6.0-2.61","54","1","2022-11-17 12:21:07","fd252370c17a9971d68c1d4354a03c2e","","Mozilla/5.0 (X11; Linux x86_64; rv:108.0) Gecko/20100101 Firefox/108.0","","Firefox","108.0","Linux","","null","null","","<p style=""font-size: 48px;"">+</p>","1","Filler","",""
"","","","","","picture","71323","image-keyboard-response","282","351122","0.0-6.0-3.61","54","1","2022-11-17 12:21:07","fd252370c17a9971d68c1d4354a03c2e","","Mozilla/5.0 (X11; Linux x86_64; rv:108.0) Gecko/20100101 Firefox/108.0","","Firefox","108.0","Linux","","752","n","","doll.jpg","1","Filler","true",""
"","","","","","fixation","71323","html-keyboard-response","283","352136","0.0-6.0-0.62","54","1","2022-11-17 12:21:07","fd252370c17a9971d68c1d4354a03c2e","","Mozilla/5.0 (X11; Linux x86_64; rv:108.0) Gecko/20100101 Firefox/108.0","","Firefox","108.0","Linux","","null","null","","<p style=""font-size: 48px;"">+</p>","1","Heavy_Contradictory","",""
"","","","","","sentence","71323","html-keyboard-response","284","353854","0.0-6.0-1.62","54","1","2022-11-17 12:21:07","fd252370c17a9971d68c1d4354a03c2e","","Mozilla/5.0 (X11; Linux x86_64; rv:108.0) Gecko/20100101 Firefox/108.0","","Firefox","108.0","Linux","","1701"," ","","A bowling ball dropped and touched a blackberry","1","Heavy_Contradictory","",""
"","","","","","fixation","71323","html-keyboard-response","285","354369","0.0-6.0-2.62","54","1","2022-11-17 12:21:07","fd252370c17a9971d68c1d4354a03c2e","","Mozilla/5.0 (X11; Linux x86_64; rv:108.0) Gecko/20100101 Firefox/108.0","","Firefox","108.0","Linux","","null","null","","<p style=""font-size: 48px;"">+</p>","1","Heavy_Contradictory","",""
"","","","","","picture","71323","image-keyboard-response","286","355096","0.0-6.0-3.62","54","1","2022-11-17 12:21:07","fd252370c17a9971d68c1d4354a03c2e","","Mozilla/5.0 (X11; Linux x86_64; rv:108.0) Gecko/20100101 Firefox/108.0","","Firefox","108.0","Linux","","705","s","","blackberryS.jpg","1","Heavy_Contradictory","true",""
"","","","","","fixation","71323","html-keyboard-response","287","356110","0.0-6.0-0.63","54","1","2022-11-17 12:21:07","fd252370c17a9971d68c1d4354a03c2e","","Mozilla/5.0 (X11; Linux x86_64; rv:108.0) Gecko/20100101 Firefox/108.0","","Firefox","108.0","Linux","","null","null","","<p style=""font-size: 48px;"">+</p>","1","Filler","",""
"","","","","","sentence","71323","html-keyboard-response","288","357694","0.0-6.0-1.63","54","1","2022-11-17 12:21:07","fd252370c17a9971d68c1d4354a03c2e","","Mozilla/5.0 (X11; Linux x86_64; rv:108.0) Gecko/20100101 Firefox/108.0","","Firefox","108.0","Linux","","1570"," ","","A keyboard was placed on the bed","1","Filler","",""
"","","","","","fixation","71323","html-keyboard-response","289","358208","0.0-6.0-2.63","54","1","2022-11-17 12:21:07","fd252370c17a9971d68c1d4354a03c2e","","Mozilla/5.0 (X11; Linux x86_64; rv:108.0) Gecko/20100101 Firefox/108.0","","Firefox","108.0","Linux","","null","null","","<p style=""font-size: 48px;"">+</p>","1","Filler","",""
"","","","","","picture","71323","image-keyboard-response","290","359186","0.0-6.0-3.63","54","1","2022-11-17 12:21:07","fd252370c17a9971d68c1d4354a03c2e","","Mozilla/5.0 (X11; Linux x86_64; rv:108.0) Gecko/20100101 Firefox/108.0","","Firefox","108.0","Linux","","954","n","","bottlecap.jpg","1","Filler","true",""
