"success","timeout","failed_images","failed_audio","failed_video","typeoftrial","subject","trial_type","trial_index","time_elapsed","internal_node_id","run_id","condition","recorded_at","source_code_version","ip","user_agent","device","browser","browser_version","platform","platform_version","rt","response","Experiment","stimulus","list_number","trialcondition","correct","question_order"
"true","false","[]","[]","[]","preload","28095","preload","0","541","0.0-0.0","85","1","2022-11-17 12:26:24","fd252370c17a9971d68c1d4354a03c2e","","Mozilla/5.0 (Windows NT 10.0; Win64; x64) AppleWebKit/537.36 (KHTML, like Gecko) Chrome/107.0.0.0 Safari/537.36 Edg/107.0.1418.42","WebKit","Edge","107.0.1418.42","Windows","10.0","","","","","","","",""
"","","","","","ID","28095","survey-text","1","7553","0.0-1.0","85","1","2022-11-17 12:26:24","fd252370c17a9971d68c1d4354a03c2e","","Mozilla/5.0 (Windows NT 10.0; Win64; x64) AppleWebKit/537.36 (KHTML, like Gecko) Chrome/107.0.0.0 Safari/537.36 Edg/107.0.1418.42","WebKit","Edge","107.0.1418.42","Windows","10.0","7006","{""ID"":""6266b7a695b41136a3922aeb""}","","","","","",""
"","","","","","instructions","28095","html-button-response","2","28764","0.0-2.0","85","1","2022-11-17 12:26:24","fd252370c17a9971d68c1d4354a03c2e","","Mozilla/5.0 (Windows NT 10.0; Win64; x64) AppleWebKit/537.36 (KHTML, like Gecko) Chrome/107.0.0.0 Safari/537.36 Edg/107.0.1418.42","WebKit","Edge","107.0.1418.42","Windows","10.0","21208","0","","
                    <p style=""font-size:20px;""> Welcome to the experiment! </p>
                    <p style=""font-size:20px;""> In this experiment, you will be asked to make judgments about the content of different sentences.</p>
                    <p style=""font-size:20px;""> On each trial, you will read a sentence, and will be shown a picture immediately following the sentence. </p>
                    <p style=""font-size:20px;""> Your task is to decide whether the object displayed in the picture was mentioned in the sentence or not </p>
                    <p style=""font-size:20px;""> and respond as quickly as possible by pressing <strong>S</strong> for yes or <strong>N</strong> for no. </p>
                    <p style=""font-size:20px;""> You will now do a practice session with feedback and instructions. </p>
                    <p style=""font-size:20px;""> Click the button below to continue.</p>
                    ","","","",""
"","","","","","instructions","28095","html-button-response","3","52086","0.0-3.0","85","1","2022-11-17 12:26:24","fd252370c17a9971d68c1d4354a03c2e","","Mozilla/5.0 (Windows NT 10.0; Win64; x64) AppleWebKit/537.36 (KHTML, like Gecko) Chrome/107.0.0.0 Safari/537.36 Edg/107.0.1418.42","WebKit","Edge","107.0.1418.42","Windows","10.0","23329","0","","
                    <p style=""font-size:20px;""> You are about to begin the practice test. </p>
                    <p style=""font-size:20px;""> On each trial, a sentence will appear on the screen. You should press SPACEBAR when you have read and understood the sentence.</p>
                    <p style=""font-size:20px;""> After you press SPACEBAR, a picture will appear on the screen. </p>
                    <p style=""font-size:20px;""> You need to indicate whether or not the pictured object was mentioned in the sentence. </p>
                    <p style=""font-size:20px;""> If the object WAS mentioned in the preceding sentence, you should press <strong>S</strong> </p>
                    <p style=""font-size:20px;""> If the object was NOT mentioned in the preceding sentence, you should press <strong>N</strong>. </p>
                    <p style=""font-size:20px;""> Click the button below to continue to the practice session.</p>
                    ","","","",""
"","","","","","fixation","28095","html-keyboard-response","4","53099","0.0-4.0-0.0","85","1","2022-11-17 12:26:24","fd252370c17a9971d68c1d4354a03c2e","","Mozilla/5.0 (Windows NT 10.0; Win64; x64) AppleWebKit/537.36 (KHTML, like Gecko) Chrome/107.0.0.0 Safari/537.36 Edg/107.0.1418.42","WebKit","Edge","107.0.1418.42","Windows","10.0","null","null","","<p style=""font-size: 48px;"">+</p>","practice","practice_s","",""
"","","","","","sentence","28095","html-keyboard-response","5","61552","0.0-4.0-1.0","85","1","2022-11-17 12:26:24","fd252370c17a9971d68c1d4354a03c2e","","Mozilla/5.0 (Windows NT 10.0; Win64; x64) AppleWebKit/537.36 (KHTML, like Gecko) Chrome/107.0.0.0 Safari/537.36 Edg/107.0.1418.42","WebKit","Edge","107.0.1418.42","Windows","10.0","8451"," ","","A balloon dropped and touched a cigarette","practice","practice_s","",""
"","","","","","fixation","28095","html-keyboard-response","6","62060","0.0-4.0-2.0","85","1","2022-11-17 12:26:24","fd252370c17a9971d68c1d4354a03c2e","","Mozilla/5.0 (Windows NT 10.0; Win64; x64) AppleWebKit/537.36 (KHTML, like Gecko) Chrome/107.0.0.0 Safari/537.36 Edg/107.0.1418.42","WebKit","Edge","107.0.1418.42","Windows","10.0","null","null","","<p style=""font-size: 48px;"">+</p>","practice","practice_s","",""
"","","","","","picture","28095","image-keyboard-response","7","65562","0.0-4.0-3.0","85","1","2022-11-17 12:26:24","fd252370c17a9971d68c1d4354a03c2e","","Mozilla/5.0 (Windows NT 10.0; Win64; x64) AppleWebKit/537.36 (KHTML, like Gecko) Chrome/107.0.0.0 Safari/537.36 Edg/107.0.1418.42","WebKit","Edge","107.0.1418.42","Windows","10.0","3485","n","","cigaretteB.jpg","practice","practice_s","false",""
"","","","","","","","html-keyboard-response","8","67572","0.0-4.0-4.0","85","1","2022-11-17 12:26:24","fd252370c17a9971d68c1d4354a03c2e","","Mozilla/5.0 (Windows NT 10.0; Win64; x64) AppleWebKit/537.36 (KHTML, like Gecko) Chrome/107.0.0.0 Safari/537.36 Edg/107.0.1418.42","WebKit","Edge","107.0.1418.42","Windows","10.0","null","null","","WRONG!","","","",""
"","","","","","fixation","28095","html-keyboard-response","9","68581","0.0-4.0-0.1","85","1","2022-11-17 12:26:24","fd252370c17a9971d68c1d4354a03c2e","","Mozilla/5.0 (Windows NT 10.0; Win64; x64) AppleWebKit/537.36 (KHTML, like Gecko) Chrome/107.0.0.0 Safari/537.36 Edg/107.0.1418.42","WebKit","Edge","107.0.1418.42","Windows","10.0","null","null","","<p style=""font-size: 48px;"">+</p>","practice","practice_s","",""
"","","","","","sentence","28095","html-keyboard-response","10","71256","0.0-4.0-1.1","85","1","2022-11-17 12:26:24","fd252370c17a9971d68c1d4354a03c2e","","Mozilla/5.0 (Windows NT 10.0; Win64; x64) AppleWebKit/537.36 (KHTML, like Gecko) Chrome/107.0.0.0 Safari/537.36 Edg/107.0.1418.42","WebKit","Edge","107.0.1418.42","Windows","10.0","2673"," ","","A knife was placed on a hammer","practice","practice_s","",""
"","","","","","fixation","28095","html-keyboard-response","11","71768","0.0-4.0-2.1","85","1","2022-11-17 12:26:24","fd252370c17a9971d68c1d4354a03c2e","","Mozilla/5.0 (Windows NT 10.0; Win64; x64) AppleWebKit/537.36 (KHTML, like Gecko) Chrome/107.0.0.0 Safari/537.36 Edg/107.0.1418.42","WebKit","Edge","107.0.1418.42","Windows","10.0","null","null","","<p style=""font-size: 48px;"">+</p>","practice","practice_s","",""
"","","","","","picture","28095","image-keyboard-response","12","74353","0.0-4.0-3.1","85","1","2022-11-17 12:26:24","fd252370c17a9971d68c1d4354a03c2e","","Mozilla/5.0 (Windows NT 10.0; Win64; x64) AppleWebKit/537.36 (KHTML, like Gecko) Chrome/107.0.0.0 Safari/537.36 Edg/107.0.1418.42","WebKit","Edge","107.0.1418.42","Windows","10.0","2583","s","","hammerB.jpg","practice","practice_s","true",""
"","","","","","","","html-keyboard-response","13","76358","0.0-4.0-4.1","85","1","2022-11-17 12:26:24","fd252370c17a9971d68c1d4354a03c2e","","Mozilla/5.0 (Windows NT 10.0; Win64; x64) AppleWebKit/537.36 (KHTML, like Gecko) Chrome/107.0.0.0 Safari/537.36 Edg/107.0.1418.42","WebKit","Edge","107.0.1418.42","Windows","10.0","null","null","","CORRECT!","","","",""
"","","","","","fixation","28095","html-keyboard-response","14","77365","0.0-4.0-0.2","85","1","2022-11-17 12:26:24","fd252370c17a9971d68c1d4354a03c2e","","Mozilla/5.0 (Windows NT 10.0; Win64; x64) AppleWebKit/537.36 (KHTML, like Gecko) Chrome/107.0.0.0 Safari/537.36 Edg/107.0.1418.42","WebKit","Edge","107.0.1418.42","Windows","10.0","null","null","","<p style=""font-size: 48px;"">+</p>","practice","practice_n","",""
"","","","","","sentence","28095","html-keyboard-response","15","81412","0.0-4.0-1.2","85","1","2022-11-17 12:26:24","fd252370c17a9971d68c1d4354a03c2e","","Mozilla/5.0 (Windows NT 10.0; Win64; x64) AppleWebKit/537.36 (KHTML, like Gecko) Chrome/107.0.0.0 Safari/537.36 Edg/107.0.1418.42","WebKit","Edge","107.0.1418.42","Windows","10.0","4044"," ","","A balloon dropped and smashed a cup","practice","practice_n","",""
"","","","","","fixation","28095","html-keyboard-response","16","81924","0.0-4.0-2.2","85","1","2022-11-17 12:26:24","fd252370c17a9971d68c1d4354a03c2e","","Mozilla/5.0 (Windows NT 10.0; Win64; x64) AppleWebKit/537.36 (KHTML, like Gecko) Chrome/107.0.0.0 Safari/537.36 Edg/107.0.1418.42","WebKit","Edge","107.0.1418.42","Windows","10.0","null","null","","<p style=""font-size: 48px;"">+</p>","practice","practice_n","",""
"","","","","","picture","28095","image-keyboard-response","17","85689","0.0-4.0-3.2","85","1","2022-11-17 12:26:24","fd252370c17a9971d68c1d4354a03c2e","","Mozilla/5.0 (Windows NT 10.0; Win64; x64) AppleWebKit/537.36 (KHTML, like Gecko) Chrome/107.0.0.0 Safari/537.36 Edg/107.0.1418.42","WebKit","Edge","107.0.1418.42","Windows","10.0","3763","n","","bananaB.jpg","practice","practice_n","true",""
"","","","","","","","html-keyboard-response","18","87694","0.0-4.0-4.2","85","1","2022-11-17 12:26:24","fd252370c17a9971d68c1d4354a03c2e","","Mozilla/5.0 (Windows NT 10.0; Win64; x64) AppleWebKit/537.36 (KHTML, like Gecko) Chrome/107.0.0.0 Safari/537.36 Edg/107.0.1418.42","WebKit","Edge","107.0.1418.42","Windows","10.0","null","null","","CORRECT!","","","",""
"","","","","","fixation","28095","html-keyboard-response","19","88701","0.0-4.0-0.3","85","1","2022-11-17 12:26:24","fd252370c17a9971d68c1d4354a03c2e","","Mozilla/5.0 (Windows NT 10.0; Win64; x64) AppleWebKit/537.36 (KHTML, like Gecko) Chrome/107.0.0.0 Safari/537.36 Edg/107.0.1418.42","WebKit","Edge","107.0.1418.42","Windows","10.0","null","null","","<p style=""font-size: 48px;"">+</p>","practice","practice_s","",""
"","","","","","sentence","28095","html-keyboard-response","20","91740","0.0-4.0-1.3","85","1","2022-11-17 12:26:24","fd252370c17a9971d68c1d4354a03c2e","","Mozilla/5.0 (Windows NT 10.0; Win64; x64) AppleWebKit/537.36 (KHTML, like Gecko) Chrome/107.0.0.0 Safari/537.36 Edg/107.0.1418.42","WebKit","Edge","107.0.1418.42","Windows","10.0","3027"," ","","A bowling ball dropped and smashed a teacup","practice","practice_s","",""
"","","","","","fixation","28095","html-keyboard-response","21","92249","0.0-4.0-2.3","85","1","2022-11-17 12:26:24","fd252370c17a9971d68c1d4354a03c2e","","Mozilla/5.0 (Windows NT 10.0; Win64; x64) AppleWebKit/537.36 (KHTML, like Gecko) Chrome/107.0.0.0 Safari/537.36 Edg/107.0.1418.42","WebKit","Edge","107.0.1418.42","Windows","10.0","null","null","","<p style=""font-size: 48px;"">+</p>","practice","practice_s","",""
"","","","","","picture","28095","image-keyboard-response","22","93956","0.0-4.0-3.3","85","1","2022-11-17 12:26:24","fd252370c17a9971d68c1d4354a03c2e","","Mozilla/5.0 (Windows NT 10.0; Win64; x64) AppleWebKit/537.36 (KHTML, like Gecko) Chrome/107.0.0.0 Safari/537.36 Edg/107.0.1418.42","WebKit","Edge","107.0.1418.42","Windows","10.0","1704","s","","cupB.jpg","practice","practice_s","true",""
"","","","","","","","html-keyboard-response","23","95968","0.0-4.0-4.3","85","1","2022-11-17 12:26:24","fd252370c17a9971d68c1d4354a03c2e","","Mozilla/5.0 (Windows NT 10.0; Win64; x64) AppleWebKit/537.36 (KHTML, like Gecko) Chrome/107.0.0.0 Safari/537.36 Edg/107.0.1418.42","WebKit","Edge","107.0.1418.42","Windows","10.0","null","null","","CORRECT!","","","",""
"","","","","","fixation","28095","html-keyboard-response","24","96975","0.0-4.0-0.4","85","1","2022-11-17 12:26:24","fd252370c17a9971d68c1d4354a03c2e","","Mozilla/5.0 (Windows NT 10.0; Win64; x64) AppleWebKit/537.36 (KHTML, like Gecko) Chrome/107.0.0.0 Safari/537.36 Edg/107.0.1418.42","WebKit","Edge","107.0.1418.42","Windows","10.0","null","null","","<p style=""font-size: 48px;"">+</p>","practice","practice_n","",""
"","","","","","sentence","28095","html-keyboard-response","25","99252","0.0-4.0-1.4","85","1","2022-11-17 12:26:24","fd252370c17a9971d68c1d4354a03c2e","","Mozilla/5.0 (Windows NT 10.0; Win64; x64) AppleWebKit/537.36 (KHTML, like Gecko) Chrome/107.0.0.0 Safari/537.36 Edg/107.0.1418.42","WebKit","Edge","107.0.1418.42","Windows","10.0","2275"," ","","A bowling ball dropped and touched a bottle","practice","practice_n","",""
"","","","","","fixation","28095","html-keyboard-response","26","99768","0.0-4.0-2.4","85","1","2022-11-17 12:26:24","fd252370c17a9971d68c1d4354a03c2e","","Mozilla/5.0 (Windows NT 10.0; Win64; x64) AppleWebKit/537.36 (KHTML, like Gecko) Chrome/107.0.0.0 Safari/537.36 Edg/107.0.1418.42","WebKit","Edge","107.0.1418.42","Windows","10.0","null","null","","<p style=""font-size: 48px;"">+</p>","practice","practice_n","",""
"","","","","","picture","28095","image-keyboard-response","27","102052","0.0-4.0-3.4","85","1","2022-11-17 12:26:24","fd252370c17a9971d68c1d4354a03c2e","","Mozilla/5.0 (Windows NT 10.0; Win64; x64) AppleWebKit/537.36 (KHTML, like Gecko) Chrome/107.0.0.0 Safari/537.36 Edg/107.0.1418.42","WebKit","Edge","107.0.1418.42","Windows","10.0","2282","n","","bookB.jpg","practice","practice_n","true",""
"","","","","","","","html-keyboard-response","28","104070","0.0-4.0-4.4","85","1","2022-11-17 12:26:24","fd252370c17a9971d68c1d4354a03c2e","","Mozilla/5.0 (Windows NT 10.0; Win64; x64) AppleWebKit/537.36 (KHTML, like Gecko) Chrome/107.0.0.0 Safari/537.36 Edg/107.0.1418.42","WebKit","Edge","107.0.1418.42","Windows","10.0","null","null","","CORRECT!","","","",""
"","","","","","fixation","28095","html-keyboard-response","29","105078","0.0-4.0-0.5","85","1","2022-11-17 12:26:24","fd252370c17a9971d68c1d4354a03c2e","","Mozilla/5.0 (Windows NT 10.0; Win64; x64) AppleWebKit/537.36 (KHTML, like Gecko) Chrome/107.0.0.0 Safari/537.36 Edg/107.0.1418.42","WebKit","Edge","107.0.1418.42","Windows","10.0","null","null","","<p style=""font-size: 48px;"">+</p>","practice","practice_n","",""
"","","","","","sentence","28095","html-keyboard-response","30","106892","0.0-4.0-1.5","85","1","2022-11-17 12:26:24","fd252370c17a9971d68c1d4354a03c2e","","Mozilla/5.0 (Windows NT 10.0; Win64; x64) AppleWebKit/537.36 (KHTML, like Gecko) Chrome/107.0.0.0 Safari/537.36 Edg/107.0.1418.42","WebKit","Edge","107.0.1418.42","Windows","10.0","1812"," ","","A fork was placed on a stool","practice","practice_n","",""
"","","","","","fixation","28095","html-keyboard-response","31","107404","0.0-4.0-2.5","85","1","2022-11-17 12:26:24","fd252370c17a9971d68c1d4354a03c2e","","Mozilla/5.0 (Windows NT 10.0; Win64; x64) AppleWebKit/537.36 (KHTML, like Gecko) Chrome/107.0.0.0 Safari/537.36 Edg/107.0.1418.42","WebKit","Edge","107.0.1418.42","Windows","10.0","null","null","","<p style=""font-size: 48px;"">+</p>","practice","practice_n","",""
"","","","","","picture","28095","image-keyboard-response","32","109639","0.0-4.0-3.5","85","1","2022-11-17 12:26:24","fd252370c17a9971d68c1d4354a03c2e","","Mozilla/5.0 (Windows NT 10.0; Win64; x64) AppleWebKit/537.36 (KHTML, like Gecko) Chrome/107.0.0.0 Safari/537.36 Edg/107.0.1418.42","WebKit","Edge","107.0.1418.42","Windows","10.0","2232","n","","tableB.jpg","practice","practice_n","true",""
"","","","","","","","html-keyboard-response","33","111646","0.0-4.0-4.5","85","1","2022-11-17 12:26:24","fd252370c17a9971d68c1d4354a03c2e","","Mozilla/5.0 (Windows NT 10.0; Win64; x64) AppleWebKit/537.36 (KHTML, like Gecko) Chrome/107.0.0.0 Safari/537.36 Edg/107.0.1418.42","WebKit","Edge","107.0.1418.42","Windows","10.0","null","null","","CORRECT!","","","",""
"","","","","","movetoexp","28095","html-button-response","34","117741","0.0-5.0","85","1","2022-11-17 12:26:24","fd252370c17a9971d68c1d4354a03c2e","","Mozilla/5.0 (Windows NT 10.0; Win64; x64) AppleWebKit/537.36 (KHTML, like Gecko) Chrome/107.0.0.0 Safari/537.36 Edg/107.0.1418.42","WebKit","Edge","107.0.1418.42","Windows","10.0","6092","0","","<p style=""font-size:20px;"">You have now completed the practice session! </p>
                    <p style=""font-size:20px;"">You will now move on to the main experiment, where you will not be provided any feedback. </p>
                    <p style=""font-size:20px;"">Remember, you should press <strong>S</strong> if the pictured object was mentioned in the preceding sentence<br> and <strong>N</strong> if the pictured object was not mentioned in the preceding sentence.</p>
                    <p style=""font-size:20px;"">Please click the button below to continue to the main experiment. </p>","","","",""
"","","","","","fixation","28095","html-keyboard-response","35","118752","0.0-6.0-0.0","85","1","2022-11-17 12:26:24","fd252370c17a9971d68c1d4354a03c2e","","Mozilla/5.0 (Windows NT 10.0; Win64; x64) AppleWebKit/537.36 (KHTML, like Gecko) Chrome/107.0.0.0 Safari/537.36 Edg/107.0.1418.42","WebKit","Edge","107.0.1418.42","Windows","10.0","null","null","","<p style=""font-size: 48px;"">+</p>","1","Filler","",""
"","","","","","sentence","28095","html-keyboard-response","36","118759","0.0-6.0-1.0","85","1","2022-11-17 12:26:24","fd252370c17a9971d68c1d4354a03c2e","","Mozilla/5.0 (Windows NT 10.0; Win64; x64) AppleWebKit/537.36 (KHTML, like Gecko) Chrome/107.0.0.0 Safari/537.36 Edg/107.0.1418.42","WebKit","Edge","107.0.1418.42","Windows","10.0","4"," ","","An elephant is eating a watermelon","1","Filler","",""
"","","","","","fixation","28095","html-keyboard-response","37","119263","0.0-6.0-2.0","85","1","2022-11-17 12:26:24","fd252370c17a9971d68c1d4354a03c2e","","Mozilla/5.0 (Windows NT 10.0; Win64; x64) AppleWebKit/537.36 (KHTML, like Gecko) Chrome/107.0.0.0 Safari/537.36 Edg/107.0.1418.42","WebKit","Edge","107.0.1418.42","Windows","10.0","null","null","","<p style=""font-size: 48px;"">+</p>","1","Filler","",""
"","","","","","picture","28095","image-keyboard-response","38","124811","0.0-6.0-3.0","85","1","2022-11-17 12:26:24","fd252370c17a9971d68c1d4354a03c2e","","Mozilla/5.0 (Windows NT 10.0; Win64; x64) AppleWebKit/537.36 (KHTML, like Gecko) Chrome/107.0.0.0 Safari/537.36 Edg/107.0.1418.42","WebKit","Edge","107.0.1418.42","Windows","10.0","5545","n","","watermelon.jpg","1","Filler","false",""
"","","","","","fixation","28095","html-keyboard-response","39","125830","0.0-6.0-0.1","85","1","2022-11-17 12:26:24","fd252370c17a9971d68c1d4354a03c2e","","Mozilla/5.0 (Windows NT 10.0; Win64; x64) AppleWebKit/537.36 (KHTML, like Gecko) Chrome/107.0.0.0 Safari/537.36 Edg/107.0.1418.42","WebKit","Edge","107.0.1418.42","Windows","10.0","null","null","","<p style=""font-size: 48px;"">+</p>","1","Filler","",""
"","","","","","sentence","28095","html-keyboard-response","40","128437","0.0-6.0-1.1","85","1","2022-11-17 12:26:24","fd252370c17a9971d68c1d4354a03c2e","","Mozilla/5.0 (Windows NT 10.0; Win64; x64) AppleWebKit/537.36 (KHTML, like Gecko) Chrome/107.0.0.0 Safari/537.36 Edg/107.0.1418.42","WebKit","Edge","107.0.1418.42","Windows","10.0","2605"," ","","An old man is hammering a nail","1","Filler","",""
"","","","","","fixation","28095","html-keyboard-response","41","128944","0.0-6.0-2.1","85","1","2022-11-17 12:26:24","fd252370c17a9971d68c1d4354a03c2e","","Mozilla/5.0 (Windows NT 10.0; Win64; x64) AppleWebKit/537.36 (KHTML, like Gecko) Chrome/107.0.0.0 Safari/537.36 Edg/107.0.1418.42","WebKit","Edge","107.0.1418.42","Windows","10.0","null","null","","<p style=""font-size: 48px;"">+</p>","1","Filler","",""
"","","","","","picture","28095","image-keyboard-response","42","130619","0.0-6.0-3.1","85","1","2022-11-17 12:26:24","fd252370c17a9971d68c1d4354a03c2e","","Mozilla/5.0 (Windows NT 10.0; Win64; x64) AppleWebKit/537.36 (KHTML, like Gecko) Chrome/107.0.0.0 Safari/537.36 Edg/107.0.1418.42","WebKit","Edge","107.0.1418.42","Windows","10.0","1671","s","","nail.jpg","1","Filler","true",""
"","","","","","fixation","28095","html-keyboard-response","43","131636","0.0-6.0-0.2","85","1","2022-11-17 12:26:24","fd252370c17a9971d68c1d4354a03c2e","","Mozilla/5.0 (Windows NT 10.0; Win64; x64) AppleWebKit/537.36 (KHTML, like Gecko) Chrome/107.0.0.0 Safari/537.36 Edg/107.0.1418.42","WebKit","Edge","107.0.1418.42","Windows","10.0","null","null","","<p style=""font-size: 48px;"">+</p>","1","Filler","",""
"","","","","","sentence","28095","html-keyboard-response","44","137275","0.0-6.0-1.2","85","1","2022-11-17 12:26:24","fd252370c17a9971d68c1d4354a03c2e","","Mozilla/5.0 (Windows NT 10.0; Win64; x64) AppleWebKit/537.36 (KHTML, like Gecko) Chrome/107.0.0.0 Safari/537.36 Edg/107.0.1418.42","WebKit","Edge","107.0.1418.42","Windows","10.0","5636"," ","","A musician is playing a guitar","1","Filler","",""
"","","","","","fixation","28095","html-keyboard-response","45","137789","0.0-6.0-2.2","85","1","2022-11-17 12:26:24","fd252370c17a9971d68c1d4354a03c2e","","Mozilla/5.0 (Windows NT 10.0; Win64; x64) AppleWebKit/537.36 (KHTML, like Gecko) Chrome/107.0.0.0 Safari/537.36 Edg/107.0.1418.42","WebKit","Edge","107.0.1418.42","Windows","10.0","null","null","","<p style=""font-size: 48px;"">+</p>","1","Filler","",""
"","","","","","picture","28095","image-keyboard-response","46","139186","0.0-6.0-3.2","85","1","2022-11-17 12:26:24","fd252370c17a9971d68c1d4354a03c2e","","Mozilla/5.0 (Windows NT 10.0; Win64; x64) AppleWebKit/537.36 (KHTML, like Gecko) Chrome/107.0.0.0 Safari/537.36 Edg/107.0.1418.42","WebKit","Edge","107.0.1418.42","Windows","10.0","1393","s","","guitar.jpg","1","Filler","true",""
"","","","","","fixation","28095","html-keyboard-response","47","140197","0.0-6.0-0.3","85","1","2022-11-17 12:26:24","fd252370c17a9971d68c1d4354a03c2e","","Mozilla/5.0 (Windows NT 10.0; Win64; x64) AppleWebKit/537.36 (KHTML, like Gecko) Chrome/107.0.0.0 Safari/537.36 Edg/107.0.1418.42","WebKit","Edge","107.0.1418.42","Windows","10.0","null","null","","<p style=""font-size: 48px;"">+</p>","1","Filler","",""
"","","","","","sentence","28095","html-keyboard-response","48","141512","0.0-6.0-1.3","85","1","2022-11-17 12:26:24","fd252370c17a9971d68c1d4354a03c2e","","Mozilla/5.0 (Windows NT 10.0; Win64; x64) AppleWebKit/537.36 (KHTML, like Gecko) Chrome/107.0.0.0 Safari/537.36 Edg/107.0.1418.42","WebKit","Edge","107.0.1418.42","Windows","10.0","1312"," ","","A postman is driving a car","1","Filler","",""
"","","","","","fixation","28095","html-keyboard-response","49","142022","0.0-6.0-2.3","85","1","2022-11-17 12:26:24","fd252370c17a9971d68c1d4354a03c2e","","Mozilla/5.0 (Windows NT 10.0; Win64; x64) AppleWebKit/537.36 (KHTML, like Gecko) Chrome/107.0.0.0 Safari/537.36 Edg/107.0.1418.42","WebKit","Edge","107.0.1418.42","Windows","10.0","null","null","","<p style=""font-size: 48px;"">+</p>","1","Filler","",""
"","","","","","picture","28095","image-keyboard-response","50","142711","0.0-6.0-3.3","85","1","2022-11-17 12:26:24","fd252370c17a9971d68c1d4354a03c2e","","Mozilla/5.0 (Windows NT 10.0; Win64; x64) AppleWebKit/537.36 (KHTML, like Gecko) Chrome/107.0.0.0 Safari/537.36 Edg/107.0.1418.42","WebKit","Edge","107.0.1418.42","Windows","10.0","686","s","","car.jpg","1","Filler","true",""
"","","","","","fixation","28095","html-keyboard-response","51","143722","0.0-6.0-0.4","85","1","2022-11-17 12:26:24","fd252370c17a9971d68c1d4354a03c2e","","Mozilla/5.0 (Windows NT 10.0; Win64; x64) AppleWebKit/537.36 (KHTML, like Gecko) Chrome/107.0.0.0 Safari/537.36 Edg/107.0.1418.42","WebKit","Edge","107.0.1418.42","Windows","10.0","null","null","","<p style=""font-size: 48px;"">+</p>","1","Filler","",""
"","","","","","sentence","28095","html-keyboard-response","52","144899","0.0-6.0-1.4","85","1","2022-11-17 12:26:24","fd252370c17a9971d68c1d4354a03c2e","","Mozilla/5.0 (Windows NT 10.0; Win64; x64) AppleWebKit/537.36 (KHTML, like Gecko) Chrome/107.0.0.0 Safari/537.36 Edg/107.0.1418.42","WebKit","Edge","107.0.1418.42","Windows","10.0","1174"," ","","A teenage girl is playing the piano","1","Filler","",""
"","","","","","fixation","28095","html-keyboard-response","53","145418","0.0-6.0-2.4","85","1","2022-11-17 12:26:24","fd252370c17a9971d68c1d4354a03c2e","","Mozilla/5.0 (Windows NT 10.0; Win64; x64) AppleWebKit/537.36 (KHTML, like Gecko) Chrome/107.0.0.0 Safari/537.36 Edg/107.0.1418.42","WebKit","Edge","107.0.1418.42","Windows","10.0","null","null","","<p style=""font-size: 48px;"">+</p>","1","Filler","",""
"","","","","","picture","28095","image-keyboard-response","54","147030","0.0-6.0-3.4","85","1","2022-11-17 12:26:24","fd252370c17a9971d68c1d4354a03c2e","","Mozilla/5.0 (Windows NT 10.0; Win64; x64) AppleWebKit/537.36 (KHTML, like Gecko) Chrome/107.0.0.0 Safari/537.36 Edg/107.0.1418.42","WebKit","Edge","107.0.1418.42","Windows","10.0","1608","n","","pillow.jpg","1","Filler","true",""
"","","","","","fixation","28095","html-keyboard-response","55","148038","0.0-6.0-0.5","85","1","2022-11-17 12:26:24","fd252370c17a9971d68c1d4354a03c2e","","Mozilla/5.0 (Windows NT 10.0; Win64; x64) AppleWebKit/537.36 (KHTML, like Gecko) Chrome/107.0.0.0 Safari/537.36 Edg/107.0.1418.42","WebKit","Edge","107.0.1418.42","Windows","10.0","null","null","","<p style=""font-size: 48px;"">+</p>","1","Light_Matched","",""
"","","","","","sentence","28095","html-keyboard-response","56","150542","0.0-6.0-1.5","85","1","2022-11-17 12:26:24","fd252370c17a9971d68c1d4354a03c2e","","Mozilla/5.0 (Windows NT 10.0; Win64; x64) AppleWebKit/537.36 (KHTML, like Gecko) Chrome/107.0.0.0 Safari/537.36 Edg/107.0.1418.42","WebKit","Edge","107.0.1418.42","Windows","10.0","2501"," ","","A balloon dropped and touched a donut","1","Light_Matched","",""
"","","","","","fixation","28095","html-keyboard-response","57","151049","0.0-6.0-2.5","85","1","2022-11-17 12:26:24","fd252370c17a9971d68c1d4354a03c2e","","Mozilla/5.0 (Windows NT 10.0; Win64; x64) AppleWebKit/537.36 (KHTML, like Gecko) Chrome/107.0.0.0 Safari/537.36 Edg/107.0.1418.42","WebKit","Edge","107.0.1418.42","Windows","10.0","null","null","","<p style=""font-size: 48px;"">+</p>","1","Light_Matched","",""
"","","","","","picture","28095","image-keyboard-response","58","151740","0.0-6.0-3.5","85","1","2022-11-17 12:26:24","fd252370c17a9971d68c1d4354a03c2e","","Mozilla/5.0 (Windows NT 10.0; Win64; x64) AppleWebKit/537.36 (KHTML, like Gecko) Chrome/107.0.0.0 Safari/537.36 Edg/107.0.1418.42","WebKit","Edge","107.0.1418.42","Windows","10.0","686","s","","donutS.jpg","1","Light_Matched","true",""
"","","","","","fixation","28095","html-keyboard-response","59","152758","0.0-6.0-0.6","85","1","2022-11-17 12:26:24","fd252370c17a9971d68c1d4354a03c2e","","Mozilla/5.0 (Windows NT 10.0; Win64; x64) AppleWebKit/537.36 (KHTML, like Gecko) Chrome/107.0.0.0 Safari/537.36 Edg/107.0.1418.42","WebKit","Edge","107.0.1418.42","Windows","10.0","null","null","","<p style=""font-size: 48px;"">+</p>","1","Light_Contradictory","",""
"","","","","","sentence","28095","html-keyboard-response","60","154193","0.0-6.0-1.6","85","1","2022-11-17 12:26:24","fd252370c17a9971d68c1d4354a03c2e","","Mozilla/5.0 (Windows NT 10.0; Win64; x64) AppleWebKit/537.36 (KHTML, like Gecko) Chrome/107.0.0.0 Safari/537.36 Edg/107.0.1418.42","WebKit","Edge","107.0.1418.42","Windows","10.0","1431"," ","","A balloon dropped and smashed a vase","1","Light_Contradictory","",""
"","","","","","fixation","28095","html-keyboard-response","61","154710","0.0-6.0-2.6","85","1","2022-11-17 12:26:24","fd252370c17a9971d68c1d4354a03c2e","","Mozilla/5.0 (Windows NT 10.0; Win64; x64) AppleWebKit/537.36 (KHTML, like Gecko) Chrome/107.0.0.0 Safari/537.36 Edg/107.0.1418.42","WebKit","Edge","107.0.1418.42","Windows","10.0","null","null","","<p style=""font-size: 48px;"">+</p>","1","Light_Contradictory","",""
"","","","","","picture","28095","image-keyboard-response","62","155536","0.0-6.0-3.6","85","1","2022-11-17 12:26:24","fd252370c17a9971d68c1d4354a03c2e","","Mozilla/5.0 (Windows NT 10.0; Win64; x64) AppleWebKit/537.36 (KHTML, like Gecko) Chrome/107.0.0.0 Safari/537.36 Edg/107.0.1418.42","WebKit","Edge","107.0.1418.42","Windows","10.0","823","s","","vaseS.jpg","1","Light_Contradictory","true",""
"","","","","","fixation","28095","html-keyboard-response","63","156543","0.0-6.0-0.7","85","1","2022-11-17 12:26:24","fd252370c17a9971d68c1d4354a03c2e","","Mozilla/5.0 (Windows NT 10.0; Win64; x64) AppleWebKit/537.36 (KHTML, like Gecko) Chrome/107.0.0.0 Safari/537.36 Edg/107.0.1418.42","WebKit","Edge","107.0.1418.42","Windows","10.0","null","null","","<p style=""font-size: 48px;"">+</p>","1","Filler","",""
"","","","","","sentence","28095","html-keyboard-response","64","158034","0.0-6.0-1.7","85","1","2022-11-17 12:26:24","fd252370c17a9971d68c1d4354a03c2e","","Mozilla/5.0 (Windows NT 10.0; Win64; x64) AppleWebKit/537.36 (KHTML, like Gecko) Chrome/107.0.0.0 Safari/537.36 Edg/107.0.1418.42","WebKit","Edge","107.0.1418.42","Windows","10.0","1487"," ","","An astronaut is putting on a space suit","1","Filler","",""
"","","","","","fixation","28095","html-keyboard-response","65","158541","0.0-6.0-2.7","85","1","2022-11-17 12:26:24","fd252370c17a9971d68c1d4354a03c2e","","Mozilla/5.0 (Windows NT 10.0; Win64; x64) AppleWebKit/537.36 (KHTML, like Gecko) Chrome/107.0.0.0 Safari/537.36 Edg/107.0.1418.42","WebKit","Edge","107.0.1418.42","Windows","10.0","null","null","","<p style=""font-size: 48px;"">+</p>","1","Filler","",""
"","","","","","picture","28095","image-keyboard-response","66","159489","0.0-6.0-3.7","85","1","2022-11-17 12:26:24","fd252370c17a9971d68c1d4354a03c2e","","Mozilla/5.0 (Windows NT 10.0; Win64; x64) AppleWebKit/537.36 (KHTML, like Gecko) Chrome/107.0.0.0 Safari/537.36 Edg/107.0.1418.42","WebKit","Edge","107.0.1418.42","Windows","10.0","943","s","","spacesuit.jpg","1","Filler","true",""
"","","","","","fixation","28095","html-keyboard-response","67","160494","0.0-6.0-0.8","85","1","2022-11-17 12:26:24","fd252370c17a9971d68c1d4354a03c2e","","Mozilla/5.0 (Windows NT 10.0; Win64; x64) AppleWebKit/537.36 (KHTML, like Gecko) Chrome/107.0.0.0 Safari/537.36 Edg/107.0.1418.42","WebKit","Edge","107.0.1418.42","Windows","10.0","null","null","","<p style=""font-size: 48px;"">+</p>","1","Filler","",""
"","","","","","sentence","28095","html-keyboard-response","68","161166","0.0-6.0-1.8","85","1","2022-11-17 12:26:24","fd252370c17a9971d68c1d4354a03c2e","","Mozilla/5.0 (Windows NT 10.0; Win64; x64) AppleWebKit/537.36 (KHTML, like Gecko) Chrome/107.0.0.0 Safari/537.36 Edg/107.0.1418.42","WebKit","Edge","107.0.1418.42","Windows","10.0","668"," ","","A man is shaving his beard","1","Filler","",""
"","","","","","fixation","28095","html-keyboard-response","69","161679","0.0-6.0-2.8","85","1","2022-11-17 12:26:24","fd252370c17a9971d68c1d4354a03c2e","","Mozilla/5.0 (Windows NT 10.0; Win64; x64) AppleWebKit/537.36 (KHTML, like Gecko) Chrome/107.0.0.0 Safari/537.36 Edg/107.0.1418.42","WebKit","Edge","107.0.1418.42","Windows","10.0","null","null","","<p style=""font-size: 48px;"">+</p>","1","Filler","",""
"","","","","","picture","28095","image-keyboard-response","70","163264","0.0-6.0-3.8","85","1","2022-11-17 12:26:24","fd252370c17a9971d68c1d4354a03c2e","","Mozilla/5.0 (Windows NT 10.0; Win64; x64) AppleWebKit/537.36 (KHTML, like Gecko) Chrome/107.0.0.0 Safari/537.36 Edg/107.0.1418.42","WebKit","Edge","107.0.1418.42","Windows","10.0","1581","n","","clock.jpg","1","Filler","true",""
"","","","","","fixation","28095","html-keyboard-response","71","164272","0.0-6.0-0.9","85","1","2022-11-17 12:26:24","fd252370c17a9971d68c1d4354a03c2e","","Mozilla/5.0 (Windows NT 10.0; Win64; x64) AppleWebKit/537.36 (KHTML, like Gecko) Chrome/107.0.0.0 Safari/537.36 Edg/107.0.1418.42","WebKit","Edge","107.0.1418.42","Windows","10.0","null","null","","<p style=""font-size: 48px;"">+</p>","1","Light_Contradictory","",""
"","","","","","sentence","28095","html-keyboard-response","72","166168","0.0-6.0-1.9","85","1","2022-11-17 12:26:24","fd252370c17a9971d68c1d4354a03c2e","","Mozilla/5.0 (Windows NT 10.0; Win64; x64) AppleWebKit/537.36 (KHTML, like Gecko) Chrome/107.0.0.0 Safari/537.36 Edg/107.0.1418.42","WebKit","Edge","107.0.1418.42","Windows","10.0","1893"," ","","A balloon dropped and smashed a piece of sushi","1","Light_Contradictory","",""
"","","","","","fixation","28095","html-keyboard-response","73","166678","0.0-6.0-2.9","85","1","2022-11-17 12:26:24","fd252370c17a9971d68c1d4354a03c2e","","Mozilla/5.0 (Windows NT 10.0; Win64; x64) AppleWebKit/537.36 (KHTML, like Gecko) Chrome/107.0.0.0 Safari/537.36 Edg/107.0.1418.42","WebKit","Edge","107.0.1418.42","Windows","10.0","null","null","","<p style=""font-size: 48px;"">+</p>","1","Light_Contradictory","",""
"","","","","","picture","28095","image-keyboard-response","74","167343","0.0-6.0-3.9","85","1","2022-11-17 12:26:24","fd252370c17a9971d68c1d4354a03c2e","","Mozilla/5.0 (Windows NT 10.0; Win64; x64) AppleWebKit/537.36 (KHTML, like Gecko) Chrome/107.0.0.0 Safari/537.36 Edg/107.0.1418.42","WebKit","Edge","107.0.1418.42","Windows","10.0","660","s","","sushiS.jpg","1","Light_Contradictory","true",""
"","","","","","fixation","28095","html-keyboard-response","75","168350","0.0-6.0-0.10","85","1","2022-11-17 12:26:24","fd252370c17a9971d68c1d4354a03c2e","","Mozilla/5.0 (Windows NT 10.0; Win64; x64) AppleWebKit/537.36 (KHTML, like Gecko) Chrome/107.0.0.0 Safari/537.36 Edg/107.0.1418.42","WebKit","Edge","107.0.1418.42","Windows","10.0","null","null","","<p style=""font-size: 48px;"">+</p>","1","Filler","",""
"","","","","","sentence","28095","html-keyboard-response","76","170073","0.0-6.0-1.10","85","1","2022-11-17 12:26:24","fd252370c17a9971d68c1d4354a03c2e","","Mozilla/5.0 (Windows NT 10.0; Win64; x64) AppleWebKit/537.36 (KHTML, like Gecko) Chrome/107.0.0.0 Safari/537.36 Edg/107.0.1418.42","WebKit","Edge","107.0.1418.42","Windows","10.0","1720"," ","","A watch was placed on the laptop","1","Filler","",""
"","","","","","fixation","28095","html-keyboard-response","77","170591","0.0-6.0-2.10","85","1","2022-11-17 12:26:24","fd252370c17a9971d68c1d4354a03c2e","","Mozilla/5.0 (Windows NT 10.0; Win64; x64) AppleWebKit/537.36 (KHTML, like Gecko) Chrome/107.0.0.0 Safari/537.36 Edg/107.0.1418.42","WebKit","Edge","107.0.1418.42","Windows","10.0","null","null","","<p style=""font-size: 48px;"">+</p>","1","Filler","",""
"","","","","","picture","28095","image-keyboard-response","78","171891","0.0-6.0-3.10","85","1","2022-11-17 12:26:24","fd252370c17a9971d68c1d4354a03c2e","","Mozilla/5.0 (Windows NT 10.0; Win64; x64) AppleWebKit/537.36 (KHTML, like Gecko) Chrome/107.0.0.0 Safari/537.36 Edg/107.0.1418.42","WebKit","Edge","107.0.1418.42","Windows","10.0","1296","n","","bow.jpg","1","Filler","true",""
"","","","","","fixation","28095","html-keyboard-response","79","172898","0.0-6.0-0.11","85","1","2022-11-17 12:26:24","fd252370c17a9971d68c1d4354a03c2e","","Mozilla/5.0 (Windows NT 10.0; Win64; x64) AppleWebKit/537.36 (KHTML, like Gecko) Chrome/107.0.0.0 Safari/537.36 Edg/107.0.1418.42","WebKit","Edge","107.0.1418.42","Windows","10.0","null","null","","<p style=""font-size: 48px;"">+</p>","1","Filler","",""
"","","","","","sentence","28095","html-keyboard-response","80","174571","0.0-6.0-1.11","85","1","2022-11-17 12:26:24","fd252370c17a9971d68c1d4354a03c2e","","Mozilla/5.0 (Windows NT 10.0; Win64; x64) AppleWebKit/537.36 (KHTML, like Gecko) Chrome/107.0.0.0 Safari/537.36 Edg/107.0.1418.42","WebKit","Edge","107.0.1418.42","Windows","10.0","1670"," ","","A cabbage was placed on the table","1","Filler","",""
"","","","","","fixation","28095","html-keyboard-response","81","175078","0.0-6.0-2.11","85","1","2022-11-17 12:26:24","fd252370c17a9971d68c1d4354a03c2e","","Mozilla/5.0 (Windows NT 10.0; Win64; x64) AppleWebKit/537.36 (KHTML, like Gecko) Chrome/107.0.0.0 Safari/537.36 Edg/107.0.1418.42","WebKit","Edge","107.0.1418.42","Windows","10.0","null","null","","<p style=""font-size: 48px;"">+</p>","1","Filler","",""
"","","","","","picture","28095","image-keyboard-response","82","176511","0.0-6.0-3.11","85","1","2022-11-17 12:26:24","fd252370c17a9971d68c1d4354a03c2e","","Mozilla/5.0 (Windows NT 10.0; Win64; x64) AppleWebKit/537.36 (KHTML, like Gecko) Chrome/107.0.0.0 Safari/537.36 Edg/107.0.1418.42","WebKit","Edge","107.0.1418.42","Windows","10.0","1427","n","","ladder.jpg","1","Filler","true",""
"","","","","","fixation","28095","html-keyboard-response","83","177526","0.0-6.0-0.12","85","1","2022-11-17 12:26:24","fd252370c17a9971d68c1d4354a03c2e","","Mozilla/5.0 (Windows NT 10.0; Win64; x64) AppleWebKit/537.36 (KHTML, like Gecko) Chrome/107.0.0.0 Safari/537.36 Edg/107.0.1418.42","WebKit","Edge","107.0.1418.42","Windows","10.0","null","null","","<p style=""font-size: 48px;"">+</p>","1","Heavy_Matched","",""
"","","","","","sentence","28095","html-keyboard-response","84","179122","0.0-6.0-1.12","85","1","2022-11-17 12:26:24","fd252370c17a9971d68c1d4354a03c2e","","Mozilla/5.0 (Windows NT 10.0; Win64; x64) AppleWebKit/537.36 (KHTML, like Gecko) Chrome/107.0.0.0 Safari/537.36 Edg/107.0.1418.42","WebKit","Edge","107.0.1418.42","Windows","10.0","1591"," ","","A bowling ball dropped and smashed a wineglass","1","Heavy_Matched","",""
"","","","","","fixation","28095","html-keyboard-response","85","179632","0.0-6.0-2.12","85","1","2022-11-17 12:26:24","fd252370c17a9971d68c1d4354a03c2e","","Mozilla/5.0 (Windows NT 10.0; Win64; x64) AppleWebKit/537.36 (KHTML, like Gecko) Chrome/107.0.0.0 Safari/537.36 Edg/107.0.1418.42","WebKit","Edge","107.0.1418.42","Windows","10.0","null","null","","<p style=""font-size: 48px;"">+</p>","1","Heavy_Matched","",""
"","","","","","picture","28095","image-keyboard-response","86","180248","0.0-6.0-3.12","85","1","2022-11-17 12:26:24","fd252370c17a9971d68c1d4354a03c2e","","Mozilla/5.0 (Windows NT 10.0; Win64; x64) AppleWebKit/537.36 (KHTML, like Gecko) Chrome/107.0.0.0 Safari/537.36 Edg/107.0.1418.42","WebKit","Edge","107.0.1418.42","Windows","10.0","610","s","","wineglassS.jpg","1","Heavy_Matched","true",""
"","","","","","fixation","28095","html-keyboard-response","87","181262","0.0-6.0-0.13","85","1","2022-11-17 12:26:24","fd252370c17a9971d68c1d4354a03c2e","","Mozilla/5.0 (Windows NT 10.0; Win64; x64) AppleWebKit/537.36 (KHTML, like Gecko) Chrome/107.0.0.0 Safari/537.36 Edg/107.0.1418.42","WebKit","Edge","107.0.1418.42","Windows","10.0","null","null","","<p style=""font-size: 48px;"">+</p>","1","Filler","",""
"","","","","","sentence","28095","html-keyboard-response","88","182787","0.0-6.0-1.13","85","1","2022-11-17 12:26:24","fd252370c17a9971d68c1d4354a03c2e","","Mozilla/5.0 (Windows NT 10.0; Win64; x64) AppleWebKit/537.36 (KHTML, like Gecko) Chrome/107.0.0.0 Safari/537.36 Edg/107.0.1418.42","WebKit","Edge","107.0.1418.42","Windows","10.0","1522"," ","","A remote was placed on the rug","1","Filler","",""
"","","","","","fixation","28095","html-keyboard-response","89","183294","0.0-6.0-2.13","85","1","2022-11-17 12:26:24","fd252370c17a9971d68c1d4354a03c2e","","Mozilla/5.0 (Windows NT 10.0; Win64; x64) AppleWebKit/537.36 (KHTML, like Gecko) Chrome/107.0.0.0 Safari/537.36 Edg/107.0.1418.42","WebKit","Edge","107.0.1418.42","Windows","10.0","null","null","","<p style=""font-size: 48px;"">+</p>","1","Filler","",""
"","","","","","picture","28095","image-keyboard-response","90","184737","0.0-6.0-3.13","85","1","2022-11-17 12:26:24","fd252370c17a9971d68c1d4354a03c2e","","Mozilla/5.0 (Windows NT 10.0; Win64; x64) AppleWebKit/537.36 (KHTML, like Gecko) Chrome/107.0.0.0 Safari/537.36 Edg/107.0.1418.42","WebKit","Edge","107.0.1418.42","Windows","10.0","1437","n","","CD.jpg","1","Filler","true",""
"","","","","","fixation","28095","html-keyboard-response","91","185763","0.0-6.0-0.14","85","1","2022-11-17 12:26:24","fd252370c17a9971d68c1d4354a03c2e","","Mozilla/5.0 (Windows NT 10.0; Win64; x64) AppleWebKit/537.36 (KHTML, like Gecko) Chrome/107.0.0.0 Safari/537.36 Edg/107.0.1418.42","WebKit","Edge","107.0.1418.42","Windows","10.0","null","null","","<p style=""font-size: 48px;"">+</p>","1","Heavy_Contradictory","",""
"","","","","","sentence","28095","html-keyboard-response","92","189402","0.0-6.0-1.14","85","1","2022-11-17 12:26:24","fd252370c17a9971d68c1d4354a03c2e","","Mozilla/5.0 (Windows NT 10.0; Win64; x64) AppleWebKit/537.36 (KHTML, like Gecko) Chrome/107.0.0.0 Safari/537.36 Edg/107.0.1418.42","WebKit","Edge","107.0.1418.42","Windows","10.0","3635"," ","","A bowling ball dropped and touched an egg flan","1","Heavy_Contradictory","",""
"","","","","","fixation","28095","html-keyboard-response","93","189914","0.0-6.0-2.14","85","1","2022-11-17 12:26:24","fd252370c17a9971d68c1d4354a03c2e","","Mozilla/5.0 (Windows NT 10.0; Win64; x64) AppleWebKit/537.36 (KHTML, like Gecko) Chrome/107.0.0.0 Safari/537.36 Edg/107.0.1418.42","WebKit","Edge","107.0.1418.42","Windows","10.0","null","null","","<p style=""font-size: 48px;"">+</p>","1","Heavy_Contradictory","",""
"","","","","","picture","28095","image-keyboard-response","94","191749","0.0-6.0-3.14","85","1","2022-11-17 12:26:24","fd252370c17a9971d68c1d4354a03c2e","","Mozilla/5.0 (Windows NT 10.0; Win64; x64) AppleWebKit/537.36 (KHTML, like Gecko) Chrome/107.0.0.0 Safari/537.36 Edg/107.0.1418.42","WebKit","Edge","107.0.1418.42","Windows","10.0","1830","s","","eggflanS.jpg","1","Heavy_Contradictory","true",""
"","","","","","fixation","28095","html-keyboard-response","95","192760","0.0-6.0-0.15","85","1","2022-11-17 12:26:24","fd252370c17a9971d68c1d4354a03c2e","","Mozilla/5.0 (Windows NT 10.0; Win64; x64) AppleWebKit/537.36 (KHTML, like Gecko) Chrome/107.0.0.0 Safari/537.36 Edg/107.0.1418.42","WebKit","Edge","107.0.1418.42","Windows","10.0","null","null","","<p style=""font-size: 48px;"">+</p>","1","Light_Matched","",""
"","","","","","sentence","28095","html-keyboard-response","96","194618","0.0-6.0-1.15","85","1","2022-11-17 12:26:24","fd252370c17a9971d68c1d4354a03c2e","","Mozilla/5.0 (Windows NT 10.0; Win64; x64) AppleWebKit/537.36 (KHTML, like Gecko) Chrome/107.0.0.0 Safari/537.36 Edg/107.0.1418.42","WebKit","Edge","107.0.1418.42","Windows","10.0","1853"," ","","A balloon dropped and touched a light bulb","1","Light_Matched","",""
"","","","","","fixation","28095","html-keyboard-response","97","195132","0.0-6.0-2.15","85","1","2022-11-17 12:26:24","fd252370c17a9971d68c1d4354a03c2e","","Mozilla/5.0 (Windows NT 10.0; Win64; x64) AppleWebKit/537.36 (KHTML, like Gecko) Chrome/107.0.0.0 Safari/537.36 Edg/107.0.1418.42","WebKit","Edge","107.0.1418.42","Windows","10.0","null","null","","<p style=""font-size: 48px;"">+</p>","1","Light_Matched","",""
"","","","","","picture","28095","image-keyboard-response","98","196055","0.0-6.0-3.15","85","1","2022-11-17 12:26:24","fd252370c17a9971d68c1d4354a03c2e","","Mozilla/5.0 (Windows NT 10.0; Win64; x64) AppleWebKit/537.36 (KHTML, like Gecko) Chrome/107.0.0.0 Safari/537.36 Edg/107.0.1418.42","WebKit","Edge","107.0.1418.42","Windows","10.0","917","s","","lampS.jpg","1","Light_Matched","true",""
"","","","","","fixation","28095","html-keyboard-response","99","197064","0.0-6.0-0.16","85","1","2022-11-17 12:26:24","fd252370c17a9971d68c1d4354a03c2e","","Mozilla/5.0 (Windows NT 10.0; Win64; x64) AppleWebKit/537.36 (KHTML, like Gecko) Chrome/107.0.0.0 Safari/537.36 Edg/107.0.1418.42","WebKit","Edge","107.0.1418.42","Windows","10.0","null","null","","<p style=""font-size: 48px;"">+</p>","1","Light_Matched","",""
"","","","","","sentence","28095","html-keyboard-response","100","198702","0.0-6.0-1.16","85","1","2022-11-17 12:26:24","fd252370c17a9971d68c1d4354a03c2e","","Mozilla/5.0 (Windows NT 10.0; Win64; x64) AppleWebKit/537.36 (KHTML, like Gecko) Chrome/107.0.0.0 Safari/537.36 Edg/107.0.1418.42","WebKit","Edge","107.0.1418.42","Windows","10.0","1633"," ","","A balloon dropped and touched a chocolate muffin","1","Light_Matched","",""
"","","","","","fixation","28095","html-keyboard-response","101","199215","0.0-6.0-2.16","85","1","2022-11-17 12:26:24","fd252370c17a9971d68c1d4354a03c2e","","Mozilla/5.0 (Windows NT 10.0; Win64; x64) AppleWebKit/537.36 (KHTML, like Gecko) Chrome/107.0.0.0 Safari/537.36 Edg/107.0.1418.42","WebKit","Edge","107.0.1418.42","Windows","10.0","null","null","","<p style=""font-size: 48px;"">+</p>","1","Light_Matched","",""
"","","","","","picture","28095","image-keyboard-response","102","199974","0.0-6.0-3.16","85","1","2022-11-17 12:26:24","fd252370c17a9971d68c1d4354a03c2e","","Mozilla/5.0 (Windows NT 10.0; Win64; x64) AppleWebKit/537.36 (KHTML, like Gecko) Chrome/107.0.0.0 Safari/537.36 Edg/107.0.1418.42","WebKit","Edge","107.0.1418.42","Windows","10.0","753","s","","muffinS.jpg","1","Light_Matched","true",""
"","","","","","fixation","28095","html-keyboard-response","103","200985","0.0-6.0-0.17","85","1","2022-11-17 12:26:24","fd252370c17a9971d68c1d4354a03c2e","","Mozilla/5.0 (Windows NT 10.0; Win64; x64) AppleWebKit/537.36 (KHTML, like Gecko) Chrome/107.0.0.0 Safari/537.36 Edg/107.0.1418.42","WebKit","Edge","107.0.1418.42","Windows","10.0","null","null","","<p style=""font-size: 48px;"">+</p>","1","Filler","",""
"","","","","","sentence","28095","html-keyboard-response","104","202766","0.0-6.0-1.17","85","1","2022-11-17 12:26:24","fd252370c17a9971d68c1d4354a03c2e","","Mozilla/5.0 (Windows NT 10.0; Win64; x64) AppleWebKit/537.36 (KHTML, like Gecko) Chrome/107.0.0.0 Safari/537.36 Edg/107.0.1418.42","WebKit","Edge","107.0.1418.42","Windows","10.0","1776"," ","","An owl is sitting on the branch","1","Filler","",""
"","","","","","fixation","28095","html-keyboard-response","105","203275","0.0-6.0-2.17","85","1","2022-11-17 12:26:24","fd252370c17a9971d68c1d4354a03c2e","","Mozilla/5.0 (Windows NT 10.0; Win64; x64) AppleWebKit/537.36 (KHTML, like Gecko) Chrome/107.0.0.0 Safari/537.36 Edg/107.0.1418.42","WebKit","Edge","107.0.1418.42","Windows","10.0","null","null","","<p style=""font-size: 48px;"">+</p>","1","Filler","",""
"","","","","","picture","28095","image-keyboard-response","106","204926","0.0-6.0-3.17","85","1","2022-11-17 12:26:24","fd252370c17a9971d68c1d4354a03c2e","","Mozilla/5.0 (Windows NT 10.0; Win64; x64) AppleWebKit/537.36 (KHTML, like Gecko) Chrome/107.0.0.0 Safari/537.36 Edg/107.0.1418.42","WebKit","Edge","107.0.1418.42","Windows","10.0","1645","n","","rubberduck.jpg","1","Filler","true",""
"","","","","","fixation","28095","html-keyboard-response","107","205938","0.0-6.0-0.18","85","1","2022-11-17 12:26:24","fd252370c17a9971d68c1d4354a03c2e","","Mozilla/5.0 (Windows NT 10.0; Win64; x64) AppleWebKit/537.36 (KHTML, like Gecko) Chrome/107.0.0.0 Safari/537.36 Edg/107.0.1418.42","WebKit","Edge","107.0.1418.42","Windows","10.0","null","null","","<p style=""font-size: 48px;"">+</p>","1","Filler","",""
"","","","","","sentence","28095","html-keyboard-response","108","207290","0.0-6.0-1.18","85","1","2022-11-17 12:26:24","fd252370c17a9971d68c1d4354a03c2e","","Mozilla/5.0 (Windows NT 10.0; Win64; x64) AppleWebKit/537.36 (KHTML, like Gecko) Chrome/107.0.0.0 Safari/537.36 Edg/107.0.1418.42","WebKit","Edge","107.0.1418.42","Windows","10.0","1347"," ","","A pilot is reading a book","1","Filler","",""
"","","","","","fixation","28095","html-keyboard-response","109","207800","0.0-6.0-2.18","85","1","2022-11-17 12:26:24","fd252370c17a9971d68c1d4354a03c2e","","Mozilla/5.0 (Windows NT 10.0; Win64; x64) AppleWebKit/537.36 (KHTML, like Gecko) Chrome/107.0.0.0 Safari/537.36 Edg/107.0.1418.42","WebKit","Edge","107.0.1418.42","Windows","10.0","null","null","","<p style=""font-size: 48px;"">+</p>","1","Filler","",""
"","","","","","picture","28095","image-keyboard-response","110","208965","0.0-6.0-3.18","85","1","2022-11-17 12:26:24","fd252370c17a9971d68c1d4354a03c2e","","Mozilla/5.0 (Windows NT 10.0; Win64; x64) AppleWebKit/537.36 (KHTML, like Gecko) Chrome/107.0.0.0 Safari/537.36 Edg/107.0.1418.42","WebKit","Edge","107.0.1418.42","Windows","10.0","1158","n","","spoon.jpg","1","Filler","true",""
"","","","","","fixation","28095","html-keyboard-response","111","209974","0.0-6.0-0.19","85","1","2022-11-17 12:26:24","fd252370c17a9971d68c1d4354a03c2e","","Mozilla/5.0 (Windows NT 10.0; Win64; x64) AppleWebKit/537.36 (KHTML, like Gecko) Chrome/107.0.0.0 Safari/537.36 Edg/107.0.1418.42","WebKit","Edge","107.0.1418.42","Windows","10.0","null","null","","<p style=""font-size: 48px;"">+</p>","1","Light_Contradictory","",""
"","","","","","sentence","28095","html-keyboard-response","112","211805","0.0-6.0-1.19","85","1","2022-11-17 12:26:24","fd252370c17a9971d68c1d4354a03c2e","","Mozilla/5.0 (Windows NT 10.0; Win64; x64) AppleWebKit/537.36 (KHTML, like Gecko) Chrome/107.0.0.0 Safari/537.36 Edg/107.0.1418.42","WebKit","Edge","107.0.1418.42","Windows","10.0","1826"," ","","A balloon dropped and smashed a tile","1","Light_Contradictory","",""
"","","","","","fixation","28095","html-keyboard-response","113","212318","0.0-6.0-2.19","85","1","2022-11-17 12:26:24","fd252370c17a9971d68c1d4354a03c2e","","Mozilla/5.0 (Windows NT 10.0; Win64; x64) AppleWebKit/537.36 (KHTML, like Gecko) Chrome/107.0.0.0 Safari/537.36 Edg/107.0.1418.42","WebKit","Edge","107.0.1418.42","Windows","10.0","null","null","","<p style=""font-size: 48px;"">+</p>","1","Light_Contradictory","",""
"","","","","","picture","28095","image-keyboard-response","114","213254","0.0-6.0-3.19","85","1","2022-11-17 12:26:24","fd252370c17a9971d68c1d4354a03c2e","","Mozilla/5.0 (Windows NT 10.0; Win64; x64) AppleWebKit/537.36 (KHTML, like Gecko) Chrome/107.0.0.0 Safari/537.36 Edg/107.0.1418.42","WebKit","Edge","107.0.1418.42","Windows","10.0","929","s","","tileS.jpg","1","Light_Contradictory","true",""
"","","","","","fixation","28095","html-keyboard-response","115","214271","0.0-6.0-0.20","85","1","2022-11-17 12:26:24","fd252370c17a9971d68c1d4354a03c2e","","Mozilla/5.0 (Windows NT 10.0; Win64; x64) AppleWebKit/537.36 (KHTML, like Gecko) Chrome/107.0.0.0 Safari/537.36 Edg/107.0.1418.42","WebKit","Edge","107.0.1418.42","Windows","10.0","null","null","","<p style=""font-size: 48px;"">+</p>","1","Filler","",""
"","","","","","sentence","28095","html-keyboard-response","116","215654","0.0-6.0-1.20","85","1","2022-11-17 12:26:24","fd252370c17a9971d68c1d4354a03c2e","","Mozilla/5.0 (Windows NT 10.0; Win64; x64) AppleWebKit/537.36 (KHTML, like Gecko) Chrome/107.0.0.0 Safari/537.36 Edg/107.0.1418.42","WebKit","Edge","107.0.1418.42","Windows","10.0","1378"," ","","A photographer is taking a photo of a lion","1","Filler","",""
"","","","","","fixation","28095","html-keyboard-response","117","216176","0.0-6.0-2.20","85","1","2022-11-17 12:26:24","fd252370c17a9971d68c1d4354a03c2e","","Mozilla/5.0 (Windows NT 10.0; Win64; x64) AppleWebKit/537.36 (KHTML, like Gecko) Chrome/107.0.0.0 Safari/537.36 Edg/107.0.1418.42","WebKit","Edge","107.0.1418.42","Windows","10.0","null","null","","<p style=""font-size: 48px;"">+</p>","1","Filler","",""
"","","","","","picture","28095","image-keyboard-response","118","216671","0.0-6.0-3.20","85","1","2022-11-17 12:26:24","fd252370c17a9971d68c1d4354a03c2e","","Mozilla/5.0 (Windows NT 10.0; Win64; x64) AppleWebKit/537.36 (KHTML, like Gecko) Chrome/107.0.0.0 Safari/537.36 Edg/107.0.1418.42","WebKit","Edge","107.0.1418.42","Windows","10.0","489","s","","lion.jpg","1","Filler","true",""
"","","","","","fixation","28095","html-keyboard-response","119","217678","0.0-6.0-0.21","85","1","2022-11-17 12:26:24","fd252370c17a9971d68c1d4354a03c2e","","Mozilla/5.0 (Windows NT 10.0; Win64; x64) AppleWebKit/537.36 (KHTML, like Gecko) Chrome/107.0.0.0 Safari/537.36 Edg/107.0.1418.42","WebKit","Edge","107.0.1418.42","Windows","10.0","null","null","","<p style=""font-size: 48px;"">+</p>","1","Filler","",""
"","","","","","sentence","28095","html-keyboard-response","120","218978","0.0-6.0-1.21","85","1","2022-11-17 12:26:24","fd252370c17a9971d68c1d4354a03c2e","","Mozilla/5.0 (Windows NT 10.0; Win64; x64) AppleWebKit/537.36 (KHTML, like Gecko) Chrome/107.0.0.0 Safari/537.36 Edg/107.0.1418.42","WebKit","Edge","107.0.1418.42","Windows","10.0","1294"," ","","A panda is resting on a tree","1","Filler","",""
"","","","","","fixation","28095","html-keyboard-response","121","219488","0.0-6.0-2.21","85","1","2022-11-17 12:26:24","fd252370c17a9971d68c1d4354a03c2e","","Mozilla/5.0 (Windows NT 10.0; Win64; x64) AppleWebKit/537.36 (KHTML, like Gecko) Chrome/107.0.0.0 Safari/537.36 Edg/107.0.1418.42","WebKit","Edge","107.0.1418.42","Windows","10.0","null","null","","<p style=""font-size: 48px;"">+</p>","1","Filler","",""
"","","","","","picture","28095","image-keyboard-response","122","220646","0.0-6.0-3.21","85","1","2022-11-17 12:26:24","fd252370c17a9971d68c1d4354a03c2e","","Mozilla/5.0 (Windows NT 10.0; Win64; x64) AppleWebKit/537.36 (KHTML, like Gecko) Chrome/107.0.0.0 Safari/537.36 Edg/107.0.1418.42","WebKit","Edge","107.0.1418.42","Windows","10.0","1151","n","","dollar.jpg","1","Filler","true",""
"","","","","","fixation","28095","html-keyboard-response","123","221661","0.0-6.0-0.22","85","1","2022-11-17 12:26:24","fd252370c17a9971d68c1d4354a03c2e","","Mozilla/5.0 (Windows NT 10.0; Win64; x64) AppleWebKit/537.36 (KHTML, like Gecko) Chrome/107.0.0.0 Safari/537.36 Edg/107.0.1418.42","WebKit","Edge","107.0.1418.42","Windows","10.0","null","null","","<p style=""font-size: 48px;"">+</p>","1","Filler","",""
"","","","","","sentence","28095","html-keyboard-response","124","222659","0.0-6.0-1.22","85","1","2022-11-17 12:26:24","fd252370c17a9971d68c1d4354a03c2e","","Mozilla/5.0 (Windows NT 10.0; Win64; x64) AppleWebKit/537.36 (KHTML, like Gecko) Chrome/107.0.0.0 Safari/537.36 Edg/107.0.1418.42","WebKit","Edge","107.0.1418.42","Windows","10.0","992"," ","","A woman is paying with a debit card","1","Filler","",""
"","","","","","fixation","28095","html-keyboard-response","125","223169","0.0-6.0-2.22","85","1","2022-11-17 12:26:24","fd252370c17a9971d68c1d4354a03c2e","","Mozilla/5.0 (Windows NT 10.0; Win64; x64) AppleWebKit/537.36 (KHTML, like Gecko) Chrome/107.0.0.0 Safari/537.36 Edg/107.0.1418.42","WebKit","Edge","107.0.1418.42","Windows","10.0","null","null","","<p style=""font-size: 48px;"">+</p>","1","Filler","",""
"","","","","","picture","28095","image-keyboard-response","126","224741","0.0-6.0-3.22","85","1","2022-11-17 12:26:24","fd252370c17a9971d68c1d4354a03c2e","","Mozilla/5.0 (Windows NT 10.0; Win64; x64) AppleWebKit/537.36 (KHTML, like Gecko) Chrome/107.0.0.0 Safari/537.36 Edg/107.0.1418.42","WebKit","Edge","107.0.1418.42","Windows","10.0","1565","n","","papercup.jpg","1","Filler","true",""
"","","","","","fixation","28095","html-keyboard-response","127","225752","0.0-6.0-0.23","85","1","2022-11-17 12:26:24","fd252370c17a9971d68c1d4354a03c2e","","Mozilla/5.0 (Windows NT 10.0; Win64; x64) AppleWebKit/537.36 (KHTML, like Gecko) Chrome/107.0.0.0 Safari/537.36 Edg/107.0.1418.42","WebKit","Edge","107.0.1418.42","Windows","10.0","null","null","","<p style=""font-size: 48px;"">+</p>","1","Light_Contradictory","",""
"","","","","","sentence","28095","html-keyboard-response","128","226976","0.0-6.0-1.23","85","1","2022-11-17 12:26:24","fd252370c17a9971d68c1d4354a03c2e","","Mozilla/5.0 (Windows NT 10.0; Win64; x64) AppleWebKit/537.36 (KHTML, like Gecko) Chrome/107.0.0.0 Safari/537.36 Edg/107.0.1418.42","WebKit","Edge","107.0.1418.42","Windows","10.0","1219"," ","","A balloon dropped and smashed a strawberry","1","Light_Contradictory","",""
"","","","","","fixation","28095","html-keyboard-response","129","227488","0.0-6.0-2.23","85","1","2022-11-17 12:26:24","fd252370c17a9971d68c1d4354a03c2e","","Mozilla/5.0 (Windows NT 10.0; Win64; x64) AppleWebKit/537.36 (KHTML, like Gecko) Chrome/107.0.0.0 Safari/537.36 Edg/107.0.1418.42","WebKit","Edge","107.0.1418.42","Windows","10.0","null","null","","<p style=""font-size: 48px;"">+</p>","1","Light_Contradictory","",""
"","","","","","picture","28095","image-keyboard-response","130","227975","0.0-6.0-3.23","85","1","2022-11-17 12:26:24","fd252370c17a9971d68c1d4354a03c2e","","Mozilla/5.0 (Windows NT 10.0; Win64; x64) AppleWebKit/537.36 (KHTML, like Gecko) Chrome/107.0.0.0 Safari/537.36 Edg/107.0.1418.42","WebKit","Edge","107.0.1418.42","Windows","10.0","481","s","","strawberryS.jpg","1","Light_Contradictory","true",""
"","","","","","fixation","28095","html-keyboard-response","131","228997","0.0-6.0-0.24","85","1","2022-11-17 12:26:24","fd252370c17a9971d68c1d4354a03c2e","","Mozilla/5.0 (Windows NT 10.0; Win64; x64) AppleWebKit/537.36 (KHTML, like Gecko) Chrome/107.0.0.0 Safari/537.36 Edg/107.0.1418.42","WebKit","Edge","107.0.1418.42","Windows","10.0","null","null","","<p style=""font-size: 48px;"">+</p>","1","Filler","",""
"","","","","","sentence","28095","html-keyboard-response","132","229786","0.0-6.0-1.24","85","1","2022-11-17 12:26:24","fd252370c17a9971d68c1d4354a03c2e","","Mozilla/5.0 (Windows NT 10.0; Win64; x64) AppleWebKit/537.36 (KHTML, like Gecko) Chrome/107.0.0.0 Safari/537.36 Edg/107.0.1418.42","WebKit","Edge","107.0.1418.42","Windows","10.0","783"," ","","A giraffe is playing with a zebra","1","Filler","",""
"","","","","","fixation","28095","html-keyboard-response","133","230299","0.0-6.0-2.24","85","1","2022-11-17 12:26:24","fd252370c17a9971d68c1d4354a03c2e","","Mozilla/5.0 (Windows NT 10.0; Win64; x64) AppleWebKit/537.36 (KHTML, like Gecko) Chrome/107.0.0.0 Safari/537.36 Edg/107.0.1418.42","WebKit","Edge","107.0.1418.42","Windows","10.0","null","null","","<p style=""font-size: 48px;"">+</p>","1","Filler","",""
"","","","","","picture","28095","image-keyboard-response","134","231373","0.0-6.0-3.24","85","1","2022-11-17 12:26:24","fd252370c17a9971d68c1d4354a03c2e","","Mozilla/5.0 (Windows NT 10.0; Win64; x64) AppleWebKit/537.36 (KHTML, like Gecko) Chrome/107.0.0.0 Safari/537.36 Edg/107.0.1418.42","WebKit","Edge","107.0.1418.42","Windows","10.0","1068","n","","wallet.jpg","1","Filler","true",""
"","","","","","fixation","28095","html-keyboard-response","135","232387","0.0-6.0-0.25","85","1","2022-11-17 12:26:24","fd252370c17a9971d68c1d4354a03c2e","","Mozilla/5.0 (Windows NT 10.0; Win64; x64) AppleWebKit/537.36 (KHTML, like Gecko) Chrome/107.0.0.0 Safari/537.36 Edg/107.0.1418.42","WebKit","Edge","107.0.1418.42","Windows","10.0","null","null","","<p style=""font-size: 48px;"">+</p>","1","Filler","",""
"","","","","","sentence","28095","html-keyboard-response","136","233307","0.0-6.0-1.25","85","1","2022-11-17 12:26:24","fd252370c17a9971d68c1d4354a03c2e","","Mozilla/5.0 (Windows NT 10.0; Win64; x64) AppleWebKit/537.36 (KHTML, like Gecko) Chrome/107.0.0.0 Safari/537.36 Edg/107.0.1418.42","WebKit","Edge","107.0.1418.42","Windows","10.0","914"," ","","A student is writing on a board","1","Filler","",""
"","","","","","fixation","28095","html-keyboard-response","137","233818","0.0-6.0-2.25","85","1","2022-11-17 12:26:24","fd252370c17a9971d68c1d4354a03c2e","","Mozilla/5.0 (Windows NT 10.0; Win64; x64) AppleWebKit/537.36 (KHTML, like Gecko) Chrome/107.0.0.0 Safari/537.36 Edg/107.0.1418.42","WebKit","Edge","107.0.1418.42","Windows","10.0","null","null","","<p style=""font-size: 48px;"">+</p>","1","Filler","",""
"","","","","","picture","28095","image-keyboard-response","138","234754","0.0-6.0-3.25","85","1","2022-11-17 12:26:24","fd252370c17a9971d68c1d4354a03c2e","","Mozilla/5.0 (Windows NT 10.0; Win64; x64) AppleWebKit/537.36 (KHTML, like Gecko) Chrome/107.0.0.0 Safari/537.36 Edg/107.0.1418.42","WebKit","Edge","107.0.1418.42","Windows","10.0","931","n","","owl.jpg","1","Filler","true",""
"","","","","","fixation","28095","html-keyboard-response","139","235775","0.0-6.0-0.26","85","1","2022-11-17 12:26:24","fd252370c17a9971d68c1d4354a03c2e","","Mozilla/5.0 (Windows NT 10.0; Win64; x64) AppleWebKit/537.36 (KHTML, like Gecko) Chrome/107.0.0.0 Safari/537.36 Edg/107.0.1418.42","WebKit","Edge","107.0.1418.42","Windows","10.0","null","null","","<p style=""font-size: 48px;"">+</p>","1","Filler","",""
"","","","","","sentence","28095","html-keyboard-response","140","235912","0.0-6.0-1.26","85","1","2022-11-17 12:26:24","fd252370c17a9971d68c1d4354a03c2e","","Mozilla/5.0 (Windows NT 10.0; Win64; x64) AppleWebKit/537.36 (KHTML, like Gecko) Chrome/107.0.0.0 Safari/537.36 Edg/107.0.1418.42","WebKit","Edge","107.0.1418.42","Windows","10.0","133"," ","","A pencil was placed on the shoe","1","Filler","",""
"","","","","","fixation","28095","html-keyboard-response","141","236418","0.0-6.0-2.26","85","1","2022-11-17 12:26:24","fd252370c17a9971d68c1d4354a03c2e","","Mozilla/5.0 (Windows NT 10.0; Win64; x64) AppleWebKit/537.36 (KHTML, like Gecko) Chrome/107.0.0.0 Safari/537.36 Edg/107.0.1418.42","WebKit","Edge","107.0.1418.42","Windows","10.0","null","null","","<p style=""font-size: 48px;"">+</p>","1","Filler","",""
"","","","","","picture","28095","image-keyboard-response","142","238647","0.0-6.0-3.26","85","1","2022-11-17 12:26:24","fd252370c17a9971d68c1d4354a03c2e","","Mozilla/5.0 (Windows NT 10.0; Win64; x64) AppleWebKit/537.36 (KHTML, like Gecko) Chrome/107.0.0.0 Safari/537.36 Edg/107.0.1418.42","WebKit","Edge","107.0.1418.42","Windows","10.0","2224","n","","perfume.jpg","1","Filler","true",""
"","","","","","fixation","28095","html-keyboard-response","143","239661","0.0-6.0-0.27","85","1","2022-11-17 12:26:24","fd252370c17a9971d68c1d4354a03c2e","","Mozilla/5.0 (Windows NT 10.0; Win64; x64) AppleWebKit/537.36 (KHTML, like Gecko) Chrome/107.0.0.0 Safari/537.36 Edg/107.0.1418.42","WebKit","Edge","107.0.1418.42","Windows","10.0","null","null","","<p style=""font-size: 48px;"">+</p>","1","Filler","",""
"","","","","","sentence","28095","html-keyboard-response","144","241374","0.0-6.0-1.27","85","1","2022-11-17 12:26:24","fd252370c17a9971d68c1d4354a03c2e","","Mozilla/5.0 (Windows NT 10.0; Win64; x64) AppleWebKit/537.36 (KHTML, like Gecko) Chrome/107.0.0.0 Safari/537.36 Edg/107.0.1418.42","WebKit","Edge","107.0.1418.42","Windows","10.0","1708"," ","","A ring was placed on the newspaper","1","Filler","",""
"","","","","","fixation","28095","html-keyboard-response","145","241887","0.0-6.0-2.27","85","1","2022-11-17 12:26:24","fd252370c17a9971d68c1d4354a03c2e","","Mozilla/5.0 (Windows NT 10.0; Win64; x64) AppleWebKit/537.36 (KHTML, like Gecko) Chrome/107.0.0.0 Safari/537.36 Edg/107.0.1418.42","WebKit","Edge","107.0.1418.42","Windows","10.0","null","null","","<p style=""font-size: 48px;"">+</p>","1","Filler","",""
"","","","","","picture","28095","image-keyboard-response","146","242870","0.0-6.0-3.27","85","1","2022-11-17 12:26:24","fd252370c17a9971d68c1d4354a03c2e","","Mozilla/5.0 (Windows NT 10.0; Win64; x64) AppleWebKit/537.36 (KHTML, like Gecko) Chrome/107.0.0.0 Safari/537.36 Edg/107.0.1418.42","WebKit","Edge","107.0.1418.42","Windows","10.0","976","n","","cat.jpg","1","Filler","true",""
"","","","","","fixation","28095","html-keyboard-response","147","243884","0.0-6.0-0.28","85","1","2022-11-17 12:26:24","fd252370c17a9971d68c1d4354a03c2e","","Mozilla/5.0 (Windows NT 10.0; Win64; x64) AppleWebKit/537.36 (KHTML, like Gecko) Chrome/107.0.0.0 Safari/537.36 Edg/107.0.1418.42","WebKit","Edge","107.0.1418.42","Windows","10.0","null","null","","<p style=""font-size: 48px;"">+</p>","1","Filler","",""
"","","","","","sentence","28095","html-keyboard-response","148","245886","0.0-6.0-1.28","85","1","2022-11-17 12:26:24","fd252370c17a9971d68c1d4354a03c2e","","Mozilla/5.0 (Windows NT 10.0; Win64; x64) AppleWebKit/537.36 (KHTML, like Gecko) Chrome/107.0.0.0 Safari/537.36 Edg/107.0.1418.42","WebKit","Edge","107.0.1418.42","Windows","10.0","1997"," ","","A dentist is drinking a can of cola","1","Filler","",""
"","","","","","fixation","28095","html-keyboard-response","149","246402","0.0-6.0-2.28","85","1","2022-11-17 12:26:24","fd252370c17a9971d68c1d4354a03c2e","","Mozilla/5.0 (Windows NT 10.0; Win64; x64) AppleWebKit/537.36 (KHTML, like Gecko) Chrome/107.0.0.0 Safari/537.36 Edg/107.0.1418.42","WebKit","Edge","107.0.1418.42","Windows","10.0","null","null","","<p style=""font-size: 48px;"">+</p>","1","Filler","",""
"","","","","","picture","28095","image-keyboard-response","150","247480","0.0-6.0-3.28","85","1","2022-11-17 12:26:24","fd252370c17a9971d68c1d4354a03c2e","","Mozilla/5.0 (Windows NT 10.0; Win64; x64) AppleWebKit/537.36 (KHTML, like Gecko) Chrome/107.0.0.0 Safari/537.36 Edg/107.0.1418.42","WebKit","Edge","107.0.1418.42","Windows","10.0","1069","n","","doll.jpg","1","Filler","true",""
"","","","","","fixation","28095","html-keyboard-response","151","248496","0.0-6.0-0.29","85","1","2022-11-17 12:26:24","fd252370c17a9971d68c1d4354a03c2e","","Mozilla/5.0 (Windows NT 10.0; Win64; x64) AppleWebKit/537.36 (KHTML, like Gecko) Chrome/107.0.0.0 Safari/537.36 Edg/107.0.1418.42","WebKit","Edge","107.0.1418.42","Windows","10.0","null","null","","<p style=""font-size: 48px;"">+</p>","1","Light_Contradictory","",""
"","","","","","sentence","28095","html-keyboard-response","152","249871","0.0-6.0-1.29","85","1","2022-11-17 12:26:24","fd252370c17a9971d68c1d4354a03c2e","","Mozilla/5.0 (Windows NT 10.0; Win64; x64) AppleWebKit/537.36 (KHTML, like Gecko) Chrome/107.0.0.0 Safari/537.36 Edg/107.0.1418.42","WebKit","Edge","107.0.1418.42","Windows","10.0","1367"," ","","A balloon dropped and smashed a tomato","1","Light_Contradictory","",""
"","","","","","fixation","28095","html-keyboard-response","153","250382","0.0-6.0-2.29","85","1","2022-11-17 12:26:24","fd252370c17a9971d68c1d4354a03c2e","","Mozilla/5.0 (Windows NT 10.0; Win64; x64) AppleWebKit/537.36 (KHTML, like Gecko) Chrome/107.0.0.0 Safari/537.36 Edg/107.0.1418.42","WebKit","Edge","107.0.1418.42","Windows","10.0","null","null","","<p style=""font-size: 48px;"">+</p>","1","Light_Contradictory","",""
"","","","","","picture","28095","image-keyboard-response","154","251435","0.0-6.0-3.29","85","1","2022-11-17 12:26:24","fd252370c17a9971d68c1d4354a03c2e","","Mozilla/5.0 (Windows NT 10.0; Win64; x64) AppleWebKit/537.36 (KHTML, like Gecko) Chrome/107.0.0.0 Safari/537.36 Edg/107.0.1418.42","WebKit","Edge","107.0.1418.42","Windows","10.0","1045","s","","tomatoS.jpg","1","Light_Contradictory","true",""
"","","","","","fixation","28095","html-keyboard-response","155","252448","0.0-6.0-0.30","85","1","2022-11-17 12:26:24","fd252370c17a9971d68c1d4354a03c2e","","Mozilla/5.0 (Windows NT 10.0; Win64; x64) AppleWebKit/537.36 (KHTML, like Gecko) Chrome/107.0.0.0 Safari/537.36 Edg/107.0.1418.42","WebKit","Edge","107.0.1418.42","Windows","10.0","null","null","","<p style=""font-size: 48px;"">+</p>","1","Heavy_Matched","",""
"","","","","","sentence","28095","html-keyboard-response","156","253674","0.0-6.0-1.30","85","1","2022-11-17 12:26:24","fd252370c17a9971d68c1d4354a03c2e","","Mozilla/5.0 (Windows NT 10.0; Win64; x64) AppleWebKit/537.36 (KHTML, like Gecko) Chrome/107.0.0.0 Safari/537.36 Edg/107.0.1418.42","WebKit","Edge","107.0.1418.42","Windows","10.0","1220"," ","","A bowling ball dropped and smashed a piece of cake","1","Heavy_Matched","",""
"","","","","","fixation","28095","html-keyboard-response","157","254198","0.0-6.0-2.30","85","1","2022-11-17 12:26:24","fd252370c17a9971d68c1d4354a03c2e","","Mozilla/5.0 (Windows NT 10.0; Win64; x64) AppleWebKit/537.36 (KHTML, like Gecko) Chrome/107.0.0.0 Safari/537.36 Edg/107.0.1418.42","WebKit","Edge","107.0.1418.42","Windows","10.0","null","null","","<p style=""font-size: 48px;"">+</p>","1","Heavy_Matched","",""
"","","","","","picture","28095","image-keyboard-response","158","255836","0.0-6.0-3.30","85","1","2022-11-17 12:26:24","fd252370c17a9971d68c1d4354a03c2e","","Mozilla/5.0 (Windows NT 10.0; Win64; x64) AppleWebKit/537.36 (KHTML, like Gecko) Chrome/107.0.0.0 Safari/537.36 Edg/107.0.1418.42","WebKit","Edge","107.0.1418.42","Windows","10.0","1631","s","","cakeS.jpg","1","Heavy_Matched","true",""
"","","","","","fixation","28095","html-keyboard-response","159","256856","0.0-6.0-0.31","85","1","2022-11-17 12:26:24","fd252370c17a9971d68c1d4354a03c2e","","Mozilla/5.0 (Windows NT 10.0; Win64; x64) AppleWebKit/537.36 (KHTML, like Gecko) Chrome/107.0.0.0 Safari/537.36 Edg/107.0.1418.42","WebKit","Edge","107.0.1418.42","Windows","10.0","null","null","","<p style=""font-size: 48px;"">+</p>","1","Heavy_Contradictory","",""
"","","","","","sentence","28095","html-keyboard-response","160","258848","0.0-6.0-1.31","85","1","2022-11-17 12:26:24","fd252370c17a9971d68c1d4354a03c2e","","Mozilla/5.0 (Windows NT 10.0; Win64; x64) AppleWebKit/537.36 (KHTML, like Gecko) Chrome/107.0.0.0 Safari/537.36 Edg/107.0.1418.42","WebKit","Edge","107.0.1418.42","Windows","10.0","1986"," ","","A bowling ball dropped and touched glasses","1","Heavy_Contradictory","",""
"","","","","","fixation","28095","html-keyboard-response","161","259367","0.0-6.0-2.31","85","1","2022-11-17 12:26:24","fd252370c17a9971d68c1d4354a03c2e","","Mozilla/5.0 (Windows NT 10.0; Win64; x64) AppleWebKit/537.36 (KHTML, like Gecko) Chrome/107.0.0.0 Safari/537.36 Edg/107.0.1418.42","WebKit","Edge","107.0.1418.42","Windows","10.0","null","null","","<p style=""font-size: 48px;"">+</p>","1","Heavy_Contradictory","",""
"","","","","","picture","28095","image-keyboard-response","162","259928","0.0-6.0-3.31","85","1","2022-11-17 12:26:24","fd252370c17a9971d68c1d4354a03c2e","","Mozilla/5.0 (Windows NT 10.0; Win64; x64) AppleWebKit/537.36 (KHTML, like Gecko) Chrome/107.0.0.0 Safari/537.36 Edg/107.0.1418.42","WebKit","Edge","107.0.1418.42","Windows","10.0","554","s","","glassesS.jpg","1","Heavy_Contradictory","true",""
"","","","","","fixation","28095","html-keyboard-response","163","260942","0.0-6.0-0.32","85","1","2022-11-17 12:26:24","fd252370c17a9971d68c1d4354a03c2e","","Mozilla/5.0 (Windows NT 10.0; Win64; x64) AppleWebKit/537.36 (KHTML, like Gecko) Chrome/107.0.0.0 Safari/537.36 Edg/107.0.1418.42","WebKit","Edge","107.0.1418.42","Windows","10.0","null","null","","<p style=""font-size: 48px;"">+</p>","1","Filler","",""
"","","","","","sentence","28095","html-keyboard-response","164","262046","0.0-6.0-1.32","85","1","2022-11-17 12:26:24","fd252370c17a9971d68c1d4354a03c2e","","Mozilla/5.0 (Windows NT 10.0; Win64; x64) AppleWebKit/537.36 (KHTML, like Gecko) Chrome/107.0.0.0 Safari/537.36 Edg/107.0.1418.42","WebKit","Edge","107.0.1418.42","Windows","10.0","1097"," ","","A butterfly is sitting on a flower","1","Filler","",""
"","","","","","fixation","28095","html-keyboard-response","165","262554","0.0-6.0-2.32","85","1","2022-11-17 12:26:24","fd252370c17a9971d68c1d4354a03c2e","","Mozilla/5.0 (Windows NT 10.0; Win64; x64) AppleWebKit/537.36 (KHTML, like Gecko) Chrome/107.0.0.0 Safari/537.36 Edg/107.0.1418.42","WebKit","Edge","107.0.1418.42","Windows","10.0","null","null","","<p style=""font-size: 48px;"">+</p>","1","Filler","",""
"","","","","","picture","28095","image-keyboard-response","166","263895","0.0-6.0-3.32","85","1","2022-11-17 12:26:24","fd252370c17a9971d68c1d4354a03c2e","","Mozilla/5.0 (Windows NT 10.0; Win64; x64) AppleWebKit/537.36 (KHTML, like Gecko) Chrome/107.0.0.0 Safari/537.36 Edg/107.0.1418.42","WebKit","Edge","107.0.1418.42","Windows","10.0","1334","n","","soap.jpg","1","Filler","true",""
"","","","","","fixation","28095","html-keyboard-response","167","264910","0.0-6.0-0.33","85","1","2022-11-17 12:26:24","fd252370c17a9971d68c1d4354a03c2e","","Mozilla/5.0 (Windows NT 10.0; Win64; x64) AppleWebKit/537.36 (KHTML, like Gecko) Chrome/107.0.0.0 Safari/537.36 Edg/107.0.1418.42","WebKit","Edge","107.0.1418.42","Windows","10.0","null","null","","<p style=""font-size: 48px;"">+</p>","1","Filler","",""
"","","","","","sentence","28095","html-keyboard-response","168","266664","0.0-6.0-1.33","85","1","2022-11-17 12:26:24","fd252370c17a9971d68c1d4354a03c2e","","Mozilla/5.0 (Windows NT 10.0; Win64; x64) AppleWebKit/537.36 (KHTML, like Gecko) Chrome/107.0.0.0 Safari/537.36 Edg/107.0.1418.42","WebKit","Edge","107.0.1418.42","Windows","10.0","1748"," ","","A needle was placed on the mouse pad","1","Filler","",""
"","","","","","fixation","28095","html-keyboard-response","169","267177","0.0-6.0-2.33","85","1","2022-11-17 12:26:24","fd252370c17a9971d68c1d4354a03c2e","","Mozilla/5.0 (Windows NT 10.0; Win64; x64) AppleWebKit/537.36 (KHTML, like Gecko) Chrome/107.0.0.0 Safari/537.36 Edg/107.0.1418.42","WebKit","Edge","107.0.1418.42","Windows","10.0","null","null","","<p style=""font-size: 48px;"">+</p>","1","Filler","",""
"","","","","","picture","28095","image-keyboard-response","170","268177","0.0-6.0-3.33","85","1","2022-11-17 12:26:24","fd252370c17a9971d68c1d4354a03c2e","","Mozilla/5.0 (Windows NT 10.0; Win64; x64) AppleWebKit/537.36 (KHTML, like Gecko) Chrome/107.0.0.0 Safari/537.36 Edg/107.0.1418.42","WebKit","Edge","107.0.1418.42","Windows","10.0","993","n","","chocolate.jpg","1","Filler","true",""
"","","","","","fixation","28095","html-keyboard-response","171","269197","0.0-6.0-0.34","85","1","2022-11-17 12:26:24","fd252370c17a9971d68c1d4354a03c2e","","Mozilla/5.0 (Windows NT 10.0; Win64; x64) AppleWebKit/537.36 (KHTML, like Gecko) Chrome/107.0.0.0 Safari/537.36 Edg/107.0.1418.42","WebKit","Edge","107.0.1418.42","Windows","10.0","null","null","","<p style=""font-size: 48px;"">+</p>","1","Heavy_Contradictory","",""
"","","","","","sentence","28095","html-keyboard-response","172","269332","0.0-6.0-1.34","85","1","2022-11-17 12:26:24","fd252370c17a9971d68c1d4354a03c2e","","Mozilla/5.0 (Windows NT 10.0; Win64; x64) AppleWebKit/537.36 (KHTML, like Gecko) Chrome/107.0.0.0 Safari/537.36 Edg/107.0.1418.42","WebKit","Edge","107.0.1418.42","Windows","10.0","127"," ","","A bowling ball dropped and touched an iPAD","1","Heavy_Contradictory","",""
"","","","","","fixation","28095","html-keyboard-response","173","269842","0.0-6.0-2.34","85","1","2022-11-17 12:26:24","fd252370c17a9971d68c1d4354a03c2e","","Mozilla/5.0 (Windows NT 10.0; Win64; x64) AppleWebKit/537.36 (KHTML, like Gecko) Chrome/107.0.0.0 Safari/537.36 Edg/107.0.1418.42","WebKit","Edge","107.0.1418.42","Windows","10.0","null","null","","<p style=""font-size: 48px;"">+</p>","1","Heavy_Contradictory","",""
"","","","","","picture","28095","image-keyboard-response","174","270631","0.0-6.0-3.34","85","1","2022-11-17 12:26:24","fd252370c17a9971d68c1d4354a03c2e","","Mozilla/5.0 (Windows NT 10.0; Win64; x64) AppleWebKit/537.36 (KHTML, like Gecko) Chrome/107.0.0.0 Safari/537.36 Edg/107.0.1418.42","WebKit","Edge","107.0.1418.42","Windows","10.0","782","s","","iPadS.jpg","1","Heavy_Contradictory","true",""
"","","","","","fixation","28095","html-keyboard-response","175","271647","0.0-6.0-0.35","85","1","2022-11-17 12:26:24","fd252370c17a9971d68c1d4354a03c2e","","Mozilla/5.0 (Windows NT 10.0; Win64; x64) AppleWebKit/537.36 (KHTML, like Gecko) Chrome/107.0.0.0 Safari/537.36 Edg/107.0.1418.42","WebKit","Edge","107.0.1418.42","Windows","10.0","null","null","","<p style=""font-size: 48px;"">+</p>","1","Heavy_Contradictory","",""
"","","","","","sentence","28095","html-keyboard-response","176","273196","0.0-6.0-1.35","85","1","2022-11-17 12:26:24","fd252370c17a9971d68c1d4354a03c2e","","Mozilla/5.0 (Windows NT 10.0; Win64; x64) AppleWebKit/537.36 (KHTML, like Gecko) Chrome/107.0.0.0 Safari/537.36 Edg/107.0.1418.42","WebKit","Edge","107.0.1418.42","Windows","10.0","1542"," ","","A bowling ball dropped and touched a chocolate ice-cream","1","Heavy_Contradictory","",""
"","","","","","fixation","28095","html-keyboard-response","177","273710","0.0-6.0-2.35","85","1","2022-11-17 12:26:24","fd252370c17a9971d68c1d4354a03c2e","","Mozilla/5.0 (Windows NT 10.0; Win64; x64) AppleWebKit/537.36 (KHTML, like Gecko) Chrome/107.0.0.0 Safari/537.36 Edg/107.0.1418.42","WebKit","Edge","107.0.1418.42","Windows","10.0","null","null","","<p style=""font-size: 48px;"">+</p>","1","Heavy_Contradictory","",""
"","","","","","picture","28095","image-keyboard-response","178","274561","0.0-6.0-3.35","85","1","2022-11-17 12:26:24","fd252370c17a9971d68c1d4354a03c2e","","Mozilla/5.0 (Windows NT 10.0; Win64; x64) AppleWebKit/537.36 (KHTML, like Gecko) Chrome/107.0.0.0 Safari/537.36 Edg/107.0.1418.42","WebKit","Edge","107.0.1418.42","Windows","10.0","843","s","","icecreamS.jpg","1","Heavy_Contradictory","true",""
"","","","","","fixation","28095","html-keyboard-response","179","275575","0.0-6.0-0.36","85","1","2022-11-17 12:26:24","fd252370c17a9971d68c1d4354a03c2e","","Mozilla/5.0 (Windows NT 10.0; Win64; x64) AppleWebKit/537.36 (KHTML, like Gecko) Chrome/107.0.0.0 Safari/537.36 Edg/107.0.1418.42","WebKit","Edge","107.0.1418.42","Windows","10.0","null","null","","<p style=""font-size: 48px;"">+</p>","1","Light_Matched","",""
"","","","","","sentence","28095","html-keyboard-response","180","278060","0.0-6.0-1.36","85","1","2022-11-17 12:26:24","fd252370c17a9971d68c1d4354a03c2e","","Mozilla/5.0 (Windows NT 10.0; Win64; x64) AppleWebKit/537.36 (KHTML, like Gecko) Chrome/107.0.0.0 Safari/537.36 Edg/107.0.1418.42","WebKit","Edge","107.0.1418.42","Windows","10.0","2478"," ","","A balloon dropped and touched an iPhone","1","Light_Matched","",""
"","","","","","fixation","28095","html-keyboard-response","181","278572","0.0-6.0-2.36","85","1","2022-11-17 12:26:24","fd252370c17a9971d68c1d4354a03c2e","","Mozilla/5.0 (Windows NT 10.0; Win64; x64) AppleWebKit/537.36 (KHTML, like Gecko) Chrome/107.0.0.0 Safari/537.36 Edg/107.0.1418.42","WebKit","Edge","107.0.1418.42","Windows","10.0","null","null","","<p style=""font-size: 48px;"">+</p>","1","Light_Matched","",""
"","","","","","picture","28095","image-keyboard-response","182","279265","0.0-6.0-3.36","85","1","2022-11-17 12:26:24","fd252370c17a9971d68c1d4354a03c2e","","Mozilla/5.0 (Windows NT 10.0; Win64; x64) AppleWebKit/537.36 (KHTML, like Gecko) Chrome/107.0.0.0 Safari/537.36 Edg/107.0.1418.42","WebKit","Edge","107.0.1418.42","Windows","10.0","684","s","","iphoneS.png","1","Light_Matched","true",""
"","","","","","fixation","28095","html-keyboard-response","183","280279","0.0-6.0-0.37","85","1","2022-11-17 12:26:24","fd252370c17a9971d68c1d4354a03c2e","","Mozilla/5.0 (Windows NT 10.0; Win64; x64) AppleWebKit/537.36 (KHTML, like Gecko) Chrome/107.0.0.0 Safari/537.36 Edg/107.0.1418.42","WebKit","Edge","107.0.1418.42","Windows","10.0","null","null","","<p style=""font-size: 48px;"">+</p>","1","Filler","",""
"","","","","","sentence","28095","html-keyboard-response","184","282567","0.0-6.0-1.37","85","1","2022-11-17 12:26:24","fd252370c17a9971d68c1d4354a03c2e","","Mozilla/5.0 (Windows NT 10.0; Win64; x64) AppleWebKit/537.36 (KHTML, like Gecko) Chrome/107.0.0.0 Safari/537.36 Edg/107.0.1418.42","WebKit","Edge","107.0.1418.42","Windows","10.0","2282"," ","","An actress is taking a microphone","1","Filler","",""
"","","","","","fixation","28095","html-keyboard-response","185","283080","0.0-6.0-2.37","85","1","2022-11-17 12:26:24","fd252370c17a9971d68c1d4354a03c2e","","Mozilla/5.0 (Windows NT 10.0; Win64; x64) AppleWebKit/537.36 (KHTML, like Gecko) Chrome/107.0.0.0 Safari/537.36 Edg/107.0.1418.42","WebKit","Edge","107.0.1418.42","Windows","10.0","null","null","","<p style=""font-size: 48px;"">+</p>","1","Filler","",""
"","","","","","picture","28095","image-keyboard-response","186","284336","0.0-6.0-3.37","85","1","2022-11-17 12:26:24","fd252370c17a9971d68c1d4354a03c2e","","Mozilla/5.0 (Windows NT 10.0; Win64; x64) AppleWebKit/537.36 (KHTML, like Gecko) Chrome/107.0.0.0 Safari/537.36 Edg/107.0.1418.42","WebKit","Edge","107.0.1418.42","Windows","10.0","1248","n","","pants.jpg","1","Filler","true",""
"","","","","","fixation","28095","html-keyboard-response","187","285357","0.0-6.0-0.38","85","1","2022-11-17 12:26:24","fd252370c17a9971d68c1d4354a03c2e","","Mozilla/5.0 (Windows NT 10.0; Win64; x64) AppleWebKit/537.36 (KHTML, like Gecko) Chrome/107.0.0.0 Safari/537.36 Edg/107.0.1418.42","WebKit","Edge","107.0.1418.42","Windows","10.0","null","null","","<p style=""font-size: 48px;"">+</p>","1","Filler","",""
"","","","","","sentence","28095","html-keyboard-response","188","286454","0.0-6.0-1.38","85","1","2022-11-17 12:26:24","fd252370c17a9971d68c1d4354a03c2e","","Mozilla/5.0 (Windows NT 10.0; Win64; x64) AppleWebKit/537.36 (KHTML, like Gecko) Chrome/107.0.0.0 Safari/537.36 Edg/107.0.1418.42","WebKit","Edge","107.0.1418.42","Windows","10.0","1089"," ","","A man is playing with a cat","1","Filler","",""
"","","","","","fixation","28095","html-keyboard-response","189","286975","0.0-6.0-2.38","85","1","2022-11-17 12:26:24","fd252370c17a9971d68c1d4354a03c2e","","Mozilla/5.0 (Windows NT 10.0; Win64; x64) AppleWebKit/537.36 (KHTML, like Gecko) Chrome/107.0.0.0 Safari/537.36 Edg/107.0.1418.42","WebKit","Edge","107.0.1418.42","Windows","10.0","null","null","","<p style=""font-size: 48px;"">+</p>","1","Filler","",""
"","","","","","picture","28095","image-keyboard-response","190","288298","0.0-6.0-3.38","85","1","2022-11-17 12:26:24","fd252370c17a9971d68c1d4354a03c2e","","Mozilla/5.0 (Windows NT 10.0; Win64; x64) AppleWebKit/537.36 (KHTML, like Gecko) Chrome/107.0.0.0 Safari/537.36 Edg/107.0.1418.42","WebKit","Edge","107.0.1418.42","Windows","10.0","1317","n","","ceramicplate.jpg","1","Filler","true",""
"","","","","","fixation","28095","html-keyboard-response","191","289310","0.0-6.0-0.39","85","1","2022-11-17 12:26:24","fd252370c17a9971d68c1d4354a03c2e","","Mozilla/5.0 (Windows NT 10.0; Win64; x64) AppleWebKit/537.36 (KHTML, like Gecko) Chrome/107.0.0.0 Safari/537.36 Edg/107.0.1418.42","WebKit","Edge","107.0.1418.42","Windows","10.0","null","null","","<p style=""font-size: 48px;"">+</p>","1","Filler","",""
"","","","","","sentence","28095","html-keyboard-response","192","290248","0.0-6.0-1.39","85","1","2022-11-17 12:26:24","fd252370c17a9971d68c1d4354a03c2e","","Mozilla/5.0 (Windows NT 10.0; Win64; x64) AppleWebKit/537.36 (KHTML, like Gecko) Chrome/107.0.0.0 Safari/537.36 Edg/107.0.1418.42","WebKit","Edge","107.0.1418.42","Windows","10.0","931"," ","","A cook is taking a knife","1","Filler","",""
"","","","","","fixation","28095","html-keyboard-response","193","290759","0.0-6.0-2.39","85","1","2022-11-17 12:26:24","fd252370c17a9971d68c1d4354a03c2e","","Mozilla/5.0 (Windows NT 10.0; Win64; x64) AppleWebKit/537.36 (KHTML, like Gecko) Chrome/107.0.0.0 Safari/537.36 Edg/107.0.1418.42","WebKit","Edge","107.0.1418.42","Windows","10.0","null","null","","<p style=""font-size: 48px;"">+</p>","1","Filler","",""
"","","","","","picture","28095","image-keyboard-response","194","291672","0.0-6.0-3.39","85","1","2022-11-17 12:26:24","fd252370c17a9971d68c1d4354a03c2e","","Mozilla/5.0 (Windows NT 10.0; Win64; x64) AppleWebKit/537.36 (KHTML, like Gecko) Chrome/107.0.0.0 Safari/537.36 Edg/107.0.1418.42","WebKit","Edge","107.0.1418.42","Windows","10.0","906","s","","knife.jpg","1","Filler","true",""
"","","","","","fixation","28095","html-keyboard-response","195","292686","0.0-6.0-0.40","85","1","2022-11-17 12:26:24","fd252370c17a9971d68c1d4354a03c2e","","Mozilla/5.0 (Windows NT 10.0; Win64; x64) AppleWebKit/537.36 (KHTML, like Gecko) Chrome/107.0.0.0 Safari/537.36 Edg/107.0.1418.42","WebKit","Edge","107.0.1418.42","Windows","10.0","null","null","","<p style=""font-size: 48px;"">+</p>","1","Filler","",""
"","","","","","sentence","28095","html-keyboard-response","196","293777","0.0-6.0-1.40","85","1","2022-11-17 12:26:24","fd252370c17a9971d68c1d4354a03c2e","","Mozilla/5.0 (Windows NT 10.0; Win64; x64) AppleWebKit/537.36 (KHTML, like Gecko) Chrome/107.0.0.0 Safari/537.36 Edg/107.0.1418.42","WebKit","Edge","107.0.1418.42","Windows","10.0","1083"," ","","A man is boiling potatoes.","1","Filler","",""
"","","","","","fixation","28095","html-keyboard-response","197","294295","0.0-6.0-2.40","85","1","2022-11-17 12:26:24","fd252370c17a9971d68c1d4354a03c2e","","Mozilla/5.0 (Windows NT 10.0; Win64; x64) AppleWebKit/537.36 (KHTML, like Gecko) Chrome/107.0.0.0 Safari/537.36 Edg/107.0.1418.42","WebKit","Edge","107.0.1418.42","Windows","10.0","null","null","","<p style=""font-size: 48px;"">+</p>","1","Filler","",""
"","","","","","picture","28095","image-keyboard-response","198","295404","0.0-6.0-3.40","85","1","2022-11-17 12:26:24","fd252370c17a9971d68c1d4354a03c2e","","Mozilla/5.0 (Windows NT 10.0; Win64; x64) AppleWebKit/537.36 (KHTML, like Gecko) Chrome/107.0.0.0 Safari/537.36 Edg/107.0.1418.42","WebKit","Edge","107.0.1418.42","Windows","10.0","1102","n","","cup.jpg","1","Filler","true",""
"","","","","","fixation","28095","html-keyboard-response","199","296423","0.0-6.0-0.41","85","1","2022-11-17 12:26:24","fd252370c17a9971d68c1d4354a03c2e","","Mozilla/5.0 (Windows NT 10.0; Win64; x64) AppleWebKit/537.36 (KHTML, like Gecko) Chrome/107.0.0.0 Safari/537.36 Edg/107.0.1418.42","WebKit","Edge","107.0.1418.42","Windows","10.0","null","null","","<p style=""font-size: 48px;"">+</p>","1","Filler","",""
"","","","","","sentence","28095","html-keyboard-response","200","297344","0.0-6.0-1.41","85","1","2022-11-17 12:26:24","fd252370c17a9971d68c1d4354a03c2e","","Mozilla/5.0 (Windows NT 10.0; Win64; x64) AppleWebKit/537.36 (KHTML, like Gecko) Chrome/107.0.0.0 Safari/537.36 Edg/107.0.1418.42","WebKit","Edge","107.0.1418.42","Windows","10.0","915"," ","","A mouse is eating cheese","1","Filler","",""
"","","","","","fixation","28095","html-keyboard-response","201","297858","0.0-6.0-2.41","85","1","2022-11-17 12:26:24","fd252370c17a9971d68c1d4354a03c2e","","Mozilla/5.0 (Windows NT 10.0; Win64; x64) AppleWebKit/537.36 (KHTML, like Gecko) Chrome/107.0.0.0 Safari/537.36 Edg/107.0.1418.42","WebKit","Edge","107.0.1418.42","Windows","10.0","null","null","","<p style=""font-size: 48px;"">+</p>","1","Filler","",""
"","","","","","picture","28095","image-keyboard-response","202","298858","0.0-6.0-3.41","85","1","2022-11-17 12:26:24","fd252370c17a9971d68c1d4354a03c2e","","Mozilla/5.0 (Windows NT 10.0; Win64; x64) AppleWebKit/537.36 (KHTML, like Gecko) Chrome/107.0.0.0 Safari/537.36 Edg/107.0.1418.42","WebKit","Edge","107.0.1418.42","Windows","10.0","991","n","","ring.jpg","1","Filler","true",""
"","","","","","fixation","28095","html-keyboard-response","203","299886","0.0-6.0-0.42","85","1","2022-11-17 12:26:24","fd252370c17a9971d68c1d4354a03c2e","","Mozilla/5.0 (Windows NT 10.0; Win64; x64) AppleWebKit/537.36 (KHTML, like Gecko) Chrome/107.0.0.0 Safari/537.36 Edg/107.0.1418.42","WebKit","Edge","107.0.1418.42","Windows","10.0","null","null","","<p style=""font-size: 48px;"">+</p>","1","Light_Matched","",""
"","","","","","sentence","28095","html-keyboard-response","204","301142","0.0-6.0-1.42","85","1","2022-11-17 12:26:24","fd252370c17a9971d68c1d4354a03c2e","","Mozilla/5.0 (Windows NT 10.0; Win64; x64) AppleWebKit/537.36 (KHTML, like Gecko) Chrome/107.0.0.0 Safari/537.36 Edg/107.0.1418.42","WebKit","Edge","107.0.1418.42","Windows","10.0","1250"," ","","A balloon dropped and touched a mirror","1","Light_Matched","",""
"","","","","","fixation","28095","html-keyboard-response","205","301661","0.0-6.0-2.42","85","1","2022-11-17 12:26:24","fd252370c17a9971d68c1d4354a03c2e","","Mozilla/5.0 (Windows NT 10.0; Win64; x64) AppleWebKit/537.36 (KHTML, like Gecko) Chrome/107.0.0.0 Safari/537.36 Edg/107.0.1418.42","WebKit","Edge","107.0.1418.42","Windows","10.0","null","null","","<p style=""font-size: 48px;"">+</p>","1","Light_Matched","",""
"","","","","","picture","28095","image-keyboard-response","206","302540","0.0-6.0-3.42","85","1","2022-11-17 12:26:24","fd252370c17a9971d68c1d4354a03c2e","","Mozilla/5.0 (Windows NT 10.0; Win64; x64) AppleWebKit/537.36 (KHTML, like Gecko) Chrome/107.0.0.0 Safari/537.36 Edg/107.0.1418.42","WebKit","Edge","107.0.1418.42","Windows","10.0","871","s","","mirrorS.jpg","1","Light_Matched","true",""
"","","","","","fixation","28095","html-keyboard-response","207","303550","0.0-6.0-0.43","85","1","2022-11-17 12:26:24","fd252370c17a9971d68c1d4354a03c2e","","Mozilla/5.0 (Windows NT 10.0; Win64; x64) AppleWebKit/537.36 (KHTML, like Gecko) Chrome/107.0.0.0 Safari/537.36 Edg/107.0.1418.42","WebKit","Edge","107.0.1418.42","Windows","10.0","null","null","","<p style=""font-size: 48px;"">+</p>","1","Filler","",""
"","","","","","sentence","28095","html-keyboard-response","208","304848","0.0-6.0-1.43","85","1","2022-11-17 12:26:24","fd252370c17a9971d68c1d4354a03c2e","","Mozilla/5.0 (Windows NT 10.0; Win64; x64) AppleWebKit/537.36 (KHTML, like Gecko) Chrome/107.0.0.0 Safari/537.36 Edg/107.0.1418.42","WebKit","Edge","107.0.1418.42","Windows","10.0","1292"," ","","A zebra is playing with a horse","1","Filler","",""
"","","","","","fixation","28095","html-keyboard-response","209","305361","0.0-6.0-2.43","85","1","2022-11-17 12:26:24","fd252370c17a9971d68c1d4354a03c2e","","Mozilla/5.0 (Windows NT 10.0; Win64; x64) AppleWebKit/537.36 (KHTML, like Gecko) Chrome/107.0.0.0 Safari/537.36 Edg/107.0.1418.42","WebKit","Edge","107.0.1418.42","Windows","10.0","null","null","","<p style=""font-size: 48px;"">+</p>","1","Filler","",""
"","","","","","picture","28095","image-keyboard-response","210","306200","0.0-6.0-3.43","85","1","2022-11-17 12:26:24","fd252370c17a9971d68c1d4354a03c2e","","Mozilla/5.0 (Windows NT 10.0; Win64; x64) AppleWebKit/537.36 (KHTML, like Gecko) Chrome/107.0.0.0 Safari/537.36 Edg/107.0.1418.42","WebKit","Edge","107.0.1418.42","Windows","10.0","829","n","","watch.jpg","1","Filler","true",""
"","","","","","fixation","28095","html-keyboard-response","211","307215","0.0-6.0-0.44","85","1","2022-11-17 12:26:24","fd252370c17a9971d68c1d4354a03c2e","","Mozilla/5.0 (Windows NT 10.0; Win64; x64) AppleWebKit/537.36 (KHTML, like Gecko) Chrome/107.0.0.0 Safari/537.36 Edg/107.0.1418.42","WebKit","Edge","107.0.1418.42","Windows","10.0","null","null","","<p style=""font-size: 48px;"">+</p>","1","Filler","",""
"","","","","","sentence","28095","html-keyboard-response","212","308678","0.0-6.0-1.44","85","1","2022-11-17 12:26:24","fd252370c17a9971d68c1d4354a03c2e","","Mozilla/5.0 (Windows NT 10.0; Win64; x64) AppleWebKit/537.36 (KHTML, like Gecko) Chrome/107.0.0.0 Safari/537.36 Edg/107.0.1418.42","WebKit","Edge","107.0.1418.42","Windows","10.0","1455"," ","","A keyboard was placed on the bed","1","Filler","",""
"","","","","","fixation","28095","html-keyboard-response","213","309190","0.0-6.0-2.44","85","1","2022-11-17 12:26:24","fd252370c17a9971d68c1d4354a03c2e","","Mozilla/5.0 (Windows NT 10.0; Win64; x64) AppleWebKit/537.36 (KHTML, like Gecko) Chrome/107.0.0.0 Safari/537.36 Edg/107.0.1418.42","WebKit","Edge","107.0.1418.42","Windows","10.0","null","null","","<p style=""font-size: 48px;"">+</p>","1","Filler","",""
"","","","","","picture","28095","image-keyboard-response","214","310356","0.0-6.0-3.44","85","1","2022-11-17 12:26:24","fd252370c17a9971d68c1d4354a03c2e","","Mozilla/5.0 (Windows NT 10.0; Win64; x64) AppleWebKit/537.36 (KHTML, like Gecko) Chrome/107.0.0.0 Safari/537.36 Edg/107.0.1418.42","WebKit","Edge","107.0.1418.42","Windows","10.0","1156","n","","bottlecap.jpg","1","Filler","true",""
"","","","","","fixation","28095","html-keyboard-response","215","311384","0.0-6.0-0.45","85","1","2022-11-17 12:26:24","fd252370c17a9971d68c1d4354a03c2e","","Mozilla/5.0 (Windows NT 10.0; Win64; x64) AppleWebKit/537.36 (KHTML, like Gecko) Chrome/107.0.0.0 Safari/537.36 Edg/107.0.1418.42","WebKit","Edge","107.0.1418.42","Windows","10.0","null","null","","<p style=""font-size: 48px;"">+</p>","1","Filler","",""
"","","","","","sentence","28095","html-keyboard-response","216","312326","0.0-6.0-1.45","85","1","2022-11-17 12:26:24","fd252370c17a9971d68c1d4354a03c2e","","Mozilla/5.0 (Windows NT 10.0; Win64; x64) AppleWebKit/537.36 (KHTML, like Gecko) Chrome/107.0.0.0 Safari/537.36 Edg/107.0.1418.42","WebKit","Edge","107.0.1418.42","Windows","10.0","934"," ","","A doctor is taking a stethoscope","1","Filler","",""
"","","","","","fixation","28095","html-keyboard-response","217","312847","0.0-6.0-2.45","85","1","2022-11-17 12:26:24","fd252370c17a9971d68c1d4354a03c2e","","Mozilla/5.0 (Windows NT 10.0; Win64; x64) AppleWebKit/537.36 (KHTML, like Gecko) Chrome/107.0.0.0 Safari/537.36 Edg/107.0.1418.42","WebKit","Edge","107.0.1418.42","Windows","10.0","null","null","","<p style=""font-size: 48px;"">+</p>","1","Filler","",""
"","","","","","picture","28095","image-keyboard-response","218","314140","0.0-6.0-3.45","85","1","2022-11-17 12:26:24","fd252370c17a9971d68c1d4354a03c2e","","Mozilla/5.0 (Windows NT 10.0; Win64; x64) AppleWebKit/537.36 (KHTML, like Gecko) Chrome/107.0.0.0 Safari/537.36 Edg/107.0.1418.42","WebKit","Edge","107.0.1418.42","Windows","10.0","1284","n","","matchesbox.jpg","1","Filler","true",""
"","","","","","fixation","28095","html-keyboard-response","219","315153","0.0-6.0-0.46","85","1","2022-11-17 12:26:24","fd252370c17a9971d68c1d4354a03c2e","","Mozilla/5.0 (Windows NT 10.0; Win64; x64) AppleWebKit/537.36 (KHTML, like Gecko) Chrome/107.0.0.0 Safari/537.36 Edg/107.0.1418.42","WebKit","Edge","107.0.1418.42","Windows","10.0","null","null","","<p style=""font-size: 48px;"">+</p>","1","Filler","",""
"","","","","","sentence","28095","html-keyboard-response","220","316447","0.0-6.0-1.46","85","1","2022-11-17 12:26:24","fd252370c17a9971d68c1d4354a03c2e","","Mozilla/5.0 (Windows NT 10.0; Win64; x64) AppleWebKit/537.36 (KHTML, like Gecko) Chrome/107.0.0.0 Safari/537.36 Edg/107.0.1418.42","WebKit","Edge","107.0.1418.42","Windows","10.0","1287"," ","","A puppy is playing with a ball","1","Filler","",""
"","","","","","fixation","28095","html-keyboard-response","221","316961","0.0-6.0-2.46","85","1","2022-11-17 12:26:24","fd252370c17a9971d68c1d4354a03c2e","","Mozilla/5.0 (Windows NT 10.0; Win64; x64) AppleWebKit/537.36 (KHTML, like Gecko) Chrome/107.0.0.0 Safari/537.36 Edg/107.0.1418.42","WebKit","Edge","107.0.1418.42","Windows","10.0","null","null","","<p style=""font-size: 48px;"">+</p>","1","Filler","",""
"","","","","","picture","28095","image-keyboard-response","222","317646","0.0-6.0-3.46","85","1","2022-11-17 12:26:24","fd252370c17a9971d68c1d4354a03c2e","","Mozilla/5.0 (Windows NT 10.0; Win64; x64) AppleWebKit/537.36 (KHTML, like Gecko) Chrome/107.0.0.0 Safari/537.36 Edg/107.0.1418.42","WebKit","Edge","107.0.1418.42","Windows","10.0","679","s","","tennisball.jpg","1","Filler","true",""
"","","","","","fixation","28095","html-keyboard-response","223","318656","0.0-6.0-0.47","85","1","2022-11-17 12:26:24","fd252370c17a9971d68c1d4354a03c2e","","Mozilla/5.0 (Windows NT 10.0; Win64; x64) AppleWebKit/537.36 (KHTML, like Gecko) Chrome/107.0.0.0 Safari/537.36 Edg/107.0.1418.42","WebKit","Edge","107.0.1418.42","Windows","10.0","null","null","","<p style=""font-size: 48px;"">+</p>","1","Filler","",""
"","","","","","sentence","28095","html-keyboard-response","224","319853","0.0-6.0-1.47","85","1","2022-11-17 12:26:24","fd252370c17a9971d68c1d4354a03c2e","","Mozilla/5.0 (Windows NT 10.0; Win64; x64) AppleWebKit/537.36 (KHTML, like Gecko) Chrome/107.0.0.0 Safari/537.36 Edg/107.0.1418.42","WebKit","Edge","107.0.1418.42","Windows","10.0","1192"," ","","A boy is wearing a hat","1","Filler","",""
"","","","","","fixation","28095","html-keyboard-response","225","320367","0.0-6.0-2.47","85","1","2022-11-17 12:26:24","fd252370c17a9971d68c1d4354a03c2e","","Mozilla/5.0 (Windows NT 10.0; Win64; x64) AppleWebKit/537.36 (KHTML, like Gecko) Chrome/107.0.0.0 Safari/537.36 Edg/107.0.1418.42","WebKit","Edge","107.0.1418.42","Windows","10.0","null","null","","<p style=""font-size: 48px;"">+</p>","1","Filler","",""
"","","","","","picture","28095","image-keyboard-response","226","321489","0.0-6.0-3.47","85","1","2022-11-17 12:26:24","fd252370c17a9971d68c1d4354a03c2e","","Mozilla/5.0 (Windows NT 10.0; Win64; x64) AppleWebKit/537.36 (KHTML, like Gecko) Chrome/107.0.0.0 Safari/537.36 Edg/107.0.1418.42","WebKit","Edge","107.0.1418.42","Windows","10.0","1115","s","","hat.jpg","1","Filler","true",""
"","","","","","fixation","28095","html-keyboard-response","227","322512","0.0-6.0-0.48","85","1","2022-11-17 12:26:24","fd252370c17a9971d68c1d4354a03c2e","","Mozilla/5.0 (Windows NT 10.0; Win64; x64) AppleWebKit/537.36 (KHTML, like Gecko) Chrome/107.0.0.0 Safari/537.36 Edg/107.0.1418.42","WebKit","Edge","107.0.1418.42","Windows","10.0","null","null","","<p style=""font-size: 48px;"">+</p>","1","Heavy_Matched","",""
"","","","","","sentence","28095","html-keyboard-response","228","324136","0.0-6.0-1.48","85","1","2022-11-17 12:26:24","fd252370c17a9971d68c1d4354a03c2e","","Mozilla/5.0 (Windows NT 10.0; Win64; x64) AppleWebKit/537.36 (KHTML, like Gecko) Chrome/107.0.0.0 Safari/537.36 Edg/107.0.1418.42","WebKit","Edge","107.0.1418.42","Windows","10.0","1617"," ","","A bowling ball dropped and smashed an egg","1","Heavy_Matched","",""
"","","","","","fixation","28095","html-keyboard-response","229","324648","0.0-6.0-2.48","85","1","2022-11-17 12:26:24","fd252370c17a9971d68c1d4354a03c2e","","Mozilla/5.0 (Windows NT 10.0; Win64; x64) AppleWebKit/537.36 (KHTML, like Gecko) Chrome/107.0.0.0 Safari/537.36 Edg/107.0.1418.42","WebKit","Edge","107.0.1418.42","Windows","10.0","null","null","","<p style=""font-size: 48px;"">+</p>","1","Heavy_Matched","",""
"","","","","","picture","28095","image-keyboard-response","230","325224","0.0-6.0-3.48","85","1","2022-11-17 12:26:24","fd252370c17a9971d68c1d4354a03c2e","","Mozilla/5.0 (Windows NT 10.0; Win64; x64) AppleWebKit/537.36 (KHTML, like Gecko) Chrome/107.0.0.0 Safari/537.36 Edg/107.0.1418.42","WebKit","Edge","107.0.1418.42","Windows","10.0","569","s","","eggS.jpg","1","Heavy_Matched","true",""
"","","","","","fixation","28095","html-keyboard-response","231","326249","0.0-6.0-0.49","85","1","2022-11-17 12:26:24","fd252370c17a9971d68c1d4354a03c2e","","Mozilla/5.0 (Windows NT 10.0; Win64; x64) AppleWebKit/537.36 (KHTML, like Gecko) Chrome/107.0.0.0 Safari/537.36 Edg/107.0.1418.42","WebKit","Edge","107.0.1418.42","Windows","10.0","null","null","","<p style=""font-size: 48px;"">+</p>","1","Filler","",""
"","","","","","sentence","28095","html-keyboard-response","232","327072","0.0-6.0-1.49","85","1","2022-11-17 12:26:24","fd252370c17a9971d68c1d4354a03c2e","","Mozilla/5.0 (Windows NT 10.0; Win64; x64) AppleWebKit/537.36 (KHTML, like Gecko) Chrome/107.0.0.0 Safari/537.36 Edg/107.0.1418.42","WebKit","Edge","107.0.1418.42","Windows","10.0","816"," ","","A hairdresser is taking scissors","1","Filler","",""
"","","","","","fixation","28095","html-keyboard-response","233","327585","0.0-6.0-2.49","85","1","2022-11-17 12:26:24","fd252370c17a9971d68c1d4354a03c2e","","Mozilla/5.0 (Windows NT 10.0; Win64; x64) AppleWebKit/537.36 (KHTML, like Gecko) Chrome/107.0.0.0 Safari/537.36 Edg/107.0.1418.42","WebKit","Edge","107.0.1418.42","Windows","10.0","null","null","","<p style=""font-size: 48px;"">+</p>","1","Filler","",""
"","","","","","picture","28095","image-keyboard-response","234","328390","0.0-6.0-3.49","85","1","2022-11-17 12:26:24","fd252370c17a9971d68c1d4354a03c2e","","Mozilla/5.0 (Windows NT 10.0; Win64; x64) AppleWebKit/537.36 (KHTML, like Gecko) Chrome/107.0.0.0 Safari/537.36 Edg/107.0.1418.42","WebKit","Edge","107.0.1418.42","Windows","10.0","796","n","","sock.jpg","1","Filler","true",""
"","","","","","fixation","28095","html-keyboard-response","235","329408","0.0-6.0-0.50","85","1","2022-11-17 12:26:24","fd252370c17a9971d68c1d4354a03c2e","","Mozilla/5.0 (Windows NT 10.0; Win64; x64) AppleWebKit/537.36 (KHTML, like Gecko) Chrome/107.0.0.0 Safari/537.36 Edg/107.0.1418.42","WebKit","Edge","107.0.1418.42","Windows","10.0","null","null","","<p style=""font-size: 48px;"">+</p>","1","Filler","",""
"","","","","","sentence","28095","html-keyboard-response","236","331014","0.0-6.0-1.50","85","1","2022-11-17 12:26:24","fd252370c17a9971d68c1d4354a03c2e","","Mozilla/5.0 (Windows NT 10.0; Win64; x64) AppleWebKit/537.36 (KHTML, like Gecko) Chrome/107.0.0.0 Safari/537.36 Edg/107.0.1418.42","WebKit","Edge","107.0.1418.42","Windows","10.0","1598"," ","","A cushion was placed on the magazine","1","Filler","",""
