"success","timeout","failed_images","failed_audio","failed_video","typeoftrial","subject","trial_type","trial_index","time_elapsed","internal_node_id","run_id","condition","recorded_at","source_code_version","ip","user_agent","device","browser","browser_version","platform","platform_version","rt","response","Experiment","stimulus","list_number","trialcondition","correct","question_order"
"true","false","[]","[]","[]","preload","3702","preload","0","42","0.0-0.0","74","1","2022-11-17 12:25:11","fd252370c17a9971d68c1d4354a03c2e","","Mozilla/5.0 (Macintosh; Intel Mac OS X 10_15_6) AppleWebKit/605.1.15 (KHTML, like Gecko) Version/15.6,2 Safari/605.1.15","Macintosh","Safari","15.6","OS X","10_15_6","","","","","","","",""
"","","","","","ID","3702","survey-text","1","4568","0.0-1.0","74","1","2022-11-17 12:25:11","fd252370c17a9971d68c1d4354a03c2e","","Mozilla/5.0 (Macintosh; Intel Mac OS X 10_15_6) AppleWebKit/605.1.15 (KHTML, like Gecko) Version/15.6,2 Safari/605.1.15","Macintosh","Safari","15.6","OS X","10_15_6","4516","{""ID"":""6315fddcd1b02a9705776a6b""}","","","","","",""
"","","","","","instructions","3702","html-button-response","2","9749","0.0-2.0","74","1","2022-11-17 12:25:11","fd252370c17a9971d68c1d4354a03c2e","","Mozilla/5.0 (Macintosh; Intel Mac OS X 10_15_6) AppleWebKit/605.1.15 (KHTML, like Gecko) Version/15.6,2 Safari/605.1.15","Macintosh","Safari","15.6","OS X","10_15_6","5179","0","","
                    <p style=""font-size:20px;""> Welcome to the experiment! </p>
                    <p style=""font-size:20px;""> In this experiment, you will be asked to make judgments about the content of different sentences.</p>
                    <p style=""font-size:20px;""> On each trial, you will read a sentence, and will be shown a picture immediately following the sentence. </p>
                    <p style=""font-size:20px;""> Your task is to decide whether the object displayed in the picture was mentioned in the sentence or not </p>
                    <p style=""font-size:20px;""> and respond as quickly as possible by pressing <strong>S</strong> for yes or <strong>N</strong> for no. </p>
                    <p style=""font-size:20px;""> You will now do a practice session with feedback and instructions. </p>
                    <p style=""font-size:20px;""> Click the button below to continue.</p>
                    ","","","",""
"","","","","","instructions","3702","html-button-response","3","19277","0.0-3.0","74","1","2022-11-17 12:25:11","fd252370c17a9971d68c1d4354a03c2e","","Mozilla/5.0 (Macintosh; Intel Mac OS X 10_15_6) AppleWebKit/605.1.15 (KHTML, like Gecko) Version/15.6,2 Safari/605.1.15","Macintosh","Safari","15.6","OS X","10_15_6","9527","0","","
                    <p style=""font-size:20px;""> You are about to begin the practice test. </p>
                    <p style=""font-size:20px;""> On each trial, a sentence will appear on the screen. You should press SPACEBAR when you have read and understood the sentence.</p>
                    <p style=""font-size:20px;""> After you press SPACEBAR, a picture will appear on the screen. </p>
                    <p style=""font-size:20px;""> You need to indicate whether or not the pictured object was mentioned in the sentence. </p>
                    <p style=""font-size:20px;""> If the object WAS mentioned in the preceding sentence, you should press <strong>S</strong> </p>
                    <p style=""font-size:20px;""> If the object was NOT mentioned in the preceding sentence, you should press <strong>N</strong>. </p>
                    <p style=""font-size:20px;""> Click the button below to continue to the practice session.</p>
                    ","","","",""
"","","","","","fixation","3702","html-keyboard-response","4","20281","0.0-4.0-0.0","74","1","2022-11-17 12:25:11","fd252370c17a9971d68c1d4354a03c2e","","Mozilla/5.0 (Macintosh; Intel Mac OS X 10_15_6) AppleWebKit/605.1.15 (KHTML, like Gecko) Version/15.6,2 Safari/605.1.15","Macintosh","Safari","15.6","OS X","10_15_6","null","null","","<p style=""font-size: 48px;"">+</p>","practice","practice_n","",""
"","","","","","sentence","3702","html-keyboard-response","5","23604","0.0-4.0-1.0","74","1","2022-11-17 12:25:11","fd252370c17a9971d68c1d4354a03c2e","","Mozilla/5.0 (Macintosh; Intel Mac OS X 10_15_6) AppleWebKit/605.1.15 (KHTML, like Gecko) Version/15.6,2 Safari/605.1.15","Macintosh","Safari","15.6","OS X","10_15_6","3318"," ","","A fork was placed on a stool","practice","practice_n","",""
"","","","","","fixation","3702","html-keyboard-response","6","24106","0.0-4.0-2.0","74","1","2022-11-17 12:25:11","fd252370c17a9971d68c1d4354a03c2e","","Mozilla/5.0 (Macintosh; Intel Mac OS X 10_15_6) AppleWebKit/605.1.15 (KHTML, like Gecko) Version/15.6,2 Safari/605.1.15","Macintosh","Safari","15.6","OS X","10_15_6","null","null","","<p style=""font-size: 48px;"">+</p>","practice","practice_n","",""
"","","","","","picture","3702","image-keyboard-response","7","26379","0.0-4.0-3.0","74","1","2022-11-17 12:25:11","fd252370c17a9971d68c1d4354a03c2e","","Mozilla/5.0 (Macintosh; Intel Mac OS X 10_15_6) AppleWebKit/605.1.15 (KHTML, like Gecko) Version/15.6,2 Safari/605.1.15","Macintosh","Safari","15.6","OS X","10_15_6","2248","n","","tableB.jpg","practice","practice_n","true",""
"","","","","","","","html-keyboard-response","8","28385","0.0-4.0-4.0","74","1","2022-11-17 12:25:11","fd252370c17a9971d68c1d4354a03c2e","","Mozilla/5.0 (Macintosh; Intel Mac OS X 10_15_6) AppleWebKit/605.1.15 (KHTML, like Gecko) Version/15.6,2 Safari/605.1.15","Macintosh","Safari","15.6","OS X","10_15_6","null","null","","CORRECT!","","","",""
"","","","","","fixation","3702","html-keyboard-response","9","29392","0.0-4.0-0.1","74","1","2022-11-17 12:25:11","fd252370c17a9971d68c1d4354a03c2e","","Mozilla/5.0 (Macintosh; Intel Mac OS X 10_15_6) AppleWebKit/605.1.15 (KHTML, like Gecko) Version/15.6,2 Safari/605.1.15","Macintosh","Safari","15.6","OS X","10_15_6","null","null","","<p style=""font-size: 48px;"">+</p>","practice","practice_s","",""
"","","","","","sentence","3702","html-keyboard-response","10","33043","0.0-4.0-1.1","74","1","2022-11-17 12:25:11","fd252370c17a9971d68c1d4354a03c2e","","Mozilla/5.0 (Macintosh; Intel Mac OS X 10_15_6) AppleWebKit/605.1.15 (KHTML, like Gecko) Version/15.6,2 Safari/605.1.15","Macintosh","Safari","15.6","OS X","10_15_6","3646"," ","","A bowling ball dropped and smashed a teacup","practice","practice_s","",""
"","","","","","fixation","3702","html-keyboard-response","11","33547","0.0-4.0-2.1","74","1","2022-11-17 12:25:11","fd252370c17a9971d68c1d4354a03c2e","","Mozilla/5.0 (Macintosh; Intel Mac OS X 10_15_6) AppleWebKit/605.1.15 (KHTML, like Gecko) Version/15.6,2 Safari/605.1.15","Macintosh","Safari","15.6","OS X","10_15_6","null","null","","<p style=""font-size: 48px;"">+</p>","practice","practice_s","",""
"","","","","","picture","3702","image-keyboard-response","12","35291","0.0-4.0-3.1","74","1","2022-11-17 12:25:11","fd252370c17a9971d68c1d4354a03c2e","","Mozilla/5.0 (Macintosh; Intel Mac OS X 10_15_6) AppleWebKit/605.1.15 (KHTML, like Gecko) Version/15.6,2 Safari/605.1.15","Macintosh","Safari","15.6","OS X","10_15_6","1727","s","","cupB.jpg","practice","practice_s","true",""
"","","","","","","","html-keyboard-response","13","37297","0.0-4.0-4.1","74","1","2022-11-17 12:25:11","fd252370c17a9971d68c1d4354a03c2e","","Mozilla/5.0 (Macintosh; Intel Mac OS X 10_15_6) AppleWebKit/605.1.15 (KHTML, like Gecko) Version/15.6,2 Safari/605.1.15","Macintosh","Safari","15.6","OS X","10_15_6","null","null","","CORRECT!","","","",""
"","","","","","fixation","3702","html-keyboard-response","14","38304","0.0-4.0-0.2","74","1","2022-11-17 12:25:11","fd252370c17a9971d68c1d4354a03c2e","","Mozilla/5.0 (Macintosh; Intel Mac OS X 10_15_6) AppleWebKit/605.1.15 (KHTML, like Gecko) Version/15.6,2 Safari/605.1.15","Macintosh","Safari","15.6","OS X","10_15_6","null","null","","<p style=""font-size: 48px;"">+</p>","practice","practice_s","",""
"","","","","","sentence","3702","html-keyboard-response","15","40872","0.0-4.0-1.2","74","1","2022-11-17 12:25:11","fd252370c17a9971d68c1d4354a03c2e","","Mozilla/5.0 (Macintosh; Intel Mac OS X 10_15_6) AppleWebKit/605.1.15 (KHTML, like Gecko) Version/15.6,2 Safari/605.1.15","Macintosh","Safari","15.6","OS X","10_15_6","2562"," ","","A balloon dropped and touched a cigarette","practice","practice_s","",""
"","","","","","fixation","3702","html-keyboard-response","16","41378","0.0-4.0-2.2","74","1","2022-11-17 12:25:11","fd252370c17a9971d68c1d4354a03c2e","","Mozilla/5.0 (Macintosh; Intel Mac OS X 10_15_6) AppleWebKit/605.1.15 (KHTML, like Gecko) Version/15.6,2 Safari/605.1.15","Macintosh","Safari","15.6","OS X","10_15_6","null","null","","<p style=""font-size: 48px;"">+</p>","practice","practice_s","",""
"","","","","","picture","3702","image-keyboard-response","17","44230","0.0-4.0-3.2","74","1","2022-11-17 12:25:11","fd252370c17a9971d68c1d4354a03c2e","","Mozilla/5.0 (Macintosh; Intel Mac OS X 10_15_6) AppleWebKit/605.1.15 (KHTML, like Gecko) Version/15.6,2 Safari/605.1.15","Macintosh","Safari","15.6","OS X","10_15_6","2836","n","","cigaretteB.jpg","practice","practice_s","false",""
"","","","","","","","html-keyboard-response","18","46235","0.0-4.0-4.2","74","1","2022-11-17 12:25:11","fd252370c17a9971d68c1d4354a03c2e","","Mozilla/5.0 (Macintosh; Intel Mac OS X 10_15_6) AppleWebKit/605.1.15 (KHTML, like Gecko) Version/15.6,2 Safari/605.1.15","Macintosh","Safari","15.6","OS X","10_15_6","null","null","","WRONG!","","","",""
"","","","","","fixation","3702","html-keyboard-response","19","47256","0.0-4.0-0.3","74","1","2022-11-17 12:25:11","fd252370c17a9971d68c1d4354a03c2e","","Mozilla/5.0 (Macintosh; Intel Mac OS X 10_15_6) AppleWebKit/605.1.15 (KHTML, like Gecko) Version/15.6,2 Safari/605.1.15","Macintosh","Safari","15.6","OS X","10_15_6","null","null","","<p style=""font-size: 48px;"">+</p>","practice","practice_n","",""
"","","","","","sentence","3702","html-keyboard-response","20","50864","0.0-4.0-1.3","74","1","2022-11-17 12:25:11","fd252370c17a9971d68c1d4354a03c2e","","Mozilla/5.0 (Macintosh; Intel Mac OS X 10_15_6) AppleWebKit/605.1.15 (KHTML, like Gecko) Version/15.6,2 Safari/605.1.15","Macintosh","Safari","15.6","OS X","10_15_6","3600"," ","","A balloon dropped and smashed a cup","practice","practice_n","",""
"","","","","","fixation","3702","html-keyboard-response","21","51370","0.0-4.0-2.3","74","1","2022-11-17 12:25:11","fd252370c17a9971d68c1d4354a03c2e","","Mozilla/5.0 (Macintosh; Intel Mac OS X 10_15_6) AppleWebKit/605.1.15 (KHTML, like Gecko) Version/15.6,2 Safari/605.1.15","Macintosh","Safari","15.6","OS X","10_15_6","null","null","","<p style=""font-size: 48px;"">+</p>","practice","practice_n","",""
"","","","","","picture","3702","image-keyboard-response","22","52932","0.0-4.0-3.3","74","1","2022-11-17 12:25:11","fd252370c17a9971d68c1d4354a03c2e","","Mozilla/5.0 (Macintosh; Intel Mac OS X 10_15_6) AppleWebKit/605.1.15 (KHTML, like Gecko) Version/15.6,2 Safari/605.1.15","Macintosh","Safari","15.6","OS X","10_15_6","1542","n","","bananaB.jpg","practice","practice_n","true",""
"","","","","","","","html-keyboard-response","23","54936","0.0-4.0-4.3","74","1","2022-11-17 12:25:11","fd252370c17a9971d68c1d4354a03c2e","","Mozilla/5.0 (Macintosh; Intel Mac OS X 10_15_6) AppleWebKit/605.1.15 (KHTML, like Gecko) Version/15.6,2 Safari/605.1.15","Macintosh","Safari","15.6","OS X","10_15_6","null","null","","CORRECT!","","","",""
"","","","","","fixation","3702","html-keyboard-response","24","55943","0.0-4.0-0.4","74","1","2022-11-17 12:25:11","fd252370c17a9971d68c1d4354a03c2e","","Mozilla/5.0 (Macintosh; Intel Mac OS X 10_15_6) AppleWebKit/605.1.15 (KHTML, like Gecko) Version/15.6,2 Safari/605.1.15","Macintosh","Safari","15.6","OS X","10_15_6","null","null","","<p style=""font-size: 48px;"">+</p>","practice","practice_n","",""
"","","","","","sentence","3702","html-keyboard-response","25","58389","0.0-4.0-1.4","74","1","2022-11-17 12:25:11","fd252370c17a9971d68c1d4354a03c2e","","Mozilla/5.0 (Macintosh; Intel Mac OS X 10_15_6) AppleWebKit/605.1.15 (KHTML, like Gecko) Version/15.6,2 Safari/605.1.15","Macintosh","Safari","15.6","OS X","10_15_6","2440"," ","","A bowling ball dropped and touched a bottle","practice","practice_n","",""
"","","","","","fixation","3702","html-keyboard-response","26","58894","0.0-4.0-2.4","74","1","2022-11-17 12:25:11","fd252370c17a9971d68c1d4354a03c2e","","Mozilla/5.0 (Macintosh; Intel Mac OS X 10_15_6) AppleWebKit/605.1.15 (KHTML, like Gecko) Version/15.6,2 Safari/605.1.15","Macintosh","Safari","15.6","OS X","10_15_6","null","null","","<p style=""font-size: 48px;"">+</p>","practice","practice_n","",""
"","","","","","picture","3702","image-keyboard-response","27","59889","0.0-4.0-3.4","74","1","2022-11-17 12:25:11","fd252370c17a9971d68c1d4354a03c2e","","Mozilla/5.0 (Macintosh; Intel Mac OS X 10_15_6) AppleWebKit/605.1.15 (KHTML, like Gecko) Version/15.6,2 Safari/605.1.15","Macintosh","Safari","15.6","OS X","10_15_6","976","n","","bookB.jpg","practice","practice_n","true",""
"","","","","","","","html-keyboard-response","28","61895","0.0-4.0-4.4","74","1","2022-11-17 12:25:11","fd252370c17a9971d68c1d4354a03c2e","","Mozilla/5.0 (Macintosh; Intel Mac OS X 10_15_6) AppleWebKit/605.1.15 (KHTML, like Gecko) Version/15.6,2 Safari/605.1.15","Macintosh","Safari","15.6","OS X","10_15_6","null","null","","CORRECT!","","","",""
"","","","","","fixation","3702","html-keyboard-response","29","62902","0.0-4.0-0.5","74","1","2022-11-17 12:25:11","fd252370c17a9971d68c1d4354a03c2e","","Mozilla/5.0 (Macintosh; Intel Mac OS X 10_15_6) AppleWebKit/605.1.15 (KHTML, like Gecko) Version/15.6,2 Safari/605.1.15","Macintosh","Safari","15.6","OS X","10_15_6","null","null","","<p style=""font-size: 48px;"">+</p>","practice","practice_s","",""
"","","","","","sentence","3702","html-keyboard-response","30","65502","0.0-4.0-1.5","74","1","2022-11-17 12:25:11","fd252370c17a9971d68c1d4354a03c2e","","Mozilla/5.0 (Macintosh; Intel Mac OS X 10_15_6) AppleWebKit/605.1.15 (KHTML, like Gecko) Version/15.6,2 Safari/605.1.15","Macintosh","Safari","15.6","OS X","10_15_6","2594"," ","","A knife was placed on a hammer","practice","practice_s","",""
"","","","","","fixation","3702","html-keyboard-response","31","66008","0.0-4.0-2.5","74","1","2022-11-17 12:25:11","fd252370c17a9971d68c1d4354a03c2e","","Mozilla/5.0 (Macintosh; Intel Mac OS X 10_15_6) AppleWebKit/605.1.15 (KHTML, like Gecko) Version/15.6,2 Safari/605.1.15","Macintosh","Safari","15.6","OS X","10_15_6","null","null","","<p style=""font-size: 48px;"">+</p>","practice","practice_s","",""
"","","","","","picture","3702","image-keyboard-response","32","67689","0.0-4.0-3.5","74","1","2022-11-17 12:25:11","fd252370c17a9971d68c1d4354a03c2e","","Mozilla/5.0 (Macintosh; Intel Mac OS X 10_15_6) AppleWebKit/605.1.15 (KHTML, like Gecko) Version/15.6,2 Safari/605.1.15","Macintosh","Safari","15.6","OS X","10_15_6","1663","n","","hammerB.jpg","practice","practice_s","false",""
"","","","","","","","html-keyboard-response","33","69695","0.0-4.0-4.5","74","1","2022-11-17 12:25:11","fd252370c17a9971d68c1d4354a03c2e","","Mozilla/5.0 (Macintosh; Intel Mac OS X 10_15_6) AppleWebKit/605.1.15 (KHTML, like Gecko) Version/15.6,2 Safari/605.1.15","Macintosh","Safari","15.6","OS X","10_15_6","null","null","","WRONG!","","","",""
"","","","","","movetoexp","3702","html-button-response","34","78709","0.0-5.0","74","1","2022-11-17 12:25:11","fd252370c17a9971d68c1d4354a03c2e","","Mozilla/5.0 (Macintosh; Intel Mac OS X 10_15_6) AppleWebKit/605.1.15 (KHTML, like Gecko) Version/15.6,2 Safari/605.1.15","Macintosh","Safari","15.6","OS X","10_15_6","9007","0","","<p style=""font-size:20px;"">You have now completed the practice session! </p>
                    <p style=""font-size:20px;"">You will now move on to the main experiment, where you will not be provided any feedback. </p>
                    <p style=""font-size:20px;"">Remember, you should press <strong>S</strong> if the pictured object was mentioned in the preceding sentence<br> and <strong>N</strong> if the pictured object was not mentioned in the preceding sentence.</p>
                    <p style=""font-size:20px;"">Please click the button below to continue to the main experiment. </p>","","","",""
"","","","","","fixation","3702","html-keyboard-response","35","79713","0.0-6.0-0.0","74","1","2022-11-17 12:25:11","fd252370c17a9971d68c1d4354a03c2e","","Mozilla/5.0 (Macintosh; Intel Mac OS X 10_15_6) AppleWebKit/605.1.15 (KHTML, like Gecko) Version/15.6,2 Safari/605.1.15","Macintosh","Safari","15.6","OS X","10_15_6","null","null","","<p style=""font-size: 48px;"">+</p>","1","Filler","",""
"","","","","","sentence","3702","html-keyboard-response","36","81883","0.0-6.0-1.0","74","1","2022-11-17 12:25:11","fd252370c17a9971d68c1d4354a03c2e","","Mozilla/5.0 (Macintosh; Intel Mac OS X 10_15_6) AppleWebKit/605.1.15 (KHTML, like Gecko) Version/15.6,2 Safari/605.1.15","Macintosh","Safari","15.6","OS X","10_15_6","2164"," ","","A cat is drinking water from a bowl","1","Filler","",""
"","","","","","fixation","3702","html-keyboard-response","37","82389","0.0-6.0-2.0","74","1","2022-11-17 12:25:11","fd252370c17a9971d68c1d4354a03c2e","","Mozilla/5.0 (Macintosh; Intel Mac OS X 10_15_6) AppleWebKit/605.1.15 (KHTML, like Gecko) Version/15.6,2 Safari/605.1.15","Macintosh","Safari","15.6","OS X","10_15_6","null","null","","<p style=""font-size: 48px;"">+</p>","1","Filler","",""
"","","","","","picture","3702","image-keyboard-response","38","84042","0.0-6.0-3.0","74","1","2022-11-17 12:25:11","fd252370c17a9971d68c1d4354a03c2e","","Mozilla/5.0 (Macintosh; Intel Mac OS X 10_15_6) AppleWebKit/605.1.15 (KHTML, like Gecko) Version/15.6,2 Safari/605.1.15","Macintosh","Safari","15.6","OS X","10_15_6","1618","s","","bowl.jpg","1","Filler","true",""
"","","","","","fixation","3702","html-keyboard-response","39","85048","0.0-6.0-0.1","74","1","2022-11-17 12:25:11","fd252370c17a9971d68c1d4354a03c2e","","Mozilla/5.0 (Macintosh; Intel Mac OS X 10_15_6) AppleWebKit/605.1.15 (KHTML, like Gecko) Version/15.6,2 Safari/605.1.15","Macintosh","Safari","15.6","OS X","10_15_6","null","null","","<p style=""font-size: 48px;"">+</p>","1","Heavy_Contradictory","",""
"","","","","","sentence","3702","html-keyboard-response","40","88059","0.0-6.0-1.1","74","1","2022-11-17 12:25:11","fd252370c17a9971d68c1d4354a03c2e","","Mozilla/5.0 (Macintosh; Intel Mac OS X 10_15_6) AppleWebKit/605.1.15 (KHTML, like Gecko) Version/15.6,2 Safari/605.1.15","Macintosh","Safari","15.6","OS X","10_15_6","3003"," ","","A bowling ball dropped and touched glasses","1","Heavy_Contradictory","",""
"","","","","","fixation","3702","html-keyboard-response","41","88564","0.0-6.0-2.1","74","1","2022-11-17 12:25:11","fd252370c17a9971d68c1d4354a03c2e","","Mozilla/5.0 (Macintosh; Intel Mac OS X 10_15_6) AppleWebKit/605.1.15 (KHTML, like Gecko) Version/15.6,2 Safari/605.1.15","Macintosh","Safari","15.6","OS X","10_15_6","null","null","","<p style=""font-size: 48px;"">+</p>","1","Heavy_Contradictory","",""
"","","","","","picture","3702","image-keyboard-response","42","90129","0.0-6.0-3.1","74","1","2022-11-17 12:25:11","fd252370c17a9971d68c1d4354a03c2e","","Mozilla/5.0 (Macintosh; Intel Mac OS X 10_15_6) AppleWebKit/605.1.15 (KHTML, like Gecko) Version/15.6,2 Safari/605.1.15","Macintosh","Safari","15.6","OS X","10_15_6","1545","s","","glassesS.jpg","1","Heavy_Contradictory","true",""
"","","","","","fixation","3702","html-keyboard-response","43","91135","0.0-6.0-0.2","74","1","2022-11-17 12:25:11","fd252370c17a9971d68c1d4354a03c2e","","Mozilla/5.0 (Macintosh; Intel Mac OS X 10_15_6) AppleWebKit/605.1.15 (KHTML, like Gecko) Version/15.6,2 Safari/605.1.15","Macintosh","Safari","15.6","OS X","10_15_6","null","null","","<p style=""font-size: 48px;"">+</p>","1","Filler","",""
"","","","","","sentence","3702","html-keyboard-response","44","92681","0.0-6.0-1.2","74","1","2022-11-17 12:25:11","fd252370c17a9971d68c1d4354a03c2e","","Mozilla/5.0 (Macintosh; Intel Mac OS X 10_15_6) AppleWebKit/605.1.15 (KHTML, like Gecko) Version/15.6,2 Safari/605.1.15","Macintosh","Safari","15.6","OS X","10_15_6","1537"," ","","A toothbrush was placed on the sponge","1","Filler","",""
"","","","","","fixation","3702","html-keyboard-response","45","93187","0.0-6.0-2.2","74","1","2022-11-17 12:25:11","fd252370c17a9971d68c1d4354a03c2e","","Mozilla/5.0 (Macintosh; Intel Mac OS X 10_15_6) AppleWebKit/605.1.15 (KHTML, like Gecko) Version/15.6,2 Safari/605.1.15","Macintosh","Safari","15.6","OS X","10_15_6","null","null","","<p style=""font-size: 48px;"">+</p>","1","Filler","",""
"","","","","","picture","3702","image-keyboard-response","46","94801","0.0-6.0-3.2","74","1","2022-11-17 12:25:11","fd252370c17a9971d68c1d4354a03c2e","","Mozilla/5.0 (Macintosh; Intel Mac OS X 10_15_6) AppleWebKit/605.1.15 (KHTML, like Gecko) Version/15.6,2 Safari/605.1.15","Macintosh","Safari","15.6","OS X","10_15_6","1602","s","","sponge.jpg","1","Filler","true",""
"","","","","","fixation","3702","html-keyboard-response","47","95806","0.0-6.0-0.3","74","1","2022-11-17 12:25:11","fd252370c17a9971d68c1d4354a03c2e","","Mozilla/5.0 (Macintosh; Intel Mac OS X 10_15_6) AppleWebKit/605.1.15 (KHTML, like Gecko) Version/15.6,2 Safari/605.1.15","Macintosh","Safari","15.6","OS X","10_15_6","null","null","","<p style=""font-size: 48px;"">+</p>","1","Light_Contradictory","",""
"","","","","","sentence","3702","html-keyboard-response","48","97175","0.0-6.0-1.3","74","1","2022-11-17 12:25:11","fd252370c17a9971d68c1d4354a03c2e","","Mozilla/5.0 (Macintosh; Intel Mac OS X 10_15_6) AppleWebKit/605.1.15 (KHTML, like Gecko) Version/15.6,2 Safari/605.1.15","Macintosh","Safari","15.6","OS X","10_15_6","1366"," ","","A balloon dropped and smashed a tomato","1","Light_Contradictory","",""
"","","","","","fixation","3702","html-keyboard-response","49","97680","0.0-6.0-2.3","74","1","2022-11-17 12:25:11","fd252370c17a9971d68c1d4354a03c2e","","Mozilla/5.0 (Macintosh; Intel Mac OS X 10_15_6) AppleWebKit/605.1.15 (KHTML, like Gecko) Version/15.6,2 Safari/605.1.15","Macintosh","Safari","15.6","OS X","10_15_6","null","null","","<p style=""font-size: 48px;"">+</p>","1","Light_Contradictory","",""
"","","","","","picture","3702","image-keyboard-response","50","99425","0.0-6.0-3.3","74","1","2022-11-17 12:25:11","fd252370c17a9971d68c1d4354a03c2e","","Mozilla/5.0 (Macintosh; Intel Mac OS X 10_15_6) AppleWebKit/605.1.15 (KHTML, like Gecko) Version/15.6,2 Safari/605.1.15","Macintosh","Safari","15.6","OS X","10_15_6","1731","s","","tomatoS.jpg","1","Light_Contradictory","true",""
"","","","","","fixation","3702","html-keyboard-response","51","100430","0.0-6.0-0.4","74","1","2022-11-17 12:25:11","fd252370c17a9971d68c1d4354a03c2e","","Mozilla/5.0 (Macintosh; Intel Mac OS X 10_15_6) AppleWebKit/605.1.15 (KHTML, like Gecko) Version/15.6,2 Safari/605.1.15","Macintosh","Safari","15.6","OS X","10_15_6","null","null","","<p style=""font-size: 48px;"">+</p>","1","Heavy_Contradictory","",""
"","","","","","sentence","3702","html-keyboard-response","52","101885","0.0-6.0-1.4","74","1","2022-11-17 12:25:11","fd252370c17a9971d68c1d4354a03c2e","","Mozilla/5.0 (Macintosh; Intel Mac OS X 10_15_6) AppleWebKit/605.1.15 (KHTML, like Gecko) Version/15.6,2 Safari/605.1.15","Macintosh","Safari","15.6","OS X","10_15_6","1451"," ","","A bowling ball dropped and touched a blackberry","1","Heavy_Contradictory","",""
"","","","","","fixation","3702","html-keyboard-response","53","102389","0.0-6.0-2.4","74","1","2022-11-17 12:25:11","fd252370c17a9971d68c1d4354a03c2e","","Mozilla/5.0 (Macintosh; Intel Mac OS X 10_15_6) AppleWebKit/605.1.15 (KHTML, like Gecko) Version/15.6,2 Safari/605.1.15","Macintosh","Safari","15.6","OS X","10_15_6","null","null","","<p style=""font-size: 48px;"">+</p>","1","Heavy_Contradictory","",""
"","","","","","picture","3702","image-keyboard-response","54","103294","0.0-6.0-3.4","74","1","2022-11-17 12:25:11","fd252370c17a9971d68c1d4354a03c2e","","Mozilla/5.0 (Macintosh; Intel Mac OS X 10_15_6) AppleWebKit/605.1.15 (KHTML, like Gecko) Version/15.6,2 Safari/605.1.15","Macintosh","Safari","15.6","OS X","10_15_6","891","s","","blackberryS.jpg","1","Heavy_Contradictory","true",""
"","","","","","fixation","3702","html-keyboard-response","55","104299","0.0-6.0-0.5","74","1","2022-11-17 12:25:11","fd252370c17a9971d68c1d4354a03c2e","","Mozilla/5.0 (Macintosh; Intel Mac OS X 10_15_6) AppleWebKit/605.1.15 (KHTML, like Gecko) Version/15.6,2 Safari/605.1.15","Macintosh","Safari","15.6","OS X","10_15_6","null","null","","<p style=""font-size: 48px;"">+</p>","1","Filler","",""
"","","","","","sentence","3702","html-keyboard-response","56","106142","0.0-6.0-1.5","74","1","2022-11-17 12:25:11","fd252370c17a9971d68c1d4354a03c2e","","Mozilla/5.0 (Macintosh; Intel Mac OS X 10_15_6) AppleWebKit/605.1.15 (KHTML, like Gecko) Version/15.6,2 Safari/605.1.15","Macintosh","Safari","15.6","OS X","10_15_6","1838"," ","","A needle was placed on the mouse pad","1","Filler","",""
"","","","","","fixation","3702","html-keyboard-response","57","106647","0.0-6.0-2.5","74","1","2022-11-17 12:25:11","fd252370c17a9971d68c1d4354a03c2e","","Mozilla/5.0 (Macintosh; Intel Mac OS X 10_15_6) AppleWebKit/605.1.15 (KHTML, like Gecko) Version/15.6,2 Safari/605.1.15","Macintosh","Safari","15.6","OS X","10_15_6","null","null","","<p style=""font-size: 48px;"">+</p>","1","Filler","",""
"","","","","","picture","3702","image-keyboard-response","58","107943","0.0-6.0-3.5","74","1","2022-11-17 12:25:11","fd252370c17a9971d68c1d4354a03c2e","","Mozilla/5.0 (Macintosh; Intel Mac OS X 10_15_6) AppleWebKit/605.1.15 (KHTML, like Gecko) Version/15.6,2 Safari/605.1.15","Macintosh","Safari","15.6","OS X","10_15_6","1281","n","","chocolate.jpg","1","Filler","true",""
"","","","","","fixation","3702","html-keyboard-response","59","108949","0.0-6.0-0.6","74","1","2022-11-17 12:25:11","fd252370c17a9971d68c1d4354a03c2e","","Mozilla/5.0 (Macintosh; Intel Mac OS X 10_15_6) AppleWebKit/605.1.15 (KHTML, like Gecko) Version/15.6,2 Safari/605.1.15","Macintosh","Safari","15.6","OS X","10_15_6","null","null","","<p style=""font-size: 48px;"">+</p>","1","Filler","",""
"","","","","","sentence","3702","html-keyboard-response","60","109981","0.0-6.0-1.6","74","1","2022-11-17 12:25:11","fd252370c17a9971d68c1d4354a03c2e","","Mozilla/5.0 (Macintosh; Intel Mac OS X 10_15_6) AppleWebKit/605.1.15 (KHTML, like Gecko) Version/15.6,2 Safari/605.1.15","Macintosh","Safari","15.6","OS X","10_15_6","1029"," ","","A man is playing with a cat","1","Filler","",""
"","","","","","fixation","3702","html-keyboard-response","61","110486","0.0-6.0-2.6","74","1","2022-11-17 12:25:11","fd252370c17a9971d68c1d4354a03c2e","","Mozilla/5.0 (Macintosh; Intel Mac OS X 10_15_6) AppleWebKit/605.1.15 (KHTML, like Gecko) Version/15.6,2 Safari/605.1.15","Macintosh","Safari","15.6","OS X","10_15_6","null","null","","<p style=""font-size: 48px;"">+</p>","1","Filler","",""
"","","","","","picture","3702","image-keyboard-response","62","111283","0.0-6.0-3.6","74","1","2022-11-17 12:25:11","fd252370c17a9971d68c1d4354a03c2e","","Mozilla/5.0 (Macintosh; Intel Mac OS X 10_15_6) AppleWebKit/605.1.15 (KHTML, like Gecko) Version/15.6,2 Safari/605.1.15","Macintosh","Safari","15.6","OS X","10_15_6","775","n","","ceramicplate.jpg","1","Filler","true",""
"","","","","","fixation","3702","html-keyboard-response","63","112290","0.0-6.0-0.7","74","1","2022-11-17 12:25:11","fd252370c17a9971d68c1d4354a03c2e","","Mozilla/5.0 (Macintosh; Intel Mac OS X 10_15_6) AppleWebKit/605.1.15 (KHTML, like Gecko) Version/15.6,2 Safari/605.1.15","Macintosh","Safari","15.6","OS X","10_15_6","null","null","","<p style=""font-size: 48px;"">+</p>","1","Filler","",""
"","","","","","sentence","3702","html-keyboard-response","64","113324","0.0-6.0-1.7","74","1","2022-11-17 12:25:11","fd252370c17a9971d68c1d4354a03c2e","","Mozilla/5.0 (Macintosh; Intel Mac OS X 10_15_6) AppleWebKit/605.1.15 (KHTML, like Gecko) Version/15.6,2 Safari/605.1.15","Macintosh","Safari","15.6","OS X","10_15_6","1025"," ","","A cabbage was placed on the table","1","Filler","",""
"","","","","","fixation","3702","html-keyboard-response","65","113831","0.0-6.0-2.7","74","1","2022-11-17 12:25:11","fd252370c17a9971d68c1d4354a03c2e","","Mozilla/5.0 (Macintosh; Intel Mac OS X 10_15_6) AppleWebKit/605.1.15 (KHTML, like Gecko) Version/15.6,2 Safari/605.1.15","Macintosh","Safari","15.6","OS X","10_15_6","null","null","","<p style=""font-size: 48px;"">+</p>","1","Filler","",""
"","","","","","picture","3702","image-keyboard-response","66","115453","0.0-6.0-3.7","74","1","2022-11-17 12:25:11","fd252370c17a9971d68c1d4354a03c2e","","Mozilla/5.0 (Macintosh; Intel Mac OS X 10_15_6) AppleWebKit/605.1.15 (KHTML, like Gecko) Version/15.6,2 Safari/605.1.15","Macintosh","Safari","15.6","OS X","10_15_6","1602","n","","ladder.jpg","1","Filler","true",""
"","","","","","fixation","3702","html-keyboard-response","67","116459","0.0-6.0-0.8","74","1","2022-11-17 12:25:11","fd252370c17a9971d68c1d4354a03c2e","","Mozilla/5.0 (Macintosh; Intel Mac OS X 10_15_6) AppleWebKit/605.1.15 (KHTML, like Gecko) Version/15.6,2 Safari/605.1.15","Macintosh","Safari","15.6","OS X","10_15_6","null","null","","<p style=""font-size: 48px;"">+</p>","1","Filler","",""
"","","","","","sentence","3702","html-keyboard-response","68","118513","0.0-6.0-1.8","74","1","2022-11-17 12:25:11","fd252370c17a9971d68c1d4354a03c2e","","Mozilla/5.0 (Macintosh; Intel Mac OS X 10_15_6) AppleWebKit/605.1.15 (KHTML, like Gecko) Version/15.6,2 Safari/605.1.15","Macintosh","Safari","15.6","OS X","10_15_6","2044"," ","","A dentist is drinking a can of cola","1","Filler","",""
"","","","","","fixation","3702","html-keyboard-response","69","119021","0.0-6.0-2.8","74","1","2022-11-17 12:25:11","fd252370c17a9971d68c1d4354a03c2e","","Mozilla/5.0 (Macintosh; Intel Mac OS X 10_15_6) AppleWebKit/605.1.15 (KHTML, like Gecko) Version/15.6,2 Safari/605.1.15","Macintosh","Safari","15.6","OS X","10_15_6","null","null","","<p style=""font-size: 48px;"">+</p>","1","Filler","",""
"","","","","","picture","3702","image-keyboard-response","70","119770","0.0-6.0-3.8","74","1","2022-11-17 12:25:11","fd252370c17a9971d68c1d4354a03c2e","","Mozilla/5.0 (Macintosh; Intel Mac OS X 10_15_6) AppleWebKit/605.1.15 (KHTML, like Gecko) Version/15.6,2 Safari/605.1.15","Macintosh","Safari","15.6","OS X","10_15_6","724","n","","doll.jpg","1","Filler","true",""
"","","","","","fixation","3702","html-keyboard-response","71","120778","0.0-6.0-0.9","74","1","2022-11-17 12:25:11","fd252370c17a9971d68c1d4354a03c2e","","Mozilla/5.0 (Macintosh; Intel Mac OS X 10_15_6) AppleWebKit/605.1.15 (KHTML, like Gecko) Version/15.6,2 Safari/605.1.15","Macintosh","Safari","15.6","OS X","10_15_6","null","null","","<p style=""font-size: 48px;"">+</p>","1","Filler","",""
"","","","","","sentence","3702","html-keyboard-response","72","122919","0.0-6.0-1.9","74","1","2022-11-17 12:25:11","fd252370c17a9971d68c1d4354a03c2e","","Mozilla/5.0 (Macintosh; Intel Mac OS X 10_15_6) AppleWebKit/605.1.15 (KHTML, like Gecko) Version/15.6,2 Safari/605.1.15","Macintosh","Safari","15.6","OS X","10_15_6","2130"," ","","A fork was placed on the plate","1","Filler","",""
"","","","","","fixation","3702","html-keyboard-response","73","123426","0.0-6.0-2.9","74","1","2022-11-17 12:25:11","fd252370c17a9971d68c1d4354a03c2e","","Mozilla/5.0 (Macintosh; Intel Mac OS X 10_15_6) AppleWebKit/605.1.15 (KHTML, like Gecko) Version/15.6,2 Safari/605.1.15","Macintosh","Safari","15.6","OS X","10_15_6","null","null","","<p style=""font-size: 48px;"">+</p>","1","Filler","",""
"","","","","","picture","3702","image-keyboard-response","74","124270","0.0-6.0-3.9","74","1","2022-11-17 12:25:11","fd252370c17a9971d68c1d4354a03c2e","","Mozilla/5.0 (Macintosh; Intel Mac OS X 10_15_6) AppleWebKit/605.1.15 (KHTML, like Gecko) Version/15.6,2 Safari/605.1.15","Macintosh","Safari","15.6","OS X","10_15_6","821","s","","plate.jpg","1","Filler","true",""
"","","","","","fixation","3702","html-keyboard-response","75","125277","0.0-6.0-0.10","74","1","2022-11-17 12:25:11","fd252370c17a9971d68c1d4354a03c2e","","Mozilla/5.0 (Macintosh; Intel Mac OS X 10_15_6) AppleWebKit/605.1.15 (KHTML, like Gecko) Version/15.6,2 Safari/605.1.15","Macintosh","Safari","15.6","OS X","10_15_6","null","null","","<p style=""font-size: 48px;"">+</p>","1","Filler","",""
"","","","","","sentence","3702","html-keyboard-response","76","126669","0.0-6.0-1.10","74","1","2022-11-17 12:25:11","fd252370c17a9971d68c1d4354a03c2e","","Mozilla/5.0 (Macintosh; Intel Mac OS X 10_15_6) AppleWebKit/605.1.15 (KHTML, like Gecko) Version/15.6,2 Safari/605.1.15","Macintosh","Safari","15.6","OS X","10_15_6","1381"," ","","An old man is hammering a nail","1","Filler","",""
"","","","","","fixation","3702","html-keyboard-response","77","127176","0.0-6.0-2.10","74","1","2022-11-17 12:25:11","fd252370c17a9971d68c1d4354a03c2e","","Mozilla/5.0 (Macintosh; Intel Mac OS X 10_15_6) AppleWebKit/605.1.15 (KHTML, like Gecko) Version/15.6,2 Safari/605.1.15","Macintosh","Safari","15.6","OS X","10_15_6","null","null","","<p style=""font-size: 48px;"">+</p>","1","Filler","",""
"","","","","","picture","3702","image-keyboard-response","78","128233","0.0-6.0-3.10","74","1","2022-11-17 12:25:11","fd252370c17a9971d68c1d4354a03c2e","","Mozilla/5.0 (Macintosh; Intel Mac OS X 10_15_6) AppleWebKit/605.1.15 (KHTML, like Gecko) Version/15.6,2 Safari/605.1.15","Macintosh","Safari","15.6","OS X","10_15_6","1033","s","","nail.jpg","1","Filler","true",""
"","","","","","fixation","3702","html-keyboard-response","79","129240","0.0-6.0-0.11","74","1","2022-11-17 12:25:11","fd252370c17a9971d68c1d4354a03c2e","","Mozilla/5.0 (Macintosh; Intel Mac OS X 10_15_6) AppleWebKit/605.1.15 (KHTML, like Gecko) Version/15.6,2 Safari/605.1.15","Macintosh","Safari","15.6","OS X","10_15_6","null","null","","<p style=""font-size: 48px;"">+</p>","1","Filler","",""
"","","","","","sentence","3702","html-keyboard-response","80","130573","0.0-6.0-1.11","74","1","2022-11-17 12:25:11","fd252370c17a9971d68c1d4354a03c2e","","Mozilla/5.0 (Macintosh; Intel Mac OS X 10_15_6) AppleWebKit/605.1.15 (KHTML, like Gecko) Version/15.6,2 Safari/605.1.15","Macintosh","Safari","15.6","OS X","10_15_6","1324"," ","","A watch was placed on the laptop","1","Filler","",""
"","","","","","fixation","3702","html-keyboard-response","81","131081","0.0-6.0-2.11","74","1","2022-11-17 12:25:11","fd252370c17a9971d68c1d4354a03c2e","","Mozilla/5.0 (Macintosh; Intel Mac OS X 10_15_6) AppleWebKit/605.1.15 (KHTML, like Gecko) Version/15.6,2 Safari/605.1.15","Macintosh","Safari","15.6","OS X","10_15_6","null","null","","<p style=""font-size: 48px;"">+</p>","1","Filler","",""
"","","","","","picture","3702","image-keyboard-response","82","131682","0.0-6.0-3.11","74","1","2022-11-17 12:25:11","fd252370c17a9971d68c1d4354a03c2e","","Mozilla/5.0 (Macintosh; Intel Mac OS X 10_15_6) AppleWebKit/605.1.15 (KHTML, like Gecko) Version/15.6,2 Safari/605.1.15","Macintosh","Safari","15.6","OS X","10_15_6","574","n","","bow.jpg","1","Filler","true",""
"","","","","","fixation","3702","html-keyboard-response","83","132689","0.0-6.0-0.12","74","1","2022-11-17 12:25:11","fd252370c17a9971d68c1d4354a03c2e","","Mozilla/5.0 (Macintosh; Intel Mac OS X 10_15_6) AppleWebKit/605.1.15 (KHTML, like Gecko) Version/15.6,2 Safari/605.1.15","Macintosh","Safari","15.6","OS X","10_15_6","null","null","","<p style=""font-size: 48px;"">+</p>","1","Filler","",""
"","","","","","sentence","3702","html-keyboard-response","84","135797","0.0-6.0-1.12","74","1","2022-11-17 12:25:11","fd252370c17a9971d68c1d4354a03c2e","","Mozilla/5.0 (Macintosh; Intel Mac OS X 10_15_6) AppleWebKit/605.1.15 (KHTML, like Gecko) Version/15.6,2 Safari/605.1.15","Macintosh","Safari","15.6","OS X","10_15_6","3097"," ","","A kitten is playing in the sandbox","1","Filler","",""
"","","","","","fixation","3702","html-keyboard-response","85","136304","0.0-6.0-2.12","74","1","2022-11-17 12:25:11","fd252370c17a9971d68c1d4354a03c2e","","Mozilla/5.0 (Macintosh; Intel Mac OS X 10_15_6) AppleWebKit/605.1.15 (KHTML, like Gecko) Version/15.6,2 Safari/605.1.15","Macintosh","Safari","15.6","OS X","10_15_6","null","null","","<p style=""font-size: 48px;"">+</p>","1","Filler","",""
"","","","","","picture","3702","image-keyboard-response","86","137202","0.0-6.0-3.12","74","1","2022-11-17 12:25:11","fd252370c17a9971d68c1d4354a03c2e","","Mozilla/5.0 (Macintosh; Intel Mac OS X 10_15_6) AppleWebKit/605.1.15 (KHTML, like Gecko) Version/15.6,2 Safari/605.1.15","Macintosh","Safari","15.6","OS X","10_15_6","874","n","","dustbin.jpg","1","Filler","true",""
"","","","","","fixation","3702","html-keyboard-response","87","138210","0.0-6.0-0.13","74","1","2022-11-17 12:25:11","fd252370c17a9971d68c1d4354a03c2e","","Mozilla/5.0 (Macintosh; Intel Mac OS X 10_15_6) AppleWebKit/605.1.15 (KHTML, like Gecko) Version/15.6,2 Safari/605.1.15","Macintosh","Safari","15.6","OS X","10_15_6","null","null","","<p style=""font-size: 48px;"">+</p>","1","Filler","",""
"","","","","","sentence","3702","html-keyboard-response","88","139305","0.0-6.0-1.13","74","1","2022-11-17 12:25:11","fd252370c17a9971d68c1d4354a03c2e","","Mozilla/5.0 (Macintosh; Intel Mac OS X 10_15_6) AppleWebKit/605.1.15 (KHTML, like Gecko) Version/15.6,2 Safari/605.1.15","Macintosh","Safari","15.6","OS X","10_15_6","1085"," ","","A thermometer was placed on the box","1","Filler","",""
"","","","","","fixation","3702","html-keyboard-response","89","139813","0.0-6.0-2.13","74","1","2022-11-17 12:25:11","fd252370c17a9971d68c1d4354a03c2e","","Mozilla/5.0 (Macintosh; Intel Mac OS X 10_15_6) AppleWebKit/605.1.15 (KHTML, like Gecko) Version/15.6,2 Safari/605.1.15","Macintosh","Safari","15.6","OS X","10_15_6","null","null","","<p style=""font-size: 48px;"">+</p>","1","Filler","",""
"","","","","","picture","3702","image-keyboard-response","90","140441","0.0-6.0-3.13","74","1","2022-11-17 12:25:11","fd252370c17a9971d68c1d4354a03c2e","","Mozilla/5.0 (Macintosh; Intel Mac OS X 10_15_6) AppleWebKit/605.1.15 (KHTML, like Gecko) Version/15.6,2 Safari/605.1.15","Macintosh","Safari","15.6","OS X","10_15_6","605","n","","button.jpg","1","Filler","true",""
"","","","","","fixation","3702","html-keyboard-response","91","141451","0.0-6.0-0.14","74","1","2022-11-17 12:25:11","fd252370c17a9971d68c1d4354a03c2e","","Mozilla/5.0 (Macintosh; Intel Mac OS X 10_15_6) AppleWebKit/605.1.15 (KHTML, like Gecko) Version/15.6,2 Safari/605.1.15","Macintosh","Safari","15.6","OS X","10_15_6","null","null","","<p style=""font-size: 48px;"">+</p>","1","Filler","",""
"","","","","","sentence","3702","html-keyboard-response","92","144436","0.0-6.0-1.14","74","1","2022-11-17 12:25:11","fd252370c17a9971d68c1d4354a03c2e","","Mozilla/5.0 (Macintosh; Intel Mac OS X 10_15_6) AppleWebKit/605.1.15 (KHTML, like Gecko) Version/15.6,2 Safari/605.1.15","Macintosh","Safari","15.6","OS X","10_15_6","2976"," ","","A parrot is eating an apple","1","Filler","",""
"","","","","","fixation","3702","html-keyboard-response","93","144943","0.0-6.0-2.14","74","1","2022-11-17 12:25:11","fd252370c17a9971d68c1d4354a03c2e","","Mozilla/5.0 (Macintosh; Intel Mac OS X 10_15_6) AppleWebKit/605.1.15 (KHTML, like Gecko) Version/15.6,2 Safari/605.1.15","Macintosh","Safari","15.6","OS X","10_15_6","null","null","","<p style=""font-size: 48px;"">+</p>","1","Filler","",""
"","","","","","picture","3702","image-keyboard-response","94","145510","0.0-6.0-3.14","74","1","2022-11-17 12:25:11","fd252370c17a9971d68c1d4354a03c2e","","Mozilla/5.0 (Macintosh; Intel Mac OS X 10_15_6) AppleWebKit/605.1.15 (KHTML, like Gecko) Version/15.6,2 Safari/605.1.15","Macintosh","Safari","15.6","OS X","10_15_6","541","n","","shirt.jpg","1","Filler","true",""
"","","","","","fixation","3702","html-keyboard-response","95","146519","0.0-6.0-0.15","74","1","2022-11-17 12:25:11","fd252370c17a9971d68c1d4354a03c2e","","Mozilla/5.0 (Macintosh; Intel Mac OS X 10_15_6) AppleWebKit/605.1.15 (KHTML, like Gecko) Version/15.6,2 Safari/605.1.15","Macintosh","Safari","15.6","OS X","10_15_6","null","null","","<p style=""font-size: 48px;"">+</p>","1","Filler","",""
"","","","","","sentence","3702","html-keyboard-response","96","147944","0.0-6.0-1.15","74","1","2022-11-17 12:25:11","fd252370c17a9971d68c1d4354a03c2e","","Mozilla/5.0 (Macintosh; Intel Mac OS X 10_15_6) AppleWebKit/605.1.15 (KHTML, like Gecko) Version/15.6,2 Safari/605.1.15","Macintosh","Safari","15.6","OS X","10_15_6","1413"," ","","A man is shaving his beard","1","Filler","",""
"","","","","","fixation","3702","html-keyboard-response","97","148452","0.0-6.0-2.15","74","1","2022-11-17 12:25:11","fd252370c17a9971d68c1d4354a03c2e","","Mozilla/5.0 (Macintosh; Intel Mac OS X 10_15_6) AppleWebKit/605.1.15 (KHTML, like Gecko) Version/15.6,2 Safari/605.1.15","Macintosh","Safari","15.6","OS X","10_15_6","null","null","","<p style=""font-size: 48px;"">+</p>","1","Filler","",""
"","","","","","picture","3702","image-keyboard-response","98","149024","0.0-6.0-3.15","74","1","2022-11-17 12:25:11","fd252370c17a9971d68c1d4354a03c2e","","Mozilla/5.0 (Macintosh; Intel Mac OS X 10_15_6) AppleWebKit/605.1.15 (KHTML, like Gecko) Version/15.6,2 Safari/605.1.15","Macintosh","Safari","15.6","OS X","10_15_6","547","n","","clock.jpg","1","Filler","true",""
"","","","","","fixation","3702","html-keyboard-response","99","150032","0.0-6.0-0.16","74","1","2022-11-17 12:25:11","fd252370c17a9971d68c1d4354a03c2e","","Mozilla/5.0 (Macintosh; Intel Mac OS X 10_15_6) AppleWebKit/605.1.15 (KHTML, like Gecko) Version/15.6,2 Safari/605.1.15","Macintosh","Safari","15.6","OS X","10_15_6","null","null","","<p style=""font-size: 48px;"">+</p>","1","Heavy_Contradictory","",""
"","","","","","sentence","3702","html-keyboard-response","100","151475","0.0-6.0-1.16","74","1","2022-11-17 12:25:11","fd252370c17a9971d68c1d4354a03c2e","","Mozilla/5.0 (Macintosh; Intel Mac OS X 10_15_6) AppleWebKit/605.1.15 (KHTML, like Gecko) Version/15.6,2 Safari/605.1.15","Macintosh","Safari","15.6","OS X","10_15_6","1433"," ","","A bowling ball dropped and touched a chocolate ice-cream","1","Heavy_Contradictory","",""
"","","","","","fixation","3702","html-keyboard-response","101","151985","0.0-6.0-2.16","74","1","2022-11-17 12:25:11","fd252370c17a9971d68c1d4354a03c2e","","Mozilla/5.0 (Macintosh; Intel Mac OS X 10_15_6) AppleWebKit/605.1.15 (KHTML, like Gecko) Version/15.6,2 Safari/605.1.15","Macintosh","Safari","15.6","OS X","10_15_6","null","null","","<p style=""font-size: 48px;"">+</p>","1","Heavy_Contradictory","",""
"","","","","","picture","3702","image-keyboard-response","102","152745","0.0-6.0-3.16","74","1","2022-11-17 12:25:11","fd252370c17a9971d68c1d4354a03c2e","","Mozilla/5.0 (Macintosh; Intel Mac OS X 10_15_6) AppleWebKit/605.1.15 (KHTML, like Gecko) Version/15.6,2 Safari/605.1.15","Macintosh","Safari","15.6","OS X","10_15_6","737","s","","icecreamS.jpg","1","Heavy_Contradictory","true",""
"","","","","","fixation","3702","html-keyboard-response","103","153755","0.0-6.0-0.17","74","1","2022-11-17 12:25:11","fd252370c17a9971d68c1d4354a03c2e","","Mozilla/5.0 (Macintosh; Intel Mac OS X 10_15_6) AppleWebKit/605.1.15 (KHTML, like Gecko) Version/15.6,2 Safari/605.1.15","Macintosh","Safari","15.6","OS X","10_15_6","null","null","","<p style=""font-size: 48px;"">+</p>","1","Filler","",""
"","","","","","sentence","3702","html-keyboard-response","104","156013","0.0-6.0-1.17","74","1","2022-11-17 12:25:11","fd252370c17a9971d68c1d4354a03c2e","","Mozilla/5.0 (Macintosh; Intel Mac OS X 10_15_6) AppleWebKit/605.1.15 (KHTML, like Gecko) Version/15.6,2 Safari/605.1.15","Macintosh","Safari","15.6","OS X","10_15_6","2245"," ","","A remote was placed on the rug","1","Filler","",""
"","","","","","fixation","3702","html-keyboard-response","105","156522","0.0-6.0-2.17","74","1","2022-11-17 12:25:11","fd252370c17a9971d68c1d4354a03c2e","","Mozilla/5.0 (Macintosh; Intel Mac OS X 10_15_6) AppleWebKit/605.1.15 (KHTML, like Gecko) Version/15.6,2 Safari/605.1.15","Macintosh","Safari","15.6","OS X","10_15_6","null","null","","<p style=""font-size: 48px;"">+</p>","1","Filler","",""
"","","","","","picture","3702","image-keyboard-response","106","157480","0.0-6.0-3.17","74","1","2022-11-17 12:25:11","fd252370c17a9971d68c1d4354a03c2e","","Mozilla/5.0 (Macintosh; Intel Mac OS X 10_15_6) AppleWebKit/605.1.15 (KHTML, like Gecko) Version/15.6,2 Safari/605.1.15","Macintosh","Safari","15.6","OS X","10_15_6","934","n","","CD.jpg","1","Filler","true",""
"","","","","","fixation","3702","html-keyboard-response","107","158487","0.0-6.0-0.18","74","1","2022-11-17 12:25:11","fd252370c17a9971d68c1d4354a03c2e","","Mozilla/5.0 (Macintosh; Intel Mac OS X 10_15_6) AppleWebKit/605.1.15 (KHTML, like Gecko) Version/15.6,2 Safari/605.1.15","Macintosh","Safari","15.6","OS X","10_15_6","null","null","","<p style=""font-size: 48px;"">+</p>","1","Filler","",""
"","","","","","sentence","3702","html-keyboard-response","108","160128","0.0-6.0-1.18","74","1","2022-11-17 12:25:11","fd252370c17a9971d68c1d4354a03c2e","","Mozilla/5.0 (Macintosh; Intel Mac OS X 10_15_6) AppleWebKit/605.1.15 (KHTML, like Gecko) Version/15.6,2 Safari/605.1.15","Macintosh","Safari","15.6","OS X","10_15_6","1628"," ","","An actress is taking a microphone","1","Filler","",""
"","","","","","fixation","3702","html-keyboard-response","109","160635","0.0-6.0-2.18","74","1","2022-11-17 12:25:11","fd252370c17a9971d68c1d4354a03c2e","","Mozilla/5.0 (Macintosh; Intel Mac OS X 10_15_6) AppleWebKit/605.1.15 (KHTML, like Gecko) Version/15.6,2 Safari/605.1.15","Macintosh","Safari","15.6","OS X","10_15_6","null","null","","<p style=""font-size: 48px;"">+</p>","1","Filler","",""
"","","","","","picture","3702","image-keyboard-response","110","161175","0.0-6.0-3.18","74","1","2022-11-17 12:25:11","fd252370c17a9971d68c1d4354a03c2e","","Mozilla/5.0 (Macintosh; Intel Mac OS X 10_15_6) AppleWebKit/605.1.15 (KHTML, like Gecko) Version/15.6,2 Safari/605.1.15","Macintosh","Safari","15.6","OS X","10_15_6","514","n","","pants.jpg","1","Filler","true",""
"","","","","","fixation","3702","html-keyboard-response","111","162184","0.0-6.0-0.19","74","1","2022-11-17 12:25:11","fd252370c17a9971d68c1d4354a03c2e","","Mozilla/5.0 (Macintosh; Intel Mac OS X 10_15_6) AppleWebKit/605.1.15 (KHTML, like Gecko) Version/15.6,2 Safari/605.1.15","Macintosh","Safari","15.6","OS X","10_15_6","null","null","","<p style=""font-size: 48px;"">+</p>","1","Heavy_Contradictory","",""
"","","","","","sentence","3702","html-keyboard-response","112","163210","0.0-6.0-1.19","74","1","2022-11-17 12:25:11","fd252370c17a9971d68c1d4354a03c2e","","Mozilla/5.0 (Macintosh; Intel Mac OS X 10_15_6) AppleWebKit/605.1.15 (KHTML, like Gecko) Version/15.6,2 Safari/605.1.15","Macintosh","Safari","15.6","OS X","10_15_6","1013"," ","","A bowling ball dropped and touched a banana","1","Heavy_Contradictory","",""
"","","","","","fixation","3702","html-keyboard-response","113","163718","0.0-6.0-2.19","74","1","2022-11-17 12:25:11","fd252370c17a9971d68c1d4354a03c2e","","Mozilla/5.0 (Macintosh; Intel Mac OS X 10_15_6) AppleWebKit/605.1.15 (KHTML, like Gecko) Version/15.6,2 Safari/605.1.15","Macintosh","Safari","15.6","OS X","10_15_6","null","null","","<p style=""font-size: 48px;"">+</p>","1","Heavy_Contradictory","",""
"","","","","","picture","3702","image-keyboard-response","114","164263","0.0-6.0-3.19","74","1","2022-11-17 12:25:11","fd252370c17a9971d68c1d4354a03c2e","","Mozilla/5.0 (Macintosh; Intel Mac OS X 10_15_6) AppleWebKit/605.1.15 (KHTML, like Gecko) Version/15.6,2 Safari/605.1.15","Macintosh","Safari","15.6","OS X","10_15_6","516","s","","bananaS.jpg","1","Heavy_Contradictory","true",""
"","","","","","fixation","3702","html-keyboard-response","115","165271","0.0-6.0-0.20","74","1","2022-11-17 12:25:11","fd252370c17a9971d68c1d4354a03c2e","","Mozilla/5.0 (Macintosh; Intel Mac OS X 10_15_6) AppleWebKit/605.1.15 (KHTML, like Gecko) Version/15.6,2 Safari/605.1.15","Macintosh","Safari","15.6","OS X","10_15_6","null","null","","<p style=""font-size: 48px;"">+</p>","1","Light_Contradictory","",""
"","","","","","sentence","3702","html-keyboard-response","116","166275","0.0-6.0-1.20","74","1","2022-11-17 12:25:11","fd252370c17a9971d68c1d4354a03c2e","","Mozilla/5.0 (Macintosh; Intel Mac OS X 10_15_6) AppleWebKit/605.1.15 (KHTML, like Gecko) Version/15.6,2 Safari/605.1.15","Macintosh","Safari","15.6","OS X","10_15_6","993"," ","","A balloon dropped and smashed a piece of sushi","1","Light_Contradictory","",""
"","","","","","fixation","3702","html-keyboard-response","117","166785","0.0-6.0-2.20","74","1","2022-11-17 12:25:11","fd252370c17a9971d68c1d4354a03c2e","","Mozilla/5.0 (Macintosh; Intel Mac OS X 10_15_6) AppleWebKit/605.1.15 (KHTML, like Gecko) Version/15.6,2 Safari/605.1.15","Macintosh","Safari","15.6","OS X","10_15_6","null","null","","<p style=""font-size: 48px;"">+</p>","1","Light_Contradictory","",""
"","","","","","picture","3702","image-keyboard-response","118","167356","0.0-6.0-3.20","74","1","2022-11-17 12:25:11","fd252370c17a9971d68c1d4354a03c2e","","Mozilla/5.0 (Macintosh; Intel Mac OS X 10_15_6) AppleWebKit/605.1.15 (KHTML, like Gecko) Version/15.6,2 Safari/605.1.15","Macintosh","Safari","15.6","OS X","10_15_6","541","s","","sushiS.jpg","1","Light_Contradictory","true",""
"","","","","","fixation","3702","html-keyboard-response","119","168365","0.0-6.0-0.21","74","1","2022-11-17 12:25:11","fd252370c17a9971d68c1d4354a03c2e","","Mozilla/5.0 (Macintosh; Intel Mac OS X 10_15_6) AppleWebKit/605.1.15 (KHTML, like Gecko) Version/15.6,2 Safari/605.1.15","Macintosh","Safari","15.6","OS X","10_15_6","null","null","","<p style=""font-size: 48px;"">+</p>","1","Filler","",""
"","","","","","sentence","3702","html-keyboard-response","120","169783","0.0-6.0-1.21","74","1","2022-11-17 12:25:11","fd252370c17a9971d68c1d4354a03c2e","","Mozilla/5.0 (Macintosh; Intel Mac OS X 10_15_6) AppleWebKit/605.1.15 (KHTML, like Gecko) Version/15.6,2 Safari/605.1.15","Macintosh","Safari","15.6","OS X","10_15_6","1405"," ","","A cook is taking a knife","1","Filler","",""
"","","","","","fixation","3702","html-keyboard-response","121","170292","0.0-6.0-2.21","74","1","2022-11-17 12:25:11","fd252370c17a9971d68c1d4354a03c2e","","Mozilla/5.0 (Macintosh; Intel Mac OS X 10_15_6) AppleWebKit/605.1.15 (KHTML, like Gecko) Version/15.6,2 Safari/605.1.15","Macintosh","Safari","15.6","OS X","10_15_6","null","null","","<p style=""font-size: 48px;"">+</p>","1","Filler","",""
"","","","","","picture","3702","image-keyboard-response","122","171194","0.0-6.0-3.21","74","1","2022-11-17 12:25:11","fd252370c17a9971d68c1d4354a03c2e","","Mozilla/5.0 (Macintosh; Intel Mac OS X 10_15_6) AppleWebKit/605.1.15 (KHTML, like Gecko) Version/15.6,2 Safari/605.1.15","Macintosh","Safari","15.6","OS X","10_15_6","876","s","","knife.jpg","1","Filler","true",""
"","","","","","fixation","3702","html-keyboard-response","123","172204","0.0-6.0-0.22","74","1","2022-11-17 12:25:11","fd252370c17a9971d68c1d4354a03c2e","","Mozilla/5.0 (Macintosh; Intel Mac OS X 10_15_6) AppleWebKit/605.1.15 (KHTML, like Gecko) Version/15.6,2 Safari/605.1.15","Macintosh","Safari","15.6","OS X","10_15_6","null","null","","<p style=""font-size: 48px;"">+</p>","1","Heavy_Matched","",""
"","","","","","sentence","3702","html-keyboard-response","124","173656","0.0-6.0-1.22","74","1","2022-11-17 12:25:11","fd252370c17a9971d68c1d4354a03c2e","","Mozilla/5.0 (Macintosh; Intel Mac OS X 10_15_6) AppleWebKit/605.1.15 (KHTML, like Gecko) Version/15.6,2 Safari/605.1.15","Macintosh","Safari","15.6","OS X","10_15_6","1439"," ","","A bowling ball dropped and smashed a cracker","1","Heavy_Matched","",""
"","","","","","fixation","3702","html-keyboard-response","125","174164","0.0-6.0-2.22","74","1","2022-11-17 12:25:11","fd252370c17a9971d68c1d4354a03c2e","","Mozilla/5.0 (Macintosh; Intel Mac OS X 10_15_6) AppleWebKit/605.1.15 (KHTML, like Gecko) Version/15.6,2 Safari/605.1.15","Macintosh","Safari","15.6","OS X","10_15_6","null","null","","<p style=""font-size: 48px;"">+</p>","1","Heavy_Matched","",""
"","","","","","picture","3702","image-keyboard-response","126","174734","0.0-6.0-3.22","74","1","2022-11-17 12:25:11","fd252370c17a9971d68c1d4354a03c2e","","Mozilla/5.0 (Macintosh; Intel Mac OS X 10_15_6) AppleWebKit/605.1.15 (KHTML, like Gecko) Version/15.6,2 Safari/605.1.15","Macintosh","Safari","15.6","OS X","10_15_6","546","s","","crackerS.jpg","1","Heavy_Matched","true",""
"","","","","","fixation","3702","html-keyboard-response","127","175743","0.0-6.0-0.23","74","1","2022-11-17 12:25:11","fd252370c17a9971d68c1d4354a03c2e","","Mozilla/5.0 (Macintosh; Intel Mac OS X 10_15_6) AppleWebKit/605.1.15 (KHTML, like Gecko) Version/15.6,2 Safari/605.1.15","Macintosh","Safari","15.6","OS X","10_15_6","null","null","","<p style=""font-size: 48px;"">+</p>","1","Filler","",""
"","","","","","sentence","3702","html-keyboard-response","128","176144","0.0-6.0-1.23","74","1","2022-11-17 12:25:11","fd252370c17a9971d68c1d4354a03c2e","","Mozilla/5.0 (Macintosh; Intel Mac OS X 10_15_6) AppleWebKit/605.1.15 (KHTML, like Gecko) Version/15.6,2 Safari/605.1.15","Macintosh","Safari","15.6","OS X","10_15_6","390"," ","","A boy is wearing a hat","1","Filler","",""
"","","","","","fixation","3702","html-keyboard-response","129","176653","0.0-6.0-2.23","74","1","2022-11-17 12:25:11","fd252370c17a9971d68c1d4354a03c2e","","Mozilla/5.0 (Macintosh; Intel Mac OS X 10_15_6) AppleWebKit/605.1.15 (KHTML, like Gecko) Version/15.6,2 Safari/605.1.15","Macintosh","Safari","15.6","OS X","10_15_6","null","null","","<p style=""font-size: 48px;"">+</p>","1","Filler","",""
"","","","","","picture","3702","image-keyboard-response","130","177734","0.0-6.0-3.23","74","1","2022-11-17 12:25:11","fd252370c17a9971d68c1d4354a03c2e","","Mozilla/5.0 (Macintosh; Intel Mac OS X 10_15_6) AppleWebKit/605.1.15 (KHTML, like Gecko) Version/15.6,2 Safari/605.1.15","Macintosh","Safari","15.6","OS X","10_15_6","1051","s","","hat.jpg","1","Filler","true",""
"","","","","","fixation","3702","html-keyboard-response","131","178744","0.0-6.0-0.24","74","1","2022-11-17 12:25:11","fd252370c17a9971d68c1d4354a03c2e","","Mozilla/5.0 (Macintosh; Intel Mac OS X 10_15_6) AppleWebKit/605.1.15 (KHTML, like Gecko) Version/15.6,2 Safari/605.1.15","Macintosh","Safari","15.6","OS X","10_15_6","null","null","","<p style=""font-size: 48px;"">+</p>","1","Light_Matched","",""
"","","","","","sentence","3702","html-keyboard-response","132","179988","0.0-6.0-1.24","74","1","2022-11-17 12:25:11","fd252370c17a9971d68c1d4354a03c2e","","Mozilla/5.0 (Macintosh; Intel Mac OS X 10_15_6) AppleWebKit/605.1.15 (KHTML, like Gecko) Version/15.6,2 Safari/605.1.15","Macintosh","Safari","15.6","OS X","10_15_6","1230"," ","","A balloon dropped and touched a rice cake","1","Light_Matched","",""
"","","","","","fixation","3702","html-keyboard-response","133","180496","0.0-6.0-2.24","74","1","2022-11-17 12:25:11","fd252370c17a9971d68c1d4354a03c2e","","Mozilla/5.0 (Macintosh; Intel Mac OS X 10_15_6) AppleWebKit/605.1.15 (KHTML, like Gecko) Version/15.6,2 Safari/605.1.15","Macintosh","Safari","15.6","OS X","10_15_6","null","null","","<p style=""font-size: 48px;"">+</p>","1","Light_Matched","",""
"","","","","","picture","3702","image-keyboard-response","134","181334","0.0-6.0-3.24","74","1","2022-11-17 12:25:11","fd252370c17a9971d68c1d4354a03c2e","","Mozilla/5.0 (Macintosh; Intel Mac OS X 10_15_6) AppleWebKit/605.1.15 (KHTML, like Gecko) Version/15.6,2 Safari/605.1.15","Macintosh","Safari","15.6","OS X","10_15_6","810","s","","tortitaS.jpg","1","Light_Matched","true",""
"","","","","","fixation","3702","html-keyboard-response","135","182343","0.0-6.0-0.25","74","1","2022-11-17 12:25:11","fd252370c17a9971d68c1d4354a03c2e","","Mozilla/5.0 (Macintosh; Intel Mac OS X 10_15_6) AppleWebKit/605.1.15 (KHTML, like Gecko) Version/15.6,2 Safari/605.1.15","Macintosh","Safari","15.6","OS X","10_15_6","null","null","","<p style=""font-size: 48px;"">+</p>","1","Filler","",""
"","","","","","sentence","3702","html-keyboard-response","136","183556","0.0-6.0-1.25","74","1","2022-11-17 12:25:11","fd252370c17a9971d68c1d4354a03c2e","","Mozilla/5.0 (Macintosh; Intel Mac OS X 10_15_6) AppleWebKit/605.1.15 (KHTML, like Gecko) Version/15.6,2 Safari/605.1.15","Macintosh","Safari","15.6","OS X","10_15_6","1199"," ","","A nurse is taking a syringe","1","Filler","",""
"","","","","","fixation","3702","html-keyboard-response","137","184064","0.0-6.0-2.25","74","1","2022-11-17 12:25:11","fd252370c17a9971d68c1d4354a03c2e","","Mozilla/5.0 (Macintosh; Intel Mac OS X 10_15_6) AppleWebKit/605.1.15 (KHTML, like Gecko) Version/15.6,2 Safari/605.1.15","Macintosh","Safari","15.6","OS X","10_15_6","null","null","","<p style=""font-size: 48px;"">+</p>","1","Filler","",""
"","","","","","picture","3702","image-keyboard-response","138","184755","0.0-6.0-3.25","74","1","2022-11-17 12:25:11","fd252370c17a9971d68c1d4354a03c2e","","Mozilla/5.0 (Macintosh; Intel Mac OS X 10_15_6) AppleWebKit/605.1.15 (KHTML, like Gecko) Version/15.6,2 Safari/605.1.15","Macintosh","Safari","15.6","OS X","10_15_6","668","n","","headphones.jpg","1","Filler","true",""
"","","","","","fixation","3702","html-keyboard-response","139","185766","0.0-6.0-0.26","74","1","2022-11-17 12:25:11","fd252370c17a9971d68c1d4354a03c2e","","Mozilla/5.0 (Macintosh; Intel Mac OS X 10_15_6) AppleWebKit/605.1.15 (KHTML, like Gecko) Version/15.6,2 Safari/605.1.15","Macintosh","Safari","15.6","OS X","10_15_6","null","null","","<p style=""font-size: 48px;"">+</p>","1","Filler","",""
"","","","","","sentence","3702","html-keyboard-response","140","187129","0.0-6.0-1.26","74","1","2022-11-17 12:25:11","fd252370c17a9971d68c1d4354a03c2e","","Mozilla/5.0 (Macintosh; Intel Mac OS X 10_15_6) AppleWebKit/605.1.15 (KHTML, like Gecko) Version/15.6,2 Safari/605.1.15","Macintosh","Safari","15.6","OS X","10_15_6","1350"," ","","A doctor is taking a stethoscope","1","Filler","",""
"","","","","","fixation","3702","html-keyboard-response","141","187638","0.0-6.0-2.26","74","1","2022-11-17 12:25:11","fd252370c17a9971d68c1d4354a03c2e","","Mozilla/5.0 (Macintosh; Intel Mac OS X 10_15_6) AppleWebKit/605.1.15 (KHTML, like Gecko) Version/15.6,2 Safari/605.1.15","Macintosh","Safari","15.6","OS X","10_15_6","null","null","","<p style=""font-size: 48px;"">+</p>","1","Filler","",""
"","","","","","picture","3702","image-keyboard-response","142","188324","0.0-6.0-3.26","74","1","2022-11-17 12:25:11","fd252370c17a9971d68c1d4354a03c2e","","Mozilla/5.0 (Macintosh; Intel Mac OS X 10_15_6) AppleWebKit/605.1.15 (KHTML, like Gecko) Version/15.6,2 Safari/605.1.15","Macintosh","Safari","15.6","OS X","10_15_6","660","n","","matchesbox.jpg","1","Filler","true",""
"","","","","","fixation","3702","html-keyboard-response","143","189333","0.0-6.0-0.27","74","1","2022-11-17 12:25:11","fd252370c17a9971d68c1d4354a03c2e","","Mozilla/5.0 (Macintosh; Intel Mac OS X 10_15_6) AppleWebKit/605.1.15 (KHTML, like Gecko) Version/15.6,2 Safari/605.1.15","Macintosh","Safari","15.6","OS X","10_15_6","null","null","","<p style=""font-size: 48px;"">+</p>","1","Light_Matched","",""
"","","","","","sentence","3702","html-keyboard-response","144","190788","0.0-6.0-1.27","74","1","2022-11-17 12:25:11","fd252370c17a9971d68c1d4354a03c2e","","Mozilla/5.0 (Macintosh; Intel Mac OS X 10_15_6) AppleWebKit/605.1.15 (KHTML, like Gecko) Version/15.6,2 Safari/605.1.15","Macintosh","Safari","15.6","OS X","10_15_6","1442"," ","","A balloon dropped and touched a light bulb","1","Light_Matched","",""
"","","","","","fixation","3702","html-keyboard-response","145","191298","0.0-6.0-2.27","74","1","2022-11-17 12:25:11","fd252370c17a9971d68c1d4354a03c2e","","Mozilla/5.0 (Macintosh; Intel Mac OS X 10_15_6) AppleWebKit/605.1.15 (KHTML, like Gecko) Version/15.6,2 Safari/605.1.15","Macintosh","Safari","15.6","OS X","10_15_6","null","null","","<p style=""font-size: 48px;"">+</p>","1","Light_Matched","",""
"","","","","","picture","3702","image-keyboard-response","146","192075","0.0-6.0-3.27","74","1","2022-11-17 12:25:11","fd252370c17a9971d68c1d4354a03c2e","","Mozilla/5.0 (Macintosh; Intel Mac OS X 10_15_6) AppleWebKit/605.1.15 (KHTML, like Gecko) Version/15.6,2 Safari/605.1.15","Macintosh","Safari","15.6","OS X","10_15_6","750","s","","lampS.jpg","1","Light_Matched","true",""
"","","","","","fixation","3702","html-keyboard-response","147","193084","0.0-6.0-0.28","74","1","2022-11-17 12:25:11","fd252370c17a9971d68c1d4354a03c2e","","Mozilla/5.0 (Macintosh; Intel Mac OS X 10_15_6) AppleWebKit/605.1.15 (KHTML, like Gecko) Version/15.6,2 Safari/605.1.15","Macintosh","Safari","15.6","OS X","10_15_6","null","null","","<p style=""font-size: 48px;"">+</p>","1","Filler","",""
"","","","","","sentence","3702","html-keyboard-response","148","194683","0.0-6.0-1.28","74","1","2022-11-17 12:25:11","fd252370c17a9971d68c1d4354a03c2e","","Mozilla/5.0 (Macintosh; Intel Mac OS X 10_15_6) AppleWebKit/605.1.15 (KHTML, like Gecko) Version/15.6,2 Safari/605.1.15","Macintosh","Safari","15.6","OS X","10_15_6","1582"," ","","A horse is chewing hay","1","Filler","",""
"","","","","","fixation","3702","html-keyboard-response","149","195193","0.0-6.0-2.28","74","1","2022-11-17 12:25:11","fd252370c17a9971d68c1d4354a03c2e","","Mozilla/5.0 (Macintosh; Intel Mac OS X 10_15_6) AppleWebKit/605.1.15 (KHTML, like Gecko) Version/15.6,2 Safari/605.1.15","Macintosh","Safari","15.6","OS X","10_15_6","null","null","","<p style=""font-size: 48px;"">+</p>","1","Filler","",""
"","","","","","picture","3702","image-keyboard-response","150","195673","0.0-6.0-3.28","74","1","2022-11-17 12:25:11","fd252370c17a9971d68c1d4354a03c2e","","Mozilla/5.0 (Macintosh; Intel Mac OS X 10_15_6) AppleWebKit/605.1.15 (KHTML, like Gecko) Version/15.6,2 Safari/605.1.15","Macintosh","Safari","15.6","OS X","10_15_6","456","n","","purse.jpg","1","Filler","true",""
"","","","","","fixation","3702","html-keyboard-response","151","196683","0.0-6.0-0.29","74","1","2022-11-17 12:25:11","fd252370c17a9971d68c1d4354a03c2e","","Mozilla/5.0 (Macintosh; Intel Mac OS X 10_15_6) AppleWebKit/605.1.15 (KHTML, like Gecko) Version/15.6,2 Safari/605.1.15","Macintosh","Safari","15.6","OS X","10_15_6","null","null","","<p style=""font-size: 48px;"">+</p>","1","Filler","",""
"","","","","","sentence","3702","html-keyboard-response","152","197534","0.0-6.0-1.29","74","1","2022-11-17 12:25:11","fd252370c17a9971d68c1d4354a03c2e","","Mozilla/5.0 (Macintosh; Intel Mac OS X 10_15_6) AppleWebKit/605.1.15 (KHTML, like Gecko) Version/15.6,2 Safari/605.1.15","Macintosh","Safari","15.6","OS X","10_15_6","838"," ","","A thief is stealing a wallet","1","Filler","",""
"","","","","","fixation","3702","html-keyboard-response","153","198044","0.0-6.0-2.29","74","1","2022-11-17 12:25:11","fd252370c17a9971d68c1d4354a03c2e","","Mozilla/5.0 (Macintosh; Intel Mac OS X 10_15_6) AppleWebKit/605.1.15 (KHTML, like Gecko) Version/15.6,2 Safari/605.1.15","Macintosh","Safari","15.6","OS X","10_15_6","null","null","","<p style=""font-size: 48px;"">+</p>","1","Filler","",""
"","","","","","picture","3702","image-keyboard-response","154","198588","0.0-6.0-3.29","74","1","2022-11-17 12:25:11","fd252370c17a9971d68c1d4354a03c2e","","Mozilla/5.0 (Macintosh; Intel Mac OS X 10_15_6) AppleWebKit/605.1.15 (KHTML, like Gecko) Version/15.6,2 Safari/605.1.15","Macintosh","Safari","15.6","OS X","10_15_6","520","n","","teddybear.jpg","1","Filler","true",""
"","","","","","fixation","3702","html-keyboard-response","155","199597","0.0-6.0-0.30","74","1","2022-11-17 12:25:11","fd252370c17a9971d68c1d4354a03c2e","","Mozilla/5.0 (Macintosh; Intel Mac OS X 10_15_6) AppleWebKit/605.1.15 (KHTML, like Gecko) Version/15.6,2 Safari/605.1.15","Macintosh","Safari","15.6","OS X","10_15_6","null","null","","<p style=""font-size: 48px;"">+</p>","1","Heavy_Matched","",""
"","","","","","sentence","3702","html-keyboard-response","156","200683","0.0-6.0-1.30","74","1","2022-11-17 12:25:11","fd252370c17a9971d68c1d4354a03c2e","","Mozilla/5.0 (Macintosh; Intel Mac OS X 10_15_6) AppleWebKit/605.1.15 (KHTML, like Gecko) Version/15.6,2 Safari/605.1.15","Macintosh","Safari","15.6","OS X","10_15_6","1072"," ","","A bowling ball dropped and smashed a TV","1","Heavy_Matched","",""
"","","","","","fixation","3702","html-keyboard-response","157","201193","0.0-6.0-2.30","74","1","2022-11-17 12:25:11","fd252370c17a9971d68c1d4354a03c2e","","Mozilla/5.0 (Macintosh; Intel Mac OS X 10_15_6) AppleWebKit/605.1.15 (KHTML, like Gecko) Version/15.6,2 Safari/605.1.15","Macintosh","Safari","15.6","OS X","10_15_6","null","null","","<p style=""font-size: 48px;"">+</p>","1","Heavy_Matched","",""
"","","","","","picture","3702","image-keyboard-response","158","202097","0.0-6.0-3.30","74","1","2022-11-17 12:25:11","fd252370c17a9971d68c1d4354a03c2e","","Mozilla/5.0 (Macintosh; Intel Mac OS X 10_15_6) AppleWebKit/605.1.15 (KHTML, like Gecko) Version/15.6,2 Safari/605.1.15","Macintosh","Safari","15.6","OS X","10_15_6","877","s","","tvS.jpg","1","Heavy_Matched","true",""
"","","","","","fixation","3702","html-keyboard-response","159","203110","0.0-6.0-0.31","74","1","2022-11-17 12:25:11","fd252370c17a9971d68c1d4354a03c2e","","Mozilla/5.0 (Macintosh; Intel Mac OS X 10_15_6) AppleWebKit/605.1.15 (KHTML, like Gecko) Version/15.6,2 Safari/605.1.15","Macintosh","Safari","15.6","OS X","10_15_6","null","null","","<p style=""font-size: 48px;"">+</p>","1","Filler","",""
"","","","","","sentence","3702","html-keyboard-response","160","204735","0.0-6.0-1.31","74","1","2022-11-17 12:25:11","fd252370c17a9971d68c1d4354a03c2e","","Mozilla/5.0 (Macintosh; Intel Mac OS X 10_15_6) AppleWebKit/605.1.15 (KHTML, like Gecko) Version/15.6,2 Safari/605.1.15","Macintosh","Safari","15.6","OS X","10_15_6","1610"," ","","A photographer is taking a photo of a lion","1","Filler","",""
"","","","","","fixation","3702","html-keyboard-response","161","205245","0.0-6.0-2.31","74","1","2022-11-17 12:25:11","fd252370c17a9971d68c1d4354a03c2e","","Mozilla/5.0 (Macintosh; Intel Mac OS X 10_15_6) AppleWebKit/605.1.15 (KHTML, like Gecko) Version/15.6,2 Safari/605.1.15","Macintosh","Safari","15.6","OS X","10_15_6","null","null","","<p style=""font-size: 48px;"">+</p>","1","Filler","",""
"","","","","","picture","3702","image-keyboard-response","162","205964","0.0-6.0-3.31","74","1","2022-11-17 12:25:11","fd252370c17a9971d68c1d4354a03c2e","","Mozilla/5.0 (Macintosh; Intel Mac OS X 10_15_6) AppleWebKit/605.1.15 (KHTML, like Gecko) Version/15.6,2 Safari/605.1.15","Macintosh","Safari","15.6","OS X","10_15_6","687","s","","lion.jpg","1","Filler","true",""
"","","","","","fixation","3702","html-keyboard-response","163","206974","0.0-6.0-0.32","74","1","2022-11-17 12:25:11","fd252370c17a9971d68c1d4354a03c2e","","Mozilla/5.0 (Macintosh; Intel Mac OS X 10_15_6) AppleWebKit/605.1.15 (KHTML, like Gecko) Version/15.6,2 Safari/605.1.15","Macintosh","Safari","15.6","OS X","10_15_6","null","null","","<p style=""font-size: 48px;"">+</p>","1","Filler","",""
"","","","","","sentence","3702","html-keyboard-response","164","208634","0.0-6.0-1.32","74","1","2022-11-17 12:25:11","fd252370c17a9971d68c1d4354a03c2e","","Mozilla/5.0 (Macintosh; Intel Mac OS X 10_15_6) AppleWebKit/605.1.15 (KHTML, like Gecko) Version/15.6,2 Safari/605.1.15","Macintosh","Safari","15.6","OS X","10_15_6","1646"," ","","A woman is paying with a debit card","1","Filler","",""
"","","","","","fixation","3702","html-keyboard-response","165","209145","0.0-6.0-2.32","74","1","2022-11-17 12:25:11","fd252370c17a9971d68c1d4354a03c2e","","Mozilla/5.0 (Macintosh; Intel Mac OS X 10_15_6) AppleWebKit/605.1.15 (KHTML, like Gecko) Version/15.6,2 Safari/605.1.15","Macintosh","Safari","15.6","OS X","10_15_6","null","null","","<p style=""font-size: 48px;"">+</p>","1","Filler","",""
"","","","","","picture","3702","image-keyboard-response","166","209746","0.0-6.0-3.32","74","1","2022-11-17 12:25:11","fd252370c17a9971d68c1d4354a03c2e","","Mozilla/5.0 (Macintosh; Intel Mac OS X 10_15_6) AppleWebKit/605.1.15 (KHTML, like Gecko) Version/15.6,2 Safari/605.1.15","Macintosh","Safari","15.6","OS X","10_15_6","575","n","","papercup.jpg","1","Filler","true",""
"","","","","","fixation","3702","html-keyboard-response","167","210758","0.0-6.0-0.33","74","1","2022-11-17 12:25:11","fd252370c17a9971d68c1d4354a03c2e","","Mozilla/5.0 (Macintosh; Intel Mac OS X 10_15_6) AppleWebKit/605.1.15 (KHTML, like Gecko) Version/15.6,2 Safari/605.1.15","Macintosh","Safari","15.6","OS X","10_15_6","null","null","","<p style=""font-size: 48px;"">+</p>","1","Heavy_Matched","",""
"","","","","","sentence","3702","html-keyboard-response","168","212654","0.0-6.0-1.33","74","1","2022-11-17 12:25:11","fd252370c17a9971d68c1d4354a03c2e","","Mozilla/5.0 (Macintosh; Intel Mac OS X 10_15_6) AppleWebKit/605.1.15 (KHTML, like Gecko) Version/15.6,2 Safari/605.1.15","Macintosh","Safari","15.6","OS X","10_15_6","1882"," ","","A bowling ball dropped and smashed a piece of cake","1","Heavy_Matched","",""
"","","","","","fixation","3702","html-keyboard-response","169","213164","0.0-6.0-2.33","74","1","2022-11-17 12:25:11","fd252370c17a9971d68c1d4354a03c2e","","Mozilla/5.0 (Macintosh; Intel Mac OS X 10_15_6) AppleWebKit/605.1.15 (KHTML, like Gecko) Version/15.6,2 Safari/605.1.15","Macintosh","Safari","15.6","OS X","10_15_6","null","null","","<p style=""font-size: 48px;"">+</p>","1","Heavy_Matched","",""
"","","","","","picture","3702","image-keyboard-response","170","214270","0.0-6.0-3.33","74","1","2022-11-17 12:25:11","fd252370c17a9971d68c1d4354a03c2e","","Mozilla/5.0 (Macintosh; Intel Mac OS X 10_15_6) AppleWebKit/605.1.15 (KHTML, like Gecko) Version/15.6,2 Safari/605.1.15","Macintosh","Safari","15.6","OS X","10_15_6","1077","s","","cakeS.jpg","1","Heavy_Matched","true",""
"","","","","","fixation","3702","html-keyboard-response","171","215281","0.0-6.0-0.34","74","1","2022-11-17 12:25:11","fd252370c17a9971d68c1d4354a03c2e","","Mozilla/5.0 (Macintosh; Intel Mac OS X 10_15_6) AppleWebKit/605.1.15 (KHTML, like Gecko) Version/15.6,2 Safari/605.1.15","Macintosh","Safari","15.6","OS X","10_15_6","null","null","","<p style=""font-size: 48px;"">+</p>","1","Filler","",""
"","","","","","sentence","3702","html-keyboard-response","172","216221","0.0-6.0-1.34","74","1","2022-11-17 12:25:11","fd252370c17a9971d68c1d4354a03c2e","","Mozilla/5.0 (Macintosh; Intel Mac OS X 10_15_6) AppleWebKit/605.1.15 (KHTML, like Gecko) Version/15.6,2 Safari/605.1.15","Macintosh","Safari","15.6","OS X","10_15_6","922"," ","","A puppy is playing with a ball","1","Filler","",""
"","","","","","fixation","3702","html-keyboard-response","173","216732","0.0-6.0-2.34","74","1","2022-11-17 12:25:11","fd252370c17a9971d68c1d4354a03c2e","","Mozilla/5.0 (Macintosh; Intel Mac OS X 10_15_6) AppleWebKit/605.1.15 (KHTML, like Gecko) Version/15.6,2 Safari/605.1.15","Macintosh","Safari","15.6","OS X","10_15_6","null","null","","<p style=""font-size: 48px;"">+</p>","1","Filler","",""
"","","","","","picture","3702","image-keyboard-response","174","217844","0.0-6.0-3.34","74","1","2022-11-17 12:25:11","fd252370c17a9971d68c1d4354a03c2e","","Mozilla/5.0 (Macintosh; Intel Mac OS X 10_15_6) AppleWebKit/605.1.15 (KHTML, like Gecko) Version/15.6,2 Safari/605.1.15","Macintosh","Safari","15.6","OS X","10_15_6","1086","s","","tennisball.jpg","1","Filler","true",""
"","","","","","fixation","3702","html-keyboard-response","175","218854","0.0-6.0-0.35","74","1","2022-11-17 12:25:11","fd252370c17a9971d68c1d4354a03c2e","","Mozilla/5.0 (Macintosh; Intel Mac OS X 10_15_6) AppleWebKit/605.1.15 (KHTML, like Gecko) Version/15.6,2 Safari/605.1.15","Macintosh","Safari","15.6","OS X","10_15_6","null","null","","<p style=""font-size: 48px;"">+</p>","1","Filler","",""
"","","","","","sentence","3702","html-keyboard-response","176","219645","0.0-6.0-1.35","74","1","2022-11-17 12:25:11","fd252370c17a9971d68c1d4354a03c2e","","Mozilla/5.0 (Macintosh; Intel Mac OS X 10_15_6) AppleWebKit/605.1.15 (KHTML, like Gecko) Version/15.6,2 Safari/605.1.15","Macintosh","Safari","15.6","OS X","10_15_6","773"," ","","A musician is playing a guitar","1","Filler","",""
"","","","","","fixation","3702","html-keyboard-response","177","220156","0.0-6.0-2.35","74","1","2022-11-17 12:25:11","fd252370c17a9971d68c1d4354a03c2e","","Mozilla/5.0 (Macintosh; Intel Mac OS X 10_15_6) AppleWebKit/605.1.15 (KHTML, like Gecko) Version/15.6,2 Safari/605.1.15","Macintosh","Safari","15.6","OS X","10_15_6","null","null","","<p style=""font-size: 48px;"">+</p>","1","Filler","",""
"","","","","","picture","3702","image-keyboard-response","178","220905","0.0-6.0-3.35","74","1","2022-11-17 12:25:11","fd252370c17a9971d68c1d4354a03c2e","","Mozilla/5.0 (Macintosh; Intel Mac OS X 10_15_6) AppleWebKit/605.1.15 (KHTML, like Gecko) Version/15.6,2 Safari/605.1.15","Macintosh","Safari","15.6","OS X","10_15_6","722","s","","guitar.jpg","1","Filler","true",""
"","","","","","fixation","3702","html-keyboard-response","179","221916","0.0-6.0-0.36","74","1","2022-11-17 12:25:11","fd252370c17a9971d68c1d4354a03c2e","","Mozilla/5.0 (Macintosh; Intel Mac OS X 10_15_6) AppleWebKit/605.1.15 (KHTML, like Gecko) Version/15.6,2 Safari/605.1.15","Macintosh","Safari","15.6","OS X","10_15_6","null","null","","<p style=""font-size: 48px;"">+</p>","1","Filler","",""
"","","","","","sentence","3702","html-keyboard-response","180","222949","0.0-6.0-1.36","74","1","2022-11-17 12:25:11","fd252370c17a9971d68c1d4354a03c2e","","Mozilla/5.0 (Macintosh; Intel Mac OS X 10_15_6) AppleWebKit/605.1.15 (KHTML, like Gecko) Version/15.6,2 Safari/605.1.15","Macintosh","Safari","15.6","OS X","10_15_6","1014"," ","","A postman is driving a car","1","Filler","",""
"","","","","","fixation","3702","html-keyboard-response","181","223459","0.0-6.0-2.36","74","1","2022-11-17 12:25:11","fd252370c17a9971d68c1d4354a03c2e","","Mozilla/5.0 (Macintosh; Intel Mac OS X 10_15_6) AppleWebKit/605.1.15 (KHTML, like Gecko) Version/15.6,2 Safari/605.1.15","Macintosh","Safari","15.6","OS X","10_15_6","null","null","","<p style=""font-size: 48px;"">+</p>","1","Filler","",""
"","","","","","picture","3702","image-keyboard-response","182","224085","0.0-6.0-3.36","74","1","2022-11-17 12:25:11","fd252370c17a9971d68c1d4354a03c2e","","Mozilla/5.0 (Macintosh; Intel Mac OS X 10_15_6) AppleWebKit/605.1.15 (KHTML, like Gecko) Version/15.6,2 Safari/605.1.15","Macintosh","Safari","15.6","OS X","10_15_6","599","s","","car.jpg","1","Filler","true",""
"","","","","","fixation","3702","html-keyboard-response","183","225096","0.0-6.0-0.37","74","1","2022-11-17 12:25:11","fd252370c17a9971d68c1d4354a03c2e","","Mozilla/5.0 (Macintosh; Intel Mac OS X 10_15_6) AppleWebKit/605.1.15 (KHTML, like Gecko) Version/15.6,2 Safari/605.1.15","Macintosh","Safari","15.6","OS X","10_15_6","null","null","","<p style=""font-size: 48px;"">+</p>","1","Light_Contradictory","",""
"","","","","","sentence","3702","html-keyboard-response","184","226218","0.0-6.0-1.37","74","1","2022-11-17 12:25:11","fd252370c17a9971d68c1d4354a03c2e","","Mozilla/5.0 (Macintosh; Intel Mac OS X 10_15_6) AppleWebKit/605.1.15 (KHTML, like Gecko) Version/15.6,2 Safari/605.1.15","Macintosh","Safari","15.6","OS X","10_15_6","1107"," ","","A balloon dropped and smashed a ceramic plate","1","Light_Contradictory","",""
"","","","","","fixation","3702","html-keyboard-response","185","226728","0.0-6.0-2.37","74","1","2022-11-17 12:25:11","fd252370c17a9971d68c1d4354a03c2e","","Mozilla/5.0 (Macintosh; Intel Mac OS X 10_15_6) AppleWebKit/605.1.15 (KHTML, like Gecko) Version/15.6,2 Safari/605.1.15","Macintosh","Safari","15.6","OS X","10_15_6","null","null","","<p style=""font-size: 48px;"">+</p>","1","Light_Contradictory","",""
"","","","","","picture","3702","image-keyboard-response","186","227477","0.0-6.0-3.37","74","1","2022-11-17 12:25:11","fd252370c17a9971d68c1d4354a03c2e","","Mozilla/5.0 (Macintosh; Intel Mac OS X 10_15_6) AppleWebKit/605.1.15 (KHTML, like Gecko) Version/15.6,2 Safari/605.1.15","Macintosh","Safari","15.6","OS X","10_15_6","716","s","","plateS.jpg","1","Light_Contradictory","true",""
"","","","","","fixation","3702","html-keyboard-response","187","228493","0.0-6.0-0.38","74","1","2022-11-17 12:25:11","fd252370c17a9971d68c1d4354a03c2e","","Mozilla/5.0 (Macintosh; Intel Mac OS X 10_15_6) AppleWebKit/605.1.15 (KHTML, like Gecko) Version/15.6,2 Safari/605.1.15","Macintosh","Safari","15.6","OS X","10_15_6","null","null","","<p style=""font-size: 48px;"">+</p>","1","Heavy_Matched","",""
"","","","","","sentence","3702","html-keyboard-response","188","229754","0.0-6.0-1.38","74","1","2022-11-17 12:25:11","fd252370c17a9971d68c1d4354a03c2e","","Mozilla/5.0 (Macintosh; Intel Mac OS X 10_15_6) AppleWebKit/605.1.15 (KHTML, like Gecko) Version/15.6,2 Safari/605.1.15","Macintosh","Safari","15.6","OS X","10_15_6","1245"," ","","A bowling ball dropped and smashed a porcelain figure","1","Heavy_Matched","",""
"","","","","","fixation","3702","html-keyboard-response","189","230265","0.0-6.0-2.38","74","1","2022-11-17 12:25:11","fd252370c17a9971d68c1d4354a03c2e","","Mozilla/5.0 (Macintosh; Intel Mac OS X 10_15_6) AppleWebKit/605.1.15 (KHTML, like Gecko) Version/15.6,2 Safari/605.1.15","Macintosh","Safari","15.6","OS X","10_15_6","null","null","","<p style=""font-size: 48px;"">+</p>","1","Heavy_Matched","",""
"","","","","","picture","3702","image-keyboard-response","190","230895","0.0-6.0-3.38","74","1","2022-11-17 12:25:11","fd252370c17a9971d68c1d4354a03c2e","","Mozilla/5.0 (Macintosh; Intel Mac OS X 10_15_6) AppleWebKit/605.1.15 (KHTML, like Gecko) Version/15.6,2 Safari/605.1.15","Macintosh","Safari","15.6","OS X","10_15_6","602","s","","figureS.jpg","1","Heavy_Matched","true",""
"","","","","","fixation","3702","html-keyboard-response","191","231905","0.0-6.0-0.39","74","1","2022-11-17 12:25:11","fd252370c17a9971d68c1d4354a03c2e","","Mozilla/5.0 (Macintosh; Intel Mac OS X 10_15_6) AppleWebKit/605.1.15 (KHTML, like Gecko) Version/15.6,2 Safari/605.1.15","Macintosh","Safari","15.6","OS X","10_15_6","null","null","","<p style=""font-size: 48px;"">+</p>","1","Light_Matched","",""
"","","","","","sentence","3702","html-keyboard-response","192","235631","0.0-6.0-1.39","74","1","2022-11-17 12:25:11","fd252370c17a9971d68c1d4354a03c2e","","Mozilla/5.0 (Macintosh; Intel Mac OS X 10_15_6) AppleWebKit/605.1.15 (KHTML, like Gecko) Version/15.6,2 Safari/605.1.15","Macintosh","Safari","15.6","OS X","10_15_6","3711"," ","","A balloon dropped and touched a donut","1","Light_Matched","",""
"","","","","","fixation","3702","html-keyboard-response","193","236142","0.0-6.0-2.39","74","1","2022-11-17 12:25:11","fd252370c17a9971d68c1d4354a03c2e","","Mozilla/5.0 (Macintosh; Intel Mac OS X 10_15_6) AppleWebKit/605.1.15 (KHTML, like Gecko) Version/15.6,2 Safari/605.1.15","Macintosh","Safari","15.6","OS X","10_15_6","null","null","","<p style=""font-size: 48px;"">+</p>","1","Light_Matched","",""
"","","","","","picture","3702","image-keyboard-response","194","236802","0.0-6.0-3.39","74","1","2022-11-17 12:25:11","fd252370c17a9971d68c1d4354a03c2e","","Mozilla/5.0 (Macintosh; Intel Mac OS X 10_15_6) AppleWebKit/605.1.15 (KHTML, like Gecko) Version/15.6,2 Safari/605.1.15","Macintosh","Safari","15.6","OS X","10_15_6","632","s","","donutS.jpg","1","Light_Matched","true",""
"","","","","","fixation","3702","html-keyboard-response","195","237814","0.0-6.0-0.40","74","1","2022-11-17 12:25:11","fd252370c17a9971d68c1d4354a03c2e","","Mozilla/5.0 (Macintosh; Intel Mac OS X 10_15_6) AppleWebKit/605.1.15 (KHTML, like Gecko) Version/15.6,2 Safari/605.1.15","Macintosh","Safari","15.6","OS X","10_15_6","null","null","","<p style=""font-size: 48px;"">+</p>","1","Light_Matched","",""
"","","","","","sentence","3702","html-keyboard-response","196","238694","0.0-6.0-1.40","74","1","2022-11-17 12:25:11","fd252370c17a9971d68c1d4354a03c2e","","Mozilla/5.0 (Macintosh; Intel Mac OS X 10_15_6) AppleWebKit/605.1.15 (KHTML, like Gecko) Version/15.6,2 Safari/605.1.15","Macintosh","Safari","15.6","OS X","10_15_6","864"," ","","A balloon dropped and touched a mirror","1","Light_Matched","",""
"","","","","","fixation","3702","html-keyboard-response","197","239206","0.0-6.0-2.40","74","1","2022-11-17 12:25:11","fd252370c17a9971d68c1d4354a03c2e","","Mozilla/5.0 (Macintosh; Intel Mac OS X 10_15_6) AppleWebKit/605.1.15 (KHTML, like Gecko) Version/15.6,2 Safari/605.1.15","Macintosh","Safari","15.6","OS X","10_15_6","null","null","","<p style=""font-size: 48px;"">+</p>","1","Light_Matched","",""
"","","","","","picture","3702","image-keyboard-response","198","239806","0.0-6.0-3.40","74","1","2022-11-17 12:25:11","fd252370c17a9971d68c1d4354a03c2e","","Mozilla/5.0 (Macintosh; Intel Mac OS X 10_15_6) AppleWebKit/605.1.15 (KHTML, like Gecko) Version/15.6,2 Safari/605.1.15","Macintosh","Safari","15.6","OS X","10_15_6","571","s","","mirrorS.jpg","1","Light_Matched","true",""
"","","","","","fixation","3702","html-keyboard-response","199","240819","0.0-6.0-0.41","74","1","2022-11-17 12:25:11","fd252370c17a9971d68c1d4354a03c2e","","Mozilla/5.0 (Macintosh; Intel Mac OS X 10_15_6) AppleWebKit/605.1.15 (KHTML, like Gecko) Version/15.6,2 Safari/605.1.15","Macintosh","Safari","15.6","OS X","10_15_6","null","null","","<p style=""font-size: 48px;"">+</p>","1","Filler","",""
"","","","","","sentence","3702","html-keyboard-response","200","241575","0.0-6.0-1.41","74","1","2022-11-17 12:25:11","fd252370c17a9971d68c1d4354a03c2e","","Mozilla/5.0 (Macintosh; Intel Mac OS X 10_15_6) AppleWebKit/605.1.15 (KHTML, like Gecko) Version/15.6,2 Safari/605.1.15","Macintosh","Safari","15.6","OS X","10_15_6","740"," ","","A zebra is playing with a horse","1","Filler","",""
"","","","","","fixation","3702","html-keyboard-response","201","242085","0.0-6.0-2.41","74","1","2022-11-17 12:25:11","fd252370c17a9971d68c1d4354a03c2e","","Mozilla/5.0 (Macintosh; Intel Mac OS X 10_15_6) AppleWebKit/605.1.15 (KHTML, like Gecko) Version/15.6,2 Safari/605.1.15","Macintosh","Safari","15.6","OS X","10_15_6","null","null","","<p style=""font-size: 48px;"">+</p>","1","Filler","",""
"","","","","","picture","3702","image-keyboard-response","202","242804","0.0-6.0-3.41","74","1","2022-11-17 12:25:11","fd252370c17a9971d68c1d4354a03c2e","","Mozilla/5.0 (Macintosh; Intel Mac OS X 10_15_6) AppleWebKit/605.1.15 (KHTML, like Gecko) Version/15.6,2 Safari/605.1.15","Macintosh","Safari","15.6","OS X","10_15_6","691","s","","watch.jpg","1","Filler","false",""
"","","","","","fixation","3702","html-keyboard-response","203","243816","0.0-6.0-0.42","74","1","2022-11-17 12:25:11","fd252370c17a9971d68c1d4354a03c2e","","Mozilla/5.0 (Macintosh; Intel Mac OS X 10_15_6) AppleWebKit/605.1.15 (KHTML, like Gecko) Version/15.6,2 Safari/605.1.15","Macintosh","Safari","15.6","OS X","10_15_6","null","null","","<p style=""font-size: 48px;"">+</p>","1","Filler","",""
"","","","","","sentence","3702","html-keyboard-response","204","246826","0.0-6.0-1.42","74","1","2022-11-17 12:25:11","fd252370c17a9971d68c1d4354a03c2e","","Mozilla/5.0 (Macintosh; Intel Mac OS X 10_15_6) AppleWebKit/605.1.15 (KHTML, like Gecko) Version/15.6,2 Safari/605.1.15","Macintosh","Safari","15.6","OS X","10_15_6","2997"," ","","An elephant is eating a watermelon","1","Filler","",""
"","","","","","fixation","3702","html-keyboard-response","205","247337","0.0-6.0-2.42","74","1","2022-11-17 12:25:11","fd252370c17a9971d68c1d4354a03c2e","","Mozilla/5.0 (Macintosh; Intel Mac OS X 10_15_6) AppleWebKit/605.1.15 (KHTML, like Gecko) Version/15.6,2 Safari/605.1.15","Macintosh","Safari","15.6","OS X","10_15_6","null","null","","<p style=""font-size: 48px;"">+</p>","1","Filler","",""
"","","","","","picture","3702","image-keyboard-response","206","248355","0.0-6.0-3.42","74","1","2022-11-17 12:25:11","fd252370c17a9971d68c1d4354a03c2e","","Mozilla/5.0 (Macintosh; Intel Mac OS X 10_15_6) AppleWebKit/605.1.15 (KHTML, like Gecko) Version/15.6,2 Safari/605.1.15","Macintosh","Safari","15.6","OS X","10_15_6","990","s","","watermelon.jpg","1","Filler","true",""
"","","","","","fixation","3702","html-keyboard-response","207","249366","0.0-6.0-0.43","74","1","2022-11-17 12:25:11","fd252370c17a9971d68c1d4354a03c2e","","Mozilla/5.0 (Macintosh; Intel Mac OS X 10_15_6) AppleWebKit/605.1.15 (KHTML, like Gecko) Version/15.6,2 Safari/605.1.15","Macintosh","Safari","15.6","OS X","10_15_6","null","null","","<p style=""font-size: 48px;"">+</p>","1","Filler","",""
"","","","","","sentence","3702","html-keyboard-response","208","250094","0.0-6.0-1.43","74","1","2022-11-17 12:25:11","fd252370c17a9971d68c1d4354a03c2e","","Mozilla/5.0 (Macintosh; Intel Mac OS X 10_15_6) AppleWebKit/605.1.15 (KHTML, like Gecko) Version/15.6,2 Safari/605.1.15","Macintosh","Safari","15.6","OS X","10_15_6","709"," ","","A student is writing on a board","1","Filler","",""
"","","","","","fixation","3702","html-keyboard-response","209","250605","0.0-6.0-2.43","74","1","2022-11-17 12:25:11","fd252370c17a9971d68c1d4354a03c2e","","Mozilla/5.0 (Macintosh; Intel Mac OS X 10_15_6) AppleWebKit/605.1.15 (KHTML, like Gecko) Version/15.6,2 Safari/605.1.15","Macintosh","Safari","15.6","OS X","10_15_6","null","null","","<p style=""font-size: 48px;"">+</p>","1","Filler","",""
"","","","","","picture","3702","image-keyboard-response","210","251176","0.0-6.0-3.43","74","1","2022-11-17 12:25:11","fd252370c17a9971d68c1d4354a03c2e","","Mozilla/5.0 (Macintosh; Intel Mac OS X 10_15_6) AppleWebKit/605.1.15 (KHTML, like Gecko) Version/15.6,2 Safari/605.1.15","Macintosh","Safari","15.6","OS X","10_15_6","542","n","","owl.jpg","1","Filler","true",""
"","","","","","fixation","3702","html-keyboard-response","211","252187","0.0-6.0-0.44","74","1","2022-11-17 12:25:11","fd252370c17a9971d68c1d4354a03c2e","","Mozilla/5.0 (Macintosh; Intel Mac OS X 10_15_6) AppleWebKit/605.1.15 (KHTML, like Gecko) Version/15.6,2 Safari/605.1.15","Macintosh","Safari","15.6","OS X","10_15_6","null","null","","<p style=""font-size: 48px;"">+</p>","1","Filler","",""
"","","","","","sentence","3702","html-keyboard-response","212","253096","0.0-6.0-1.44","74","1","2022-11-17 12:25:11","fd252370c17a9971d68c1d4354a03c2e","","Mozilla/5.0 (Macintosh; Intel Mac OS X 10_15_6) AppleWebKit/605.1.15 (KHTML, like Gecko) Version/15.6,2 Safari/605.1.15","Macintosh","Safari","15.6","OS X","10_15_6","893"," ","","A giraffe is playing with a zebra","1","Filler","",""
"","","","","","fixation","3702","html-keyboard-response","213","253611","0.0-6.0-2.44","74","1","2022-11-17 12:25:11","fd252370c17a9971d68c1d4354a03c2e","","Mozilla/5.0 (Macintosh; Intel Mac OS X 10_15_6) AppleWebKit/605.1.15 (KHTML, like Gecko) Version/15.6,2 Safari/605.1.15","Macintosh","Safari","15.6","OS X","10_15_6","null","null","","<p style=""font-size: 48px;"">+</p>","1","Filler","",""
"","","","","","picture","3702","image-keyboard-response","214","254175","0.0-6.0-3.44","74","1","2022-11-17 12:25:11","fd252370c17a9971d68c1d4354a03c2e","","Mozilla/5.0 (Macintosh; Intel Mac OS X 10_15_6) AppleWebKit/605.1.15 (KHTML, like Gecko) Version/15.6,2 Safari/605.1.15","Macintosh","Safari","15.6","OS X","10_15_6","538","n","","wallet.jpg","1","Filler","true",""
"","","","","","fixation","3702","html-keyboard-response","215","255186","0.0-6.0-0.45","74","1","2022-11-17 12:25:11","fd252370c17a9971d68c1d4354a03c2e","","Mozilla/5.0 (Macintosh; Intel Mac OS X 10_15_6) AppleWebKit/605.1.15 (KHTML, like Gecko) Version/15.6,2 Safari/605.1.15","Macintosh","Safari","15.6","OS X","10_15_6","null","null","","<p style=""font-size: 48px;"">+</p>","1","Heavy_Contradictory","",""
"","","","","","sentence","3702","html-keyboard-response","216","256242","0.0-6.0-1.45","74","1","2022-11-17 12:25:11","fd252370c17a9971d68c1d4354a03c2e","","Mozilla/5.0 (Macintosh; Intel Mac OS X 10_15_6) AppleWebKit/605.1.15 (KHTML, like Gecko) Version/15.6,2 Safari/605.1.15","Macintosh","Safari","15.6","OS X","10_15_6","1038"," ","","A bowling ball dropped and touched an egg flan","1","Heavy_Contradictory","",""
"","","","","","fixation","3702","html-keyboard-response","217","256754","0.0-6.0-2.45","74","1","2022-11-17 12:25:11","fd252370c17a9971d68c1d4354a03c2e","","Mozilla/5.0 (Macintosh; Intel Mac OS X 10_15_6) AppleWebKit/605.1.15 (KHTML, like Gecko) Version/15.6,2 Safari/605.1.15","Macintosh","Safari","15.6","OS X","10_15_6","null","null","","<p style=""font-size: 48px;"">+</p>","1","Heavy_Contradictory","",""
"","","","","","picture","3702","image-keyboard-response","218","257532","0.0-6.0-3.45","74","1","2022-11-17 12:25:11","fd252370c17a9971d68c1d4354a03c2e","","Mozilla/5.0 (Macintosh; Intel Mac OS X 10_15_6) AppleWebKit/605.1.15 (KHTML, like Gecko) Version/15.6,2 Safari/605.1.15","Macintosh","Safari","15.6","OS X","10_15_6","749","s","","eggflanS.jpg","1","Heavy_Contradictory","true",""
"","","","","","fixation","3702","html-keyboard-response","219","258545","0.0-6.0-0.46","74","1","2022-11-17 12:25:11","fd252370c17a9971d68c1d4354a03c2e","","Mozilla/5.0 (Macintosh; Intel Mac OS X 10_15_6) AppleWebKit/605.1.15 (KHTML, like Gecko) Version/15.6,2 Safari/605.1.15","Macintosh","Safari","15.6","OS X","10_15_6","null","null","","<p style=""font-size: 48px;"">+</p>","1","Heavy_Contradictory","",""
"","","","","","sentence","3702","html-keyboard-response","220","260175","0.0-6.0-1.46","74","1","2022-11-17 12:25:11","fd252370c17a9971d68c1d4354a03c2e","","Mozilla/5.0 (Macintosh; Intel Mac OS X 10_15_6) AppleWebKit/605.1.15 (KHTML, like Gecko) Version/15.6,2 Safari/605.1.15","Macintosh","Safari","15.6","OS X","10_15_6","1613"," ","","A bowling ball dropped and touched an iPAD","1","Heavy_Contradictory","",""
"","","","","","fixation","3702","html-keyboard-response","221","260685","0.0-6.0-2.46","74","1","2022-11-17 12:25:11","fd252370c17a9971d68c1d4354a03c2e","","Mozilla/5.0 (Macintosh; Intel Mac OS X 10_15_6) AppleWebKit/605.1.15 (KHTML, like Gecko) Version/15.6,2 Safari/605.1.15","Macintosh","Safari","15.6","OS X","10_15_6","null","null","","<p style=""font-size: 48px;"">+</p>","1","Heavy_Contradictory","",""
"","","","","","picture","3702","image-keyboard-response","222","261441","0.0-6.0-3.46","74","1","2022-11-17 12:25:11","fd252370c17a9971d68c1d4354a03c2e","","Mozilla/5.0 (Macintosh; Intel Mac OS X 10_15_6) AppleWebKit/605.1.15 (KHTML, like Gecko) Version/15.6,2 Safari/605.1.15","Macintosh","Safari","15.6","OS X","10_15_6","727","s","","iPadS.jpg","1","Heavy_Contradictory","true",""
"","","","","","fixation","3702","html-keyboard-response","223","262454","0.0-6.0-0.47","74","1","2022-11-17 12:25:11","fd252370c17a9971d68c1d4354a03c2e","","Mozilla/5.0 (Macintosh; Intel Mac OS X 10_15_6) AppleWebKit/605.1.15 (KHTML, like Gecko) Version/15.6,2 Safari/605.1.15","Macintosh","Safari","15.6","OS X","10_15_6","null","null","","<p style=""font-size: 48px;"">+</p>","1","Filler","",""
"","","","","","sentence","3702","html-keyboard-response","224","263055","0.0-6.0-1.47","74","1","2022-11-17 12:25:11","fd252370c17a9971d68c1d4354a03c2e","","Mozilla/5.0 (Macintosh; Intel Mac OS X 10_15_6) AppleWebKit/605.1.15 (KHTML, like Gecko) Version/15.6,2 Safari/605.1.15","Macintosh","Safari","15.6","OS X","10_15_6","578"," ","","A mouse is eating cheese","1","Filler","",""
"","","","","","fixation","3702","html-keyboard-response","225","263568","0.0-6.0-2.47","74","1","2022-11-17 12:25:11","fd252370c17a9971d68c1d4354a03c2e","","Mozilla/5.0 (Macintosh; Intel Mac OS X 10_15_6) AppleWebKit/605.1.15 (KHTML, like Gecko) Version/15.6,2 Safari/605.1.15","Macintosh","Safari","15.6","OS X","10_15_6","null","null","","<p style=""font-size: 48px;"">+</p>","1","Filler","",""
"","","","","","picture","3702","image-keyboard-response","226","264224","0.0-6.0-3.47","74","1","2022-11-17 12:25:11","fd252370c17a9971d68c1d4354a03c2e","","Mozilla/5.0 (Macintosh; Intel Mac OS X 10_15_6) AppleWebKit/605.1.15 (KHTML, like Gecko) Version/15.6,2 Safari/605.1.15","Macintosh","Safari","15.6","OS X","10_15_6","629","n","","ring.jpg","1","Filler","true",""
"","","","","","fixation","3702","html-keyboard-response","227","265237","0.0-6.0-0.48","74","1","2022-11-17 12:25:11","fd252370c17a9971d68c1d4354a03c2e","","Mozilla/5.0 (Macintosh; Intel Mac OS X 10_15_6) AppleWebKit/605.1.15 (KHTML, like Gecko) Version/15.6,2 Safari/605.1.15","Macintosh","Safari","15.6","OS X","10_15_6","null","null","","<p style=""font-size: 48px;"">+</p>","1","Filler","",""
"","","","","","sentence","3702","html-keyboard-response","228","266054","0.0-6.0-1.48","74","1","2022-11-17 12:25:11","fd252370c17a9971d68c1d4354a03c2e","","Mozilla/5.0 (Macintosh; Intel Mac OS X 10_15_6) AppleWebKit/605.1.15 (KHTML, like Gecko) Version/15.6,2 Safari/605.1.15","Macintosh","Safari","15.6","OS X","10_15_6","799"," ","","A panda is resting on a tree","1","Filler","",""
"","","","","","fixation","3702","html-keyboard-response","229","266566","0.0-6.0-2.48","74","1","2022-11-17 12:25:11","fd252370c17a9971d68c1d4354a03c2e","","Mozilla/5.0 (Macintosh; Intel Mac OS X 10_15_6) AppleWebKit/605.1.15 (KHTML, like Gecko) Version/15.6,2 Safari/605.1.15","Macintosh","Safari","15.6","OS X","10_15_6","null","null","","<p style=""font-size: 48px;"">+</p>","1","Filler","",""
"","","","","","picture","3702","image-keyboard-response","230","267165","0.0-6.0-3.48","74","1","2022-11-17 12:25:11","fd252370c17a9971d68c1d4354a03c2e","","Mozilla/5.0 (Macintosh; Intel Mac OS X 10_15_6) AppleWebKit/605.1.15 (KHTML, like Gecko) Version/15.6,2 Safari/605.1.15","Macintosh","Safari","15.6","OS X","10_15_6","564","n","","dollar.jpg","1","Filler","true",""
"","","","","","fixation","3702","html-keyboard-response","231","268178","0.0-6.0-0.49","74","1","2022-11-17 12:25:11","fd252370c17a9971d68c1d4354a03c2e","","Mozilla/5.0 (Macintosh; Intel Mac OS X 10_15_6) AppleWebKit/605.1.15 (KHTML, like Gecko) Version/15.6,2 Safari/605.1.15","Macintosh","Safari","15.6","OS X","10_15_6","null","null","","<p style=""font-size: 48px;"">+</p>","1","Light_Contradictory","",""
"","","","","","sentence","3702","html-keyboard-response","232","269243","0.0-6.0-1.49","74","1","2022-11-17 12:25:11","fd252370c17a9971d68c1d4354a03c2e","","Mozilla/5.0 (Macintosh; Intel Mac OS X 10_15_6) AppleWebKit/605.1.15 (KHTML, like Gecko) Version/15.6,2 Safari/605.1.15","Macintosh","Safari","15.6","OS X","10_15_6","1049"," ","","A balloon dropped and smashed a strawberry","1","Light_Contradictory","",""
"","","","","","fixation","3702","html-keyboard-response","233","269756","0.0-6.0-2.49","74","1","2022-11-17 12:25:11","fd252370c17a9971d68c1d4354a03c2e","","Mozilla/5.0 (Macintosh; Intel Mac OS X 10_15_6) AppleWebKit/605.1.15 (KHTML, like Gecko) Version/15.6,2 Safari/605.1.15","Macintosh","Safari","15.6","OS X","10_15_6","null","null","","<p style=""font-size: 48px;"">+</p>","1","Light_Contradictory","",""
"","","","","","picture","3702","image-keyboard-response","234","270375","0.0-6.0-3.49","74","1","2022-11-17 12:25:11","fd252370c17a9971d68c1d4354a03c2e","","Mozilla/5.0 (Macintosh; Intel Mac OS X 10_15_6) AppleWebKit/605.1.15 (KHTML, like Gecko) Version/15.6,2 Safari/605.1.15","Macintosh","Safari","15.6","OS X","10_15_6","592","s","","strawberryS.jpg","1","Light_Contradictory","true",""
"","","","","","fixation","3702","html-keyboard-response","235","271388","0.0-6.0-0.50","74","1","2022-11-17 12:25:11","fd252370c17a9971d68c1d4354a03c2e","","Mozilla/5.0 (Macintosh; Intel Mac OS X 10_15_6) AppleWebKit/605.1.15 (KHTML, like Gecko) Version/15.6,2 Safari/605.1.15","Macintosh","Safari","15.6","OS X","10_15_6","null","null","","<p style=""font-size: 48px;"">+</p>","1","Filler","",""
"","","","","","sentence","3702","html-keyboard-response","236","272145","0.0-6.0-1.50","74","1","2022-11-17 12:25:11","fd252370c17a9971d68c1d4354a03c2e","","Mozilla/5.0 (Macintosh; Intel Mac OS X 10_15_6) AppleWebKit/605.1.15 (KHTML, like Gecko) Version/15.6,2 Safari/605.1.15","Macintosh","Safari","15.6","OS X","10_15_6","735"," ","","A butterfly is sitting on a flower","1","Filler","",""
"","","","","","fixation","3702","html-keyboard-response","237","272657","0.0-6.0-2.50","74","1","2022-11-17 12:25:11","fd252370c17a9971d68c1d4354a03c2e","","Mozilla/5.0 (Macintosh; Intel Mac OS X 10_15_6) AppleWebKit/605.1.15 (KHTML, like Gecko) Version/15.6,2 Safari/605.1.15","Macintosh","Safari","15.6","OS X","10_15_6","null","null","","<p style=""font-size: 48px;"">+</p>","1","Filler","",""
"","","","","","picture","3702","image-keyboard-response","238","273588","0.0-6.0-3.50","74","1","2022-11-17 12:25:11","fd252370c17a9971d68c1d4354a03c2e","","Mozilla/5.0 (Macintosh; Intel Mac OS X 10_15_6) AppleWebKit/605.1.15 (KHTML, like Gecko) Version/15.6,2 Safari/605.1.15","Macintosh","Safari","15.6","OS X","10_15_6","904","n","","soap.jpg","1","Filler","true",""
"","","","","","fixation","3702","html-keyboard-response","239","274600","0.0-6.0-0.51","74","1","2022-11-17 12:25:11","fd252370c17a9971d68c1d4354a03c2e","","Mozilla/5.0 (Macintosh; Intel Mac OS X 10_15_6) AppleWebKit/605.1.15 (KHTML, like Gecko) Version/15.6,2 Safari/605.1.15","Macintosh","Safari","15.6","OS X","10_15_6","null","null","","<p style=""font-size: 48px;"">+</p>","1","Filler","",""
"","","","","","sentence","3702","html-keyboard-response","240","275504","0.0-6.0-1.51","74","1","2022-11-17 12:25:11","fd252370c17a9971d68c1d4354a03c2e","","Mozilla/5.0 (Macintosh; Intel Mac OS X 10_15_6) AppleWebKit/605.1.15 (KHTML, like Gecko) Version/15.6,2 Safari/605.1.15","Macintosh","Safari","15.6","OS X","10_15_6","886"," ","","A cushion was placed on the magazine","1","Filler","",""
"","","","","","fixation","3702","html-keyboard-response","241","276016","0.0-6.0-2.51","74","1","2022-11-17 12:25:11","fd252370c17a9971d68c1d4354a03c2e","","Mozilla/5.0 (Macintosh; Intel Mac OS X 10_15_6) AppleWebKit/605.1.15 (KHTML, like Gecko) Version/15.6,2 Safari/605.1.15","Macintosh","Safari","15.6","OS X","10_15_6","null","null","","<p style=""font-size: 48px;"">+</p>","1","Filler","",""
"","","","","","picture","3702","image-keyboard-response","242","276942","0.0-6.0-3.51","74","1","2022-11-17 12:25:11","fd252370c17a9971d68c1d4354a03c2e","","Mozilla/5.0 (Macintosh; Intel Mac OS X 10_15_6) AppleWebKit/605.1.15 (KHTML, like Gecko) Version/15.6,2 Safari/605.1.15","Macintosh","Safari","15.6","OS X","10_15_6","898","n","","box.jpg","1","Filler","true",""
"","","","","","fixation","3702","html-keyboard-response","243","277955","0.0-6.0-0.52","74","1","2022-11-17 12:25:11","fd252370c17a9971d68c1d4354a03c2e","","Mozilla/5.0 (Macintosh; Intel Mac OS X 10_15_6) AppleWebKit/605.1.15 (KHTML, like Gecko) Version/15.6,2 Safari/605.1.15","Macintosh","Safari","15.6","OS X","10_15_6","null","null","","<p style=""font-size: 48px;"">+</p>","1","Light_Contradictory","",""
"","","","","","sentence","3702","html-keyboard-response","244","279134","0.0-6.0-1.52","74","1","2022-11-17 12:25:11","fd252370c17a9971d68c1d4354a03c2e","","Mozilla/5.0 (Macintosh; Intel Mac OS X 10_15_6) AppleWebKit/605.1.15 (KHTML, like Gecko) Version/15.6,2 Safari/605.1.15","Macintosh","Safari","15.6","OS X","10_15_6","1159"," ","","A balloon dropped and smashed a tile","1","Light_Contradictory","",""
"","","","","","fixation","3702","html-keyboard-response","245","279647","0.0-6.0-2.52","74","1","2022-11-17 12:25:11","fd252370c17a9971d68c1d4354a03c2e","","Mozilla/5.0 (Macintosh; Intel Mac OS X 10_15_6) AppleWebKit/605.1.15 (KHTML, like Gecko) Version/15.6,2 Safari/605.1.15","Macintosh","Safari","15.6","OS X","10_15_6","null","null","","<p style=""font-size: 48px;"">+</p>","1","Light_Contradictory","",""
