"success","timeout","failed_images","failed_audio","failed_video","typeoftrial","subject","trial_type","trial_index","time_elapsed","internal_node_id","run_id","condition","recorded_at","source_code_version","ip","user_agent","device","browser","browser_version","platform","platform_version","rt","response","Experiment","stimulus","list_number","trialcondition","correct","question_order"
"true","false","[]","[]","[]","preload","65941","preload","0","4318","0.0-0.0","47","2","2022-11-17 12:19:29","fd252370c17a9971d68c1d4354a03c2e","","Mozilla/5.0 (Windows NT 10.0; Win64; x64) AppleWebKit/537.36 (KHTML, like Gecko) Chrome/107.0.0.0 Safari/537.36","WebKit","Chrome","107.0.0.0","Windows","10.0","","","","","","","",""
"","","","","","ID","65941","survey-text","1","10575","0.0-1.0","47","2","2022-11-17 12:19:29","fd252370c17a9971d68c1d4354a03c2e","","Mozilla/5.0 (Windows NT 10.0; Win64; x64) AppleWebKit/537.36 (KHTML, like Gecko) Chrome/107.0.0.0 Safari/537.36","WebKit","Chrome","107.0.0.0","Windows","10.0","6221","{""ID"":""614b212257e37ee820db3736""}","","","","","",""
"","","","","","instructions","65941","html-button-response","2","28546","0.0-2.0","47","2","2022-11-17 12:19:29","fd252370c17a9971d68c1d4354a03c2e","","Mozilla/5.0 (Windows NT 10.0; Win64; x64) AppleWebKit/537.36 (KHTML, like Gecko) Chrome/107.0.0.0 Safari/537.36","WebKit","Chrome","107.0.0.0","Windows","10.0","17962","0","","
                    <p style=""font-size:20px;""> Welcome to the experiment! </p>
                    <p style=""font-size:20px;""> In this experiment, you will be asked to make judgments about the content of different sentences.</p>
                    <p style=""font-size:20px;""> On each trial, you will read a sentence, and will be shown a picture immediately following the sentence. </p>
                    <p style=""font-size:20px;""> Your task is to decide whether the object displayed in the picture was mentioned in the sentence or not </p>
                    <p style=""font-size:20px;""> and respond as quickly as possible by pressing <strong>S</strong> for yes or <strong>N</strong> for no. </p>
                    <p style=""font-size:20px;""> You will now do a practice session with feedback and instructions. </p>
                    <p style=""font-size:20px;""> Click the button below to continue.</p>
                    ","","","",""
"","","","","","instructions","65941","html-button-response","3","34042","0.0-3.0","47","2","2022-11-17 12:19:29","fd252370c17a9971d68c1d4354a03c2e","","Mozilla/5.0 (Windows NT 10.0; Win64; x64) AppleWebKit/537.36 (KHTML, like Gecko) Chrome/107.0.0.0 Safari/537.36","WebKit","Chrome","107.0.0.0","Windows","10.0","5487","0","","
                    <p style=""font-size:20px;""> You are about to begin the practice test. </p>
                    <p style=""font-size:20px;""> On each trial, a sentence will appear on the screen. You should press SPACEBAR when you have read and understood the sentence.</p>
                    <p style=""font-size:20px;""> After you press SPACEBAR, a picture will appear on the screen. </p>
                    <p style=""font-size:20px;""> You need to indicate whether or not the pictured object was mentioned in the sentence. </p>
                    <p style=""font-size:20px;""> If the object WAS mentioned in the preceding sentence, you should press <strong>S</strong> </p>
                    <p style=""font-size:20px;""> If the object was NOT mentioned in the preceding sentence, you should press <strong>N</strong>. </p>
                    <p style=""font-size:20px;""> Click the button below to continue to the practice session.</p>
                    ","","","",""
"","","","","","fixation","65941","html-keyboard-response","4","35058","0.0-4.0-0.0","47","2","2022-11-17 12:19:29","fd252370c17a9971d68c1d4354a03c2e","","Mozilla/5.0 (Windows NT 10.0; Win64; x64) AppleWebKit/537.36 (KHTML, like Gecko) Chrome/107.0.0.0 Safari/537.36","WebKit","Chrome","107.0.0.0","Windows","10.0","null","null","","<p style=""font-size: 48px;"">+</p>","practice","practice_s","",""
"","","","","","sentence","65941","html-keyboard-response","5","43839","0.0-4.0-1.0","47","2","2022-11-17 12:19:29","fd252370c17a9971d68c1d4354a03c2e","","Mozilla/5.0 (Windows NT 10.0; Win64; x64) AppleWebKit/537.36 (KHTML, like Gecko) Chrome/107.0.0.0 Safari/537.36","WebKit","Chrome","107.0.0.0","Windows","10.0","8772"," ","","A bowling ball dropped and smashed a teacup","practice","practice_s","",""
"","","","","","fixation","65941","html-keyboard-response","6","44358","0.0-4.0-2.0","47","2","2022-11-17 12:19:29","fd252370c17a9971d68c1d4354a03c2e","","Mozilla/5.0 (Windows NT 10.0; Win64; x64) AppleWebKit/537.36 (KHTML, like Gecko) Chrome/107.0.0.0 Safari/537.36","WebKit","Chrome","107.0.0.0","Windows","10.0","null","null","","<p style=""font-size: 48px;"">+</p>","practice","practice_s","",""
"","","","","","picture","65941","image-keyboard-response","7","46133","0.0-4.0-3.0","47","2","2022-11-17 12:19:29","fd252370c17a9971d68c1d4354a03c2e","","Mozilla/5.0 (Windows NT 10.0; Win64; x64) AppleWebKit/537.36 (KHTML, like Gecko) Chrome/107.0.0.0 Safari/537.36","WebKit","Chrome","107.0.0.0","Windows","10.0","1695","s","","cupB.jpg","practice","practice_s","true",""
"","","","","","","","html-keyboard-response","8","48154","0.0-4.0-4.0","47","2","2022-11-17 12:19:29","fd252370c17a9971d68c1d4354a03c2e","","Mozilla/5.0 (Windows NT 10.0; Win64; x64) AppleWebKit/537.36 (KHTML, like Gecko) Chrome/107.0.0.0 Safari/537.36","WebKit","Chrome","107.0.0.0","Windows","10.0","null","null","","CORRECT!","","","",""
"","","","","","fixation","65941","html-keyboard-response","9","49178","0.0-4.0-0.1","47","2","2022-11-17 12:19:29","fd252370c17a9971d68c1d4354a03c2e","","Mozilla/5.0 (Windows NT 10.0; Win64; x64) AppleWebKit/537.36 (KHTML, like Gecko) Chrome/107.0.0.0 Safari/537.36","WebKit","Chrome","107.0.0.0","Windows","10.0","null","null","","<p style=""font-size: 48px;"">+</p>","practice","practice_s","",""
"","","","","","sentence","65941","html-keyboard-response","10","51057","0.0-4.0-1.1","47","2","2022-11-17 12:19:29","fd252370c17a9971d68c1d4354a03c2e","","Mozilla/5.0 (Windows NT 10.0; Win64; x64) AppleWebKit/537.36 (KHTML, like Gecko) Chrome/107.0.0.0 Safari/537.36","WebKit","Chrome","107.0.0.0","Windows","10.0","1863"," ","","A knife was placed on a hammer","practice","practice_s","",""
"","","","","","fixation","65941","html-keyboard-response","11","51571","0.0-4.0-2.1","47","2","2022-11-17 12:19:29","fd252370c17a9971d68c1d4354a03c2e","","Mozilla/5.0 (Windows NT 10.0; Win64; x64) AppleWebKit/537.36 (KHTML, like Gecko) Chrome/107.0.0.0 Safari/537.36","WebKit","Chrome","107.0.0.0","Windows","10.0","null","null","","<p style=""font-size: 48px;"">+</p>","practice","practice_s","",""
"","","","","","picture","65941","image-keyboard-response","12","52835","0.0-4.0-3.1","47","2","2022-11-17 12:19:29","fd252370c17a9971d68c1d4354a03c2e","","Mozilla/5.0 (Windows NT 10.0; Win64; x64) AppleWebKit/537.36 (KHTML, like Gecko) Chrome/107.0.0.0 Safari/537.36","WebKit","Chrome","107.0.0.0","Windows","10.0","1249","s","","hammerB.jpg","practice","practice_s","true",""
"","","","","","","","html-keyboard-response","13","54854","0.0-4.0-4.1","47","2","2022-11-17 12:19:29","fd252370c17a9971d68c1d4354a03c2e","","Mozilla/5.0 (Windows NT 10.0; Win64; x64) AppleWebKit/537.36 (KHTML, like Gecko) Chrome/107.0.0.0 Safari/537.36","WebKit","Chrome","107.0.0.0","Windows","10.0","null","null","","CORRECT!","","","",""
"","","","","","fixation","65941","html-keyboard-response","14","55868","0.0-4.0-0.2","47","2","2022-11-17 12:19:29","fd252370c17a9971d68c1d4354a03c2e","","Mozilla/5.0 (Windows NT 10.0; Win64; x64) AppleWebKit/537.36 (KHTML, like Gecko) Chrome/107.0.0.0 Safari/537.36","WebKit","Chrome","107.0.0.0","Windows","10.0","null","null","","<p style=""font-size: 48px;"">+</p>","practice","practice_n","",""
"","","","","","sentence","65941","html-keyboard-response","15","57451","0.0-4.0-1.2","47","2","2022-11-17 12:19:29","fd252370c17a9971d68c1d4354a03c2e","","Mozilla/5.0 (Windows NT 10.0; Win64; x64) AppleWebKit/537.36 (KHTML, like Gecko) Chrome/107.0.0.0 Safari/537.36","WebKit","Chrome","107.0.0.0","Windows","10.0","1568"," ","","A fork was placed on a stool","practice","practice_n","",""
"","","","","","fixation","65941","html-keyboard-response","16","57976","0.0-4.0-2.2","47","2","2022-11-17 12:19:29","fd252370c17a9971d68c1d4354a03c2e","","Mozilla/5.0 (Windows NT 10.0; Win64; x64) AppleWebKit/537.36 (KHTML, like Gecko) Chrome/107.0.0.0 Safari/537.36","WebKit","Chrome","107.0.0.0","Windows","10.0","null","null","","<p style=""font-size: 48px;"">+</p>","practice","practice_n","",""
"","","","","","picture","65941","image-keyboard-response","17","59268","0.0-4.0-3.2","47","2","2022-11-17 12:19:29","fd252370c17a9971d68c1d4354a03c2e","","Mozilla/5.0 (Windows NT 10.0; Win64; x64) AppleWebKit/537.36 (KHTML, like Gecko) Chrome/107.0.0.0 Safari/537.36","WebKit","Chrome","107.0.0.0","Windows","10.0","1277","n","","tableB.jpg","practice","practice_n","true",""
"","","","","","","","html-keyboard-response","18","61290","0.0-4.0-4.2","47","2","2022-11-17 12:19:29","fd252370c17a9971d68c1d4354a03c2e","","Mozilla/5.0 (Windows NT 10.0; Win64; x64) AppleWebKit/537.36 (KHTML, like Gecko) Chrome/107.0.0.0 Safari/537.36","WebKit","Chrome","107.0.0.0","Windows","10.0","null","null","","CORRECT!","","","",""
"","","","","","fixation","65941","html-keyboard-response","19","62321","0.0-4.0-0.3","47","2","2022-11-17 12:19:29","fd252370c17a9971d68c1d4354a03c2e","","Mozilla/5.0 (Windows NT 10.0; Win64; x64) AppleWebKit/537.36 (KHTML, like Gecko) Chrome/107.0.0.0 Safari/537.36","WebKit","Chrome","107.0.0.0","Windows","10.0","null","null","","<p style=""font-size: 48px;"">+</p>","practice","practice_s","",""
"","","","","","sentence","65941","html-keyboard-response","20","64068","0.0-4.0-1.3","47","2","2022-11-17 12:19:29","fd252370c17a9971d68c1d4354a03c2e","","Mozilla/5.0 (Windows NT 10.0; Win64; x64) AppleWebKit/537.36 (KHTML, like Gecko) Chrome/107.0.0.0 Safari/537.36","WebKit","Chrome","107.0.0.0","Windows","10.0","1737"," ","","A balloon dropped and touched a cigarette","practice","practice_s","",""
"","","","","","fixation","65941","html-keyboard-response","21","64575","0.0-4.0-2.3","47","2","2022-11-17 12:19:29","fd252370c17a9971d68c1d4354a03c2e","","Mozilla/5.0 (Windows NT 10.0; Win64; x64) AppleWebKit/537.36 (KHTML, like Gecko) Chrome/107.0.0.0 Safari/537.36","WebKit","Chrome","107.0.0.0","Windows","10.0","null","null","","<p style=""font-size: 48px;"">+</p>","practice","practice_s","",""
"","","","","","picture","65941","image-keyboard-response","22","65618","0.0-4.0-3.3","47","2","2022-11-17 12:19:29","fd252370c17a9971d68c1d4354a03c2e","","Mozilla/5.0 (Windows NT 10.0; Win64; x64) AppleWebKit/537.36 (KHTML, like Gecko) Chrome/107.0.0.0 Safari/537.36","WebKit","Chrome","107.0.0.0","Windows","10.0","1026","s","","cigaretteB.jpg","practice","practice_s","true",""
"","","","","","","","html-keyboard-response","23","67636","0.0-4.0-4.3","47","2","2022-11-17 12:19:29","fd252370c17a9971d68c1d4354a03c2e","","Mozilla/5.0 (Windows NT 10.0; Win64; x64) AppleWebKit/537.36 (KHTML, like Gecko) Chrome/107.0.0.0 Safari/537.36","WebKit","Chrome","107.0.0.0","Windows","10.0","null","null","","CORRECT!","","","",""
"","","","","","fixation","65941","html-keyboard-response","24","68658","0.0-4.0-0.4","47","2","2022-11-17 12:19:29","fd252370c17a9971d68c1d4354a03c2e","","Mozilla/5.0 (Windows NT 10.0; Win64; x64) AppleWebKit/537.36 (KHTML, like Gecko) Chrome/107.0.0.0 Safari/537.36","WebKit","Chrome","107.0.0.0","Windows","10.0","null","null","","<p style=""font-size: 48px;"">+</p>","practice","practice_n","",""
"","","","","","sentence","65941","html-keyboard-response","25","70464","0.0-4.0-1.4","47","2","2022-11-17 12:19:29","fd252370c17a9971d68c1d4354a03c2e","","Mozilla/5.0 (Windows NT 10.0; Win64; x64) AppleWebKit/537.36 (KHTML, like Gecko) Chrome/107.0.0.0 Safari/537.36","WebKit","Chrome","107.0.0.0","Windows","10.0","1792"," ","","A bowling ball dropped and touched a bottle","practice","practice_n","",""
"","","","","","fixation","65941","html-keyboard-response","26","70987","0.0-4.0-2.4","47","2","2022-11-17 12:19:29","fd252370c17a9971d68c1d4354a03c2e","","Mozilla/5.0 (Windows NT 10.0; Win64; x64) AppleWebKit/537.36 (KHTML, like Gecko) Chrome/107.0.0.0 Safari/537.36","WebKit","Chrome","107.0.0.0","Windows","10.0","null","null","","<p style=""font-size: 48px;"">+</p>","practice","practice_n","",""
"","","","","","picture","65941","image-keyboard-response","27","71869","0.0-4.0-3.4","47","2","2022-11-17 12:19:29","fd252370c17a9971d68c1d4354a03c2e","","Mozilla/5.0 (Windows NT 10.0; Win64; x64) AppleWebKit/537.36 (KHTML, like Gecko) Chrome/107.0.0.0 Safari/537.36","WebKit","Chrome","107.0.0.0","Windows","10.0","860","n","","bookB.jpg","practice","practice_n","true",""
"","","","","","","","html-keyboard-response","28","73891","0.0-4.0-4.4","47","2","2022-11-17 12:19:29","fd252370c17a9971d68c1d4354a03c2e","","Mozilla/5.0 (Windows NT 10.0; Win64; x64) AppleWebKit/537.36 (KHTML, like Gecko) Chrome/107.0.0.0 Safari/537.36","WebKit","Chrome","107.0.0.0","Windows","10.0","null","null","","CORRECT!","","","",""
"","","","","","fixation","65941","html-keyboard-response","29","74922","0.0-4.0-0.5","47","2","2022-11-17 12:19:29","fd252370c17a9971d68c1d4354a03c2e","","Mozilla/5.0 (Windows NT 10.0; Win64; x64) AppleWebKit/537.36 (KHTML, like Gecko) Chrome/107.0.0.0 Safari/537.36","WebKit","Chrome","107.0.0.0","Windows","10.0","null","null","","<p style=""font-size: 48px;"">+</p>","practice","practice_n","",""
"","","","","","sentence","65941","html-keyboard-response","30","76364","0.0-4.0-1.5","47","2","2022-11-17 12:19:29","fd252370c17a9971d68c1d4354a03c2e","","Mozilla/5.0 (Windows NT 10.0; Win64; x64) AppleWebKit/537.36 (KHTML, like Gecko) Chrome/107.0.0.0 Safari/537.36","WebKit","Chrome","107.0.0.0","Windows","10.0","1429"," ","","A balloon dropped and smashed a cup","practice","practice_n","",""
"","","","","","fixation","65941","html-keyboard-response","31","76887","0.0-4.0-2.5","47","2","2022-11-17 12:19:29","fd252370c17a9971d68c1d4354a03c2e","","Mozilla/5.0 (Windows NT 10.0; Win64; x64) AppleWebKit/537.36 (KHTML, like Gecko) Chrome/107.0.0.0 Safari/537.36","WebKit","Chrome","107.0.0.0","Windows","10.0","null","null","","<p style=""font-size: 48px;"">+</p>","practice","practice_n","",""
"","","","","","picture","65941","image-keyboard-response","32","77678","0.0-4.0-3.5","47","2","2022-11-17 12:19:29","fd252370c17a9971d68c1d4354a03c2e","","Mozilla/5.0 (Windows NT 10.0; Win64; x64) AppleWebKit/537.36 (KHTML, like Gecko) Chrome/107.0.0.0 Safari/537.36","WebKit","Chrome","107.0.0.0","Windows","10.0","772","n","","bananaB.jpg","practice","practice_n","true",""
"","","","","","","","html-keyboard-response","33","79707","0.0-4.0-4.5","47","2","2022-11-17 12:19:29","fd252370c17a9971d68c1d4354a03c2e","","Mozilla/5.0 (Windows NT 10.0; Win64; x64) AppleWebKit/537.36 (KHTML, like Gecko) Chrome/107.0.0.0 Safari/537.36","WebKit","Chrome","107.0.0.0","Windows","10.0","null","null","","CORRECT!","","","",""
"","","","","","movetoexp","65941","html-button-response","34","86546","0.0-5.0","47","2","2022-11-17 12:19:29","fd252370c17a9971d68c1d4354a03c2e","","Mozilla/5.0 (Windows NT 10.0; Win64; x64) AppleWebKit/537.36 (KHTML, like Gecko) Chrome/107.0.0.0 Safari/537.36","WebKit","Chrome","107.0.0.0","Windows","10.0","6822","0","","<p style=""font-size:20px;"">You have now completed the practice session! </p>
                    <p style=""font-size:20px;"">You will now move on to the main experiment, where you will not be provided any feedback. </p>
                    <p style=""font-size:20px;"">Remember, you should press <strong>S</strong> if the pictured object was mentioned in the preceding sentence<br> and <strong>N</strong> if the pictured object was not mentioned in the preceding sentence.</p>
                    <p style=""font-size:20px;"">Please click the button below to continue to the main experiment. </p>","","","",""
"","","","","","fixation","65941","html-keyboard-response","35","87555","0.0-6.0-0.0","47","2","2022-11-17 12:19:29","fd252370c17a9971d68c1d4354a03c2e","","Mozilla/5.0 (Windows NT 10.0; Win64; x64) AppleWebKit/537.36 (KHTML, like Gecko) Chrome/107.0.0.0 Safari/537.36","WebKit","Chrome","107.0.0.0","Windows","10.0","null","null","","<p style=""font-size: 48px;"">+</p>","2","Filler","",""
"","","","","","sentence","65941","html-keyboard-response","36","90661","0.0-6.0-1.0","47","2","2022-11-17 12:19:29","fd252370c17a9971d68c1d4354a03c2e","","Mozilla/5.0 (Windows NT 10.0; Win64; x64) AppleWebKit/537.36 (KHTML, like Gecko) Chrome/107.0.0.0 Safari/537.36","WebKit","Chrome","107.0.0.0","Windows","10.0","3087"," ","","A woman is paying with a debit card","2","Filler","",""
"","","","","","fixation","65941","html-keyboard-response","37","91184","0.0-6.0-2.0","47","2","2022-11-17 12:19:29","fd252370c17a9971d68c1d4354a03c2e","","Mozilla/5.0 (Windows NT 10.0; Win64; x64) AppleWebKit/537.36 (KHTML, like Gecko) Chrome/107.0.0.0 Safari/537.36","WebKit","Chrome","107.0.0.0","Windows","10.0","null","null","","<p style=""font-size: 48px;"">+</p>","2","Filler","",""
"","","","","","picture","65941","image-keyboard-response","38","91928","0.0-6.0-3.0","47","2","2022-11-17 12:19:29","fd252370c17a9971d68c1d4354a03c2e","","Mozilla/5.0 (Windows NT 10.0; Win64; x64) AppleWebKit/537.36 (KHTML, like Gecko) Chrome/107.0.0.0 Safari/537.36","WebKit","Chrome","107.0.0.0","Windows","10.0","724","n","","papercup.jpg","2","Filler","true",""
"","","","","","fixation","65941","html-keyboard-response","39","92948","0.0-6.0-0.1","47","2","2022-11-17 12:19:29","fd252370c17a9971d68c1d4354a03c2e","","Mozilla/5.0 (Windows NT 10.0; Win64; x64) AppleWebKit/537.36 (KHTML, like Gecko) Chrome/107.0.0.0 Safari/537.36","WebKit","Chrome","107.0.0.0","Windows","10.0","null","null","","<p style=""font-size: 48px;"">+</p>","2","Light_Contradictory","",""
"","","","","","sentence","65941","html-keyboard-response","40","94464","0.0-6.0-1.1","47","2","2022-11-17 12:19:29","fd252370c17a9971d68c1d4354a03c2e","","Mozilla/5.0 (Windows NT 10.0; Win64; x64) AppleWebKit/537.36 (KHTML, like Gecko) Chrome/107.0.0.0 Safari/537.36","WebKit","Chrome","107.0.0.0","Windows","10.0","1498"," ","","A balloon dropped and smashed an egg","2","Light_Contradictory","",""
"","","","","","fixation","65941","html-keyboard-response","41","94996","0.0-6.0-2.1","47","2","2022-11-17 12:19:29","fd252370c17a9971d68c1d4354a03c2e","","Mozilla/5.0 (Windows NT 10.0; Win64; x64) AppleWebKit/537.36 (KHTML, like Gecko) Chrome/107.0.0.0 Safari/537.36","WebKit","Chrome","107.0.0.0","Windows","10.0","null","null","","<p style=""font-size: 48px;"">+</p>","2","Light_Contradictory","",""
"","","","","","picture","65941","image-keyboard-response","42","95733","0.0-6.0-3.1","47","2","2022-11-17 12:19:29","fd252370c17a9971d68c1d4354a03c2e","","Mozilla/5.0 (Windows NT 10.0; Win64; x64) AppleWebKit/537.36 (KHTML, like Gecko) Chrome/107.0.0.0 Safari/537.36","WebKit","Chrome","107.0.0.0","Windows","10.0","712","s","","eggS.jpg","2","Light_Contradictory","true",""
"","","","","","fixation","65941","html-keyboard-response","43","96758","0.0-6.0-0.2","47","2","2022-11-17 12:19:29","fd252370c17a9971d68c1d4354a03c2e","","Mozilla/5.0 (Windows NT 10.0; Win64; x64) AppleWebKit/537.36 (KHTML, like Gecko) Chrome/107.0.0.0 Safari/537.36","WebKit","Chrome","107.0.0.0","Windows","10.0","null","null","","<p style=""font-size: 48px;"">+</p>","2","Light_Matched","",""
"","","","","","sentence","65941","html-keyboard-response","44","98104","0.0-6.0-1.2","47","2","2022-11-17 12:19:29","fd252370c17a9971d68c1d4354a03c2e","","Mozilla/5.0 (Windows NT 10.0; Win64; x64) AppleWebKit/537.36 (KHTML, like Gecko) Chrome/107.0.0.0 Safari/537.36","WebKit","Chrome","107.0.0.0","Windows","10.0","1328"," ","","A balloon dropped and touched a vase","2","Light_Matched","",""
"","","","","","fixation","65941","html-keyboard-response","45","98635","0.0-6.0-2.2","47","2","2022-11-17 12:19:29","fd252370c17a9971d68c1d4354a03c2e","","Mozilla/5.0 (Windows NT 10.0; Win64; x64) AppleWebKit/537.36 (KHTML, like Gecko) Chrome/107.0.0.0 Safari/537.36","WebKit","Chrome","107.0.0.0","Windows","10.0","null","null","","<p style=""font-size: 48px;"">+</p>","2","Light_Matched","",""
"","","","","","picture","65941","image-keyboard-response","46","99757","0.0-6.0-3.2","47","2","2022-11-17 12:19:29","fd252370c17a9971d68c1d4354a03c2e","","Mozilla/5.0 (Windows NT 10.0; Win64; x64) AppleWebKit/537.36 (KHTML, like Gecko) Chrome/107.0.0.0 Safari/537.36","WebKit","Chrome","107.0.0.0","Windows","10.0","1097","s","","vaseS.jpg","2","Light_Matched","true",""
"","","","","","fixation","65941","html-keyboard-response","47","100786","0.0-6.0-0.3","47","2","2022-11-17 12:19:29","fd252370c17a9971d68c1d4354a03c2e","","Mozilla/5.0 (Windows NT 10.0; Win64; x64) AppleWebKit/537.36 (KHTML, like Gecko) Chrome/107.0.0.0 Safari/537.36","WebKit","Chrome","107.0.0.0","Windows","10.0","null","null","","<p style=""font-size: 48px;"">+</p>","2","Light_Contradictory","",""
"","","","","","sentence","65941","html-keyboard-response","48","102354","0.0-6.0-1.3","47","2","2022-11-17 12:19:29","fd252370c17a9971d68c1d4354a03c2e","","Mozilla/5.0 (Windows NT 10.0; Win64; x64) AppleWebKit/537.36 (KHTML, like Gecko) Chrome/107.0.0.0 Safari/537.36","WebKit","Chrome","107.0.0.0","Windows","10.0","1547"," ","","A balloon dropped and smashed a wineglass","2","Light_Contradictory","",""
"","","","","","fixation","65941","html-keyboard-response","49","102888","0.0-6.0-2.3","47","2","2022-11-17 12:19:29","fd252370c17a9971d68c1d4354a03c2e","","Mozilla/5.0 (Windows NT 10.0; Win64; x64) AppleWebKit/537.36 (KHTML, like Gecko) Chrome/107.0.0.0 Safari/537.36","WebKit","Chrome","107.0.0.0","Windows","10.0","null","null","","<p style=""font-size: 48px;"">+</p>","2","Light_Contradictory","",""
"","","","","","picture","65941","image-keyboard-response","50","103677","0.0-6.0-3.3","47","2","2022-11-17 12:19:29","fd252370c17a9971d68c1d4354a03c2e","","Mozilla/5.0 (Windows NT 10.0; Win64; x64) AppleWebKit/537.36 (KHTML, like Gecko) Chrome/107.0.0.0 Safari/537.36","WebKit","Chrome","107.0.0.0","Windows","10.0","762","s","","wineglassS.jpg","2","Light_Contradictory","true",""
"","","","","","fixation","65941","html-keyboard-response","51","104707","0.0-6.0-0.4","47","2","2022-11-17 12:19:29","fd252370c17a9971d68c1d4354a03c2e","","Mozilla/5.0 (Windows NT 10.0; Win64; x64) AppleWebKit/537.36 (KHTML, like Gecko) Chrome/107.0.0.0 Safari/537.36","WebKit","Chrome","107.0.0.0","Windows","10.0","null","null","","<p style=""font-size: 48px;"">+</p>","2","Filler","",""
"","","","","","sentence","65941","html-keyboard-response","52","106660","0.0-6.0-1.4","47","2","2022-11-17 12:19:29","fd252370c17a9971d68c1d4354a03c2e","","Mozilla/5.0 (Windows NT 10.0; Win64; x64) AppleWebKit/537.36 (KHTML, like Gecko) Chrome/107.0.0.0 Safari/537.36","WebKit","Chrome","107.0.0.0","Windows","10.0","1931"," ","","A thermometer was placed on the box","2","Filler","",""
"","","","","","fixation","65941","html-keyboard-response","53","107187","0.0-6.0-2.4","47","2","2022-11-17 12:19:29","fd252370c17a9971d68c1d4354a03c2e","","Mozilla/5.0 (Windows NT 10.0; Win64; x64) AppleWebKit/537.36 (KHTML, like Gecko) Chrome/107.0.0.0 Safari/537.36","WebKit","Chrome","107.0.0.0","Windows","10.0","null","null","","<p style=""font-size: 48px;"">+</p>","2","Filler","",""
"","","","","","picture","65941","image-keyboard-response","54","108020","0.0-6.0-3.4","47","2","2022-11-17 12:19:29","fd252370c17a9971d68c1d4354a03c2e","","Mozilla/5.0 (Windows NT 10.0; Win64; x64) AppleWebKit/537.36 (KHTML, like Gecko) Chrome/107.0.0.0 Safari/537.36","WebKit","Chrome","107.0.0.0","Windows","10.0","806","n","","button.jpg","2","Filler","true",""
"","","","","","fixation","65941","html-keyboard-response","55","109055","0.0-6.0-0.5","47","2","2022-11-17 12:19:29","fd252370c17a9971d68c1d4354a03c2e","","Mozilla/5.0 (Windows NT 10.0; Win64; x64) AppleWebKit/537.36 (KHTML, like Gecko) Chrome/107.0.0.0 Safari/537.36","WebKit","Chrome","107.0.0.0","Windows","10.0","null","null","","<p style=""font-size: 48px;"">+</p>","2","Filler","",""
"","","","","","sentence","65941","html-keyboard-response","56","110639","0.0-6.0-1.5","47","2","2022-11-17 12:19:29","fd252370c17a9971d68c1d4354a03c2e","","Mozilla/5.0 (Windows NT 10.0; Win64; x64) AppleWebKit/537.36 (KHTML, like Gecko) Chrome/107.0.0.0 Safari/537.36","WebKit","Chrome","107.0.0.0","Windows","10.0","1561"," ","","A panda is resting on a tree","2","Filler","",""
"","","","","","fixation","65941","html-keyboard-response","57","111175","0.0-6.0-2.5","47","2","2022-11-17 12:19:29","fd252370c17a9971d68c1d4354a03c2e","","Mozilla/5.0 (Windows NT 10.0; Win64; x64) AppleWebKit/537.36 (KHTML, like Gecko) Chrome/107.0.0.0 Safari/537.36","WebKit","Chrome","107.0.0.0","Windows","10.0","null","null","","<p style=""font-size: 48px;"">+</p>","2","Filler","",""
"","","","","","picture","65941","image-keyboard-response","58","111941","0.0-6.0-3.5","47","2","2022-11-17 12:19:29","fd252370c17a9971d68c1d4354a03c2e","","Mozilla/5.0 (Windows NT 10.0; Win64; x64) AppleWebKit/537.36 (KHTML, like Gecko) Chrome/107.0.0.0 Safari/537.36","WebKit","Chrome","107.0.0.0","Windows","10.0","740","n","","dollar.jpg","2","Filler","true",""
"","","","","","fixation","65941","html-keyboard-response","59","112969","0.0-6.0-0.6","47","2","2022-11-17 12:19:29","fd252370c17a9971d68c1d4354a03c2e","","Mozilla/5.0 (Windows NT 10.0; Win64; x64) AppleWebKit/537.36 (KHTML, like Gecko) Chrome/107.0.0.0 Safari/537.36","WebKit","Chrome","107.0.0.0","Windows","10.0","null","null","","<p style=""font-size: 48px;"">+</p>","2","Filler","",""
"","","","","","sentence","65941","html-keyboard-response","60","114490","0.0-6.0-1.6","47","2","2022-11-17 12:19:29","fd252370c17a9971d68c1d4354a03c2e","","Mozilla/5.0 (Windows NT 10.0; Win64; x64) AppleWebKit/537.36 (KHTML, like Gecko) Chrome/107.0.0.0 Safari/537.36","WebKit","Chrome","107.0.0.0","Windows","10.0","1497"," ","","An elephant is eating a watermelon","2","Filler","",""
"","","","","","fixation","65941","html-keyboard-response","61","115021","0.0-6.0-2.6","47","2","2022-11-17 12:19:29","fd252370c17a9971d68c1d4354a03c2e","","Mozilla/5.0 (Windows NT 10.0; Win64; x64) AppleWebKit/537.36 (KHTML, like Gecko) Chrome/107.0.0.0 Safari/537.36","WebKit","Chrome","107.0.0.0","Windows","10.0","null","null","","<p style=""font-size: 48px;"">+</p>","2","Filler","",""
"","","","","","picture","65941","image-keyboard-response","62","115937","0.0-6.0-3.6","47","2","2022-11-17 12:19:29","fd252370c17a9971d68c1d4354a03c2e","","Mozilla/5.0 (Windows NT 10.0; Win64; x64) AppleWebKit/537.36 (KHTML, like Gecko) Chrome/107.0.0.0 Safari/537.36","WebKit","Chrome","107.0.0.0","Windows","10.0","887","s","","watermelon.jpg","2","Filler","true",""
"","","","","","fixation","65941","html-keyboard-response","63","116977","0.0-6.0-0.7","47","2","2022-11-17 12:19:29","fd252370c17a9971d68c1d4354a03c2e","","Mozilla/5.0 (Windows NT 10.0; Win64; x64) AppleWebKit/537.36 (KHTML, like Gecko) Chrome/107.0.0.0 Safari/537.36","WebKit","Chrome","107.0.0.0","Windows","10.0","null","null","","<p style=""font-size: 48px;"">+</p>","2","Filler","",""
"","","","","","sentence","65941","html-keyboard-response","64","118283","0.0-6.0-1.7","47","2","2022-11-17 12:19:29","fd252370c17a9971d68c1d4354a03c2e","","Mozilla/5.0 (Windows NT 10.0; Win64; x64) AppleWebKit/537.36 (KHTML, like Gecko) Chrome/107.0.0.0 Safari/537.36","WebKit","Chrome","107.0.0.0","Windows","10.0","1280"," ","","A donkey is drinking water.","2","Filler","",""
"","","","","","fixation","65941","html-keyboard-response","65","118822","0.0-6.0-2.7","47","2","2022-11-17 12:19:29","fd252370c17a9971d68c1d4354a03c2e","","Mozilla/5.0 (Windows NT 10.0; Win64; x64) AppleWebKit/537.36 (KHTML, like Gecko) Chrome/107.0.0.0 Safari/537.36","WebKit","Chrome","107.0.0.0","Windows","10.0","null","null","","<p style=""font-size: 48px;"">+</p>","2","Filler","",""
"","","","","","picture","65941","image-keyboard-response","66","119496","0.0-6.0-3.7","47","2","2022-11-17 12:19:29","fd252370c17a9971d68c1d4354a03c2e","","Mozilla/5.0 (Windows NT 10.0; Win64; x64) AppleWebKit/537.36 (KHTML, like Gecko) Chrome/107.0.0.0 Safari/537.36","WebKit","Chrome","107.0.0.0","Windows","10.0","642","n","","couch.jpg","2","Filler","true",""
"","","","","","fixation","65941","html-keyboard-response","67","120526","0.0-6.0-0.8","47","2","2022-11-17 12:19:29","fd252370c17a9971d68c1d4354a03c2e","","Mozilla/5.0 (Windows NT 10.0; Win64; x64) AppleWebKit/537.36 (KHTML, like Gecko) Chrome/107.0.0.0 Safari/537.36","WebKit","Chrome","107.0.0.0","Windows","10.0","null","null","","<p style=""font-size: 48px;"">+</p>","2","Heavy_Contradictory","",""
"","","","","","sentence","65941","html-keyboard-response","68","123215","0.0-6.0-1.8","47","2","2022-11-17 12:19:29","fd252370c17a9971d68c1d4354a03c2e","","Mozilla/5.0 (Windows NT 10.0; Win64; x64) AppleWebKit/537.36 (KHTML, like Gecko) Chrome/107.0.0.0 Safari/537.36","WebKit","Chrome","107.0.0.0","Windows","10.0","2662"," ","","A bowling ball dropped and touched a mirror","2","Heavy_Contradictory","",""
"","","","","","fixation","65941","html-keyboard-response","69","123747","0.0-6.0-2.8","47","2","2022-11-17 12:19:29","fd252370c17a9971d68c1d4354a03c2e","","Mozilla/5.0 (Windows NT 10.0; Win64; x64) AppleWebKit/537.36 (KHTML, like Gecko) Chrome/107.0.0.0 Safari/537.36","WebKit","Chrome","107.0.0.0","Windows","10.0","null","null","","<p style=""font-size: 48px;"">+</p>","2","Heavy_Contradictory","",""
"","","","","","picture","65941","image-keyboard-response","70","124645","0.0-6.0-3.8","47","2","2022-11-17 12:19:29","fd252370c17a9971d68c1d4354a03c2e","","Mozilla/5.0 (Windows NT 10.0; Win64; x64) AppleWebKit/537.36 (KHTML, like Gecko) Chrome/107.0.0.0 Safari/537.36","WebKit","Chrome","107.0.0.0","Windows","10.0","865","s","","mirrorS.jpg","2","Heavy_Contradictory","true",""
"","","","","","fixation","65941","html-keyboard-response","71","125675","0.0-6.0-0.9","47","2","2022-11-17 12:19:29","fd252370c17a9971d68c1d4354a03c2e","","Mozilla/5.0 (Windows NT 10.0; Win64; x64) AppleWebKit/537.36 (KHTML, like Gecko) Chrome/107.0.0.0 Safari/537.36","WebKit","Chrome","107.0.0.0","Windows","10.0","null","null","","<p style=""font-size: 48px;"">+</p>","2","Light_Matched","",""
"","","","","","sentence","65941","html-keyboard-response","72","127884","0.0-6.0-1.9","47","2","2022-11-17 12:19:29","fd252370c17a9971d68c1d4354a03c2e","","Mozilla/5.0 (Windows NT 10.0; Win64; x64) AppleWebKit/537.36 (KHTML, like Gecko) Chrome/107.0.0.0 Safari/537.36","WebKit","Chrome","107.0.0.0","Windows","10.0","2174"," ","","A balloon dropped and touched a piece of sushi","2","Light_Matched","",""
"","","","","","fixation","65941","html-keyboard-response","73","128424","0.0-6.0-2.9","47","2","2022-11-17 12:19:29","fd252370c17a9971d68c1d4354a03c2e","","Mozilla/5.0 (Windows NT 10.0; Win64; x64) AppleWebKit/537.36 (KHTML, like Gecko) Chrome/107.0.0.0 Safari/537.36","WebKit","Chrome","107.0.0.0","Windows","10.0","null","null","","<p style=""font-size: 48px;"">+</p>","2","Light_Matched","",""
"","","","","","picture","65941","image-keyboard-response","74","129417","0.0-6.0-3.9","47","2","2022-11-17 12:19:29","fd252370c17a9971d68c1d4354a03c2e","","Mozilla/5.0 (Windows NT 10.0; Win64; x64) AppleWebKit/537.36 (KHTML, like Gecko) Chrome/107.0.0.0 Safari/537.36","WebKit","Chrome","107.0.0.0","Windows","10.0","963","s","","sushiS.jpg","2","Light_Matched","true",""
"","","","","","fixation","65941","html-keyboard-response","75","130450","0.0-6.0-0.10","47","2","2022-11-17 12:19:29","fd252370c17a9971d68c1d4354a03c2e","","Mozilla/5.0 (Windows NT 10.0; Win64; x64) AppleWebKit/537.36 (KHTML, like Gecko) Chrome/107.0.0.0 Safari/537.36","WebKit","Chrome","107.0.0.0","Windows","10.0","null","null","","<p style=""font-size: 48px;"">+</p>","2","Light_Contradictory","",""
"","","","","","sentence","65941","html-keyboard-response","76","132022","0.0-6.0-1.10","47","2","2022-11-17 12:19:29","fd252370c17a9971d68c1d4354a03c2e","","Mozilla/5.0 (Windows NT 10.0; Win64; x64) AppleWebKit/537.36 (KHTML, like Gecko) Chrome/107.0.0.0 Safari/537.36","WebKit","Chrome","107.0.0.0","Windows","10.0","1543"," ","","A balloon dropped and smashed a cracker","2","Light_Contradictory","",""
"","","","","","fixation","65941","html-keyboard-response","77","132559","0.0-6.0-2.10","47","2","2022-11-17 12:19:29","fd252370c17a9971d68c1d4354a03c2e","","Mozilla/5.0 (Windows NT 10.0; Win64; x64) AppleWebKit/537.36 (KHTML, like Gecko) Chrome/107.0.0.0 Safari/537.36","WebKit","Chrome","107.0.0.0","Windows","10.0","null","null","","<p style=""font-size: 48px;"">+</p>","2","Light_Contradictory","",""
"","","","","","picture","65941","image-keyboard-response","78","133307","0.0-6.0-3.10","47","2","2022-11-17 12:19:29","fd252370c17a9971d68c1d4354a03c2e","","Mozilla/5.0 (Windows NT 10.0; Win64; x64) AppleWebKit/537.36 (KHTML, like Gecko) Chrome/107.0.0.0 Safari/537.36","WebKit","Chrome","107.0.0.0","Windows","10.0","714","s","","crackerS.jpg","2","Light_Contradictory","true",""
"","","","","","fixation","65941","html-keyboard-response","79","134340","0.0-6.0-0.11","47","2","2022-11-17 12:19:29","fd252370c17a9971d68c1d4354a03c2e","","Mozilla/5.0 (Windows NT 10.0; Win64; x64) AppleWebKit/537.36 (KHTML, like Gecko) Chrome/107.0.0.0 Safari/537.36","WebKit","Chrome","107.0.0.0","Windows","10.0","null","null","","<p style=""font-size: 48px;"">+</p>","2","Filler","",""
"","","","","","sentence","65941","html-keyboard-response","80","136067","0.0-6.0-1.11","47","2","2022-11-17 12:19:29","fd252370c17a9971d68c1d4354a03c2e","","Mozilla/5.0 (Windows NT 10.0; Win64; x64) AppleWebKit/537.36 (KHTML, like Gecko) Chrome/107.0.0.0 Safari/537.36","WebKit","Chrome","107.0.0.0","Windows","10.0","1696"," ","","An owl is sitting on the branch","2","Filler","",""
"","","","","","fixation","65941","html-keyboard-response","81","136596","0.0-6.0-2.11","47","2","2022-11-17 12:19:29","fd252370c17a9971d68c1d4354a03c2e","","Mozilla/5.0 (Windows NT 10.0; Win64; x64) AppleWebKit/537.36 (KHTML, like Gecko) Chrome/107.0.0.0 Safari/537.36","WebKit","Chrome","107.0.0.0","Windows","10.0","null","null","","<p style=""font-size: 48px;"">+</p>","2","Filler","",""
"","","","","","picture","65941","image-keyboard-response","82","137388","0.0-6.0-3.11","47","2","2022-11-17 12:19:29","fd252370c17a9971d68c1d4354a03c2e","","Mozilla/5.0 (Windows NT 10.0; Win64; x64) AppleWebKit/537.36 (KHTML, like Gecko) Chrome/107.0.0.0 Safari/537.36","WebKit","Chrome","107.0.0.0","Windows","10.0","757","n","","rubberduck.jpg","2","Filler","true",""
"","","","","","fixation","65941","html-keyboard-response","83","138426","0.0-6.0-0.12","47","2","2022-11-17 12:19:29","fd252370c17a9971d68c1d4354a03c2e","","Mozilla/5.0 (Windows NT 10.0; Win64; x64) AppleWebKit/537.36 (KHTML, like Gecko) Chrome/107.0.0.0 Safari/537.36","WebKit","Chrome","107.0.0.0","Windows","10.0","null","null","","<p style=""font-size: 48px;"">+</p>","2","Filler","",""
"","","","","","sentence","65941","html-keyboard-response","84","139817","0.0-6.0-1.12","47","2","2022-11-17 12:19:29","fd252370c17a9971d68c1d4354a03c2e","","Mozilla/5.0 (Windows NT 10.0; Win64; x64) AppleWebKit/537.36 (KHTML, like Gecko) Chrome/107.0.0.0 Safari/537.36","WebKit","Chrome","107.0.0.0","Windows","10.0","1361"," ","","A boy is wearing a hat","2","Filler","",""
"","","","","","fixation","65941","html-keyboard-response","85","140358","0.0-6.0-2.12","47","2","2022-11-17 12:19:29","fd252370c17a9971d68c1d4354a03c2e","","Mozilla/5.0 (Windows NT 10.0; Win64; x64) AppleWebKit/537.36 (KHTML, like Gecko) Chrome/107.0.0.0 Safari/537.36","WebKit","Chrome","107.0.0.0","Windows","10.0","null","null","","<p style=""font-size: 48px;"">+</p>","2","Filler","",""
"","","","","","picture","65941","image-keyboard-response","86","141035","0.0-6.0-3.12","47","2","2022-11-17 12:19:29","fd252370c17a9971d68c1d4354a03c2e","","Mozilla/5.0 (Windows NT 10.0; Win64; x64) AppleWebKit/537.36 (KHTML, like Gecko) Chrome/107.0.0.0 Safari/537.36","WebKit","Chrome","107.0.0.0","Windows","10.0","641","s","","hat.jpg","2","Filler","true",""
"","","","","","fixation","65941","html-keyboard-response","87","142068","0.0-6.0-0.13","47","2","2022-11-17 12:19:29","fd252370c17a9971d68c1d4354a03c2e","","Mozilla/5.0 (Windows NT 10.0; Win64; x64) AppleWebKit/537.36 (KHTML, like Gecko) Chrome/107.0.0.0 Safari/537.36","WebKit","Chrome","107.0.0.0","Windows","10.0","null","null","","<p style=""font-size: 48px;"">+</p>","2","Filler","",""
"","","","","","sentence","65941","html-keyboard-response","88","143167","0.0-6.0-1.13","47","2","2022-11-17 12:19:29","fd252370c17a9971d68c1d4354a03c2e","","Mozilla/5.0 (Windows NT 10.0; Win64; x64) AppleWebKit/537.36 (KHTML, like Gecko) Chrome/107.0.0.0 Safari/537.36","WebKit","Chrome","107.0.0.0","Windows","10.0","1055"," ","","A man is shaving his beard","2","Filler","",""
"","","","","","fixation","65941","html-keyboard-response","89","143711","0.0-6.0-2.13","47","2","2022-11-17 12:19:29","fd252370c17a9971d68c1d4354a03c2e","","Mozilla/5.0 (Windows NT 10.0; Win64; x64) AppleWebKit/537.36 (KHTML, like Gecko) Chrome/107.0.0.0 Safari/537.36","WebKit","Chrome","107.0.0.0","Windows","10.0","null","null","","<p style=""font-size: 48px;"">+</p>","2","Filler","",""
"","","","","","picture","65941","image-keyboard-response","90","144491","0.0-6.0-3.13","47","2","2022-11-17 12:19:29","fd252370c17a9971d68c1d4354a03c2e","","Mozilla/5.0 (Windows NT 10.0; Win64; x64) AppleWebKit/537.36 (KHTML, like Gecko) Chrome/107.0.0.0 Safari/537.36","WebKit","Chrome","107.0.0.0","Windows","10.0","696","n","","clock.jpg","2","Filler","true",""
"","","","","","fixation","65941","html-keyboard-response","91","145536","0.0-6.0-0.14","47","2","2022-11-17 12:19:29","fd252370c17a9971d68c1d4354a03c2e","","Mozilla/5.0 (Windows NT 10.0; Win64; x64) AppleWebKit/537.36 (KHTML, like Gecko) Chrome/107.0.0.0 Safari/537.36","WebKit","Chrome","107.0.0.0","Windows","10.0","null","null","","<p style=""font-size: 48px;"">+</p>","2","Heavy_Matched","",""
"","","","","","sentence","65941","html-keyboard-response","92","147589","0.0-6.0-1.14","47","2","2022-11-17 12:19:29","fd252370c17a9971d68c1d4354a03c2e","","Mozilla/5.0 (Windows NT 10.0; Win64; x64) AppleWebKit/537.36 (KHTML, like Gecko) Chrome/107.0.0.0 Safari/537.36","WebKit","Chrome","107.0.0.0","Windows","10.0","2032"," ","","A bowling ball dropped and smashed a banana","2","Heavy_Matched","",""
"","","","","","fixation","65941","html-keyboard-response","93","148112","0.0-6.0-2.14","47","2","2022-11-17 12:19:29","fd252370c17a9971d68c1d4354a03c2e","","Mozilla/5.0 (Windows NT 10.0; Win64; x64) AppleWebKit/537.36 (KHTML, like Gecko) Chrome/107.0.0.0 Safari/537.36","WebKit","Chrome","107.0.0.0","Windows","10.0","null","null","","<p style=""font-size: 48px;"">+</p>","2","Heavy_Matched","",""
"","","","","","picture","65941","image-keyboard-response","94","148722","0.0-6.0-3.14","47","2","2022-11-17 12:19:29","fd252370c17a9971d68c1d4354a03c2e","","Mozilla/5.0 (Windows NT 10.0; Win64; x64) AppleWebKit/537.36 (KHTML, like Gecko) Chrome/107.0.0.0 Safari/537.36","WebKit","Chrome","107.0.0.0","Windows","10.0","568","s","","bananaS.jpg","2","Heavy_Matched","true",""
"","","","","","fixation","65941","html-keyboard-response","95","149763","0.0-6.0-0.15","47","2","2022-11-17 12:19:29","fd252370c17a9971d68c1d4354a03c2e","","Mozilla/5.0 (Windows NT 10.0; Win64; x64) AppleWebKit/537.36 (KHTML, like Gecko) Chrome/107.0.0.0 Safari/537.36","WebKit","Chrome","107.0.0.0","Windows","10.0","null","null","","<p style=""font-size: 48px;"">+</p>","2","Filler","",""
"","","","","","sentence","65941","html-keyboard-response","96","151004","0.0-6.0-1.15","47","2","2022-11-17 12:19:29","fd252370c17a9971d68c1d4354a03c2e","","Mozilla/5.0 (Windows NT 10.0; Win64; x64) AppleWebKit/537.36 (KHTML, like Gecko) Chrome/107.0.0.0 Safari/537.36","WebKit","Chrome","107.0.0.0","Windows","10.0","1205"," ","","A butterfly is sitting on a flower","2","Filler","",""
"","","","","","fixation","65941","html-keyboard-response","97","151552","0.0-6.0-2.15","47","2","2022-11-17 12:19:29","fd252370c17a9971d68c1d4354a03c2e","","Mozilla/5.0 (Windows NT 10.0; Win64; x64) AppleWebKit/537.36 (KHTML, like Gecko) Chrome/107.0.0.0 Safari/537.36","WebKit","Chrome","107.0.0.0","Windows","10.0","null","null","","<p style=""font-size: 48px;"">+</p>","2","Filler","",""
"","","","","","picture","65941","image-keyboard-response","98","152196","0.0-6.0-3.15","47","2","2022-11-17 12:19:29","fd252370c17a9971d68c1d4354a03c2e","","Mozilla/5.0 (Windows NT 10.0; Win64; x64) AppleWebKit/537.36 (KHTML, like Gecko) Chrome/107.0.0.0 Safari/537.36","WebKit","Chrome","107.0.0.0","Windows","10.0","608","n","","soap.jpg","2","Filler","true",""
"","","","","","fixation","65941","html-keyboard-response","99","153244","0.0-6.0-0.16","47","2","2022-11-17 12:19:29","fd252370c17a9971d68c1d4354a03c2e","","Mozilla/5.0 (Windows NT 10.0; Win64; x64) AppleWebKit/537.36 (KHTML, like Gecko) Chrome/107.0.0.0 Safari/537.36","WebKit","Chrome","107.0.0.0","Windows","10.0","null","null","","<p style=""font-size: 48px;"">+</p>","2","Filler","",""
"","","","","","sentence","65941","html-keyboard-response","100","154493","0.0-6.0-1.16","47","2","2022-11-17 12:19:29","fd252370c17a9971d68c1d4354a03c2e","","Mozilla/5.0 (Windows NT 10.0; Win64; x64) AppleWebKit/537.36 (KHTML, like Gecko) Chrome/107.0.0.0 Safari/537.36","WebKit","Chrome","107.0.0.0","Windows","10.0","1211"," ","","A man is playing with a cat","2","Filler","",""
"","","","","","fixation","65941","html-keyboard-response","101","155033","0.0-6.0-2.16","47","2","2022-11-17 12:19:29","fd252370c17a9971d68c1d4354a03c2e","","Mozilla/5.0 (Windows NT 10.0; Win64; x64) AppleWebKit/537.36 (KHTML, like Gecko) Chrome/107.0.0.0 Safari/537.36","WebKit","Chrome","107.0.0.0","Windows","10.0","null","null","","<p style=""font-size: 48px;"">+</p>","2","Filler","",""
"","","","","","picture","65941","image-keyboard-response","102","155896","0.0-6.0-3.16","47","2","2022-11-17 12:19:29","fd252370c17a9971d68c1d4354a03c2e","","Mozilla/5.0 (Windows NT 10.0; Win64; x64) AppleWebKit/537.36 (KHTML, like Gecko) Chrome/107.0.0.0 Safari/537.36","WebKit","Chrome","107.0.0.0","Windows","10.0","820","n","","ceramicplate.jpg","2","Filler","true",""
"","","","","","fixation","65941","html-keyboard-response","103","156942","0.0-6.0-0.17","47","2","2022-11-17 12:19:29","fd252370c17a9971d68c1d4354a03c2e","","Mozilla/5.0 (Windows NT 10.0; Win64; x64) AppleWebKit/537.36 (KHTML, like Gecko) Chrome/107.0.0.0 Safari/537.36","WebKit","Chrome","107.0.0.0","Windows","10.0","null","null","","<p style=""font-size: 48px;"">+</p>","2","Light_Matched","",""
"","","","","","sentence","65941","html-keyboard-response","104","158233","0.0-6.0-1.17","47","2","2022-11-17 12:19:29","fd252370c17a9971d68c1d4354a03c2e","","Mozilla/5.0 (Windows NT 10.0; Win64; x64) AppleWebKit/537.36 (KHTML, like Gecko) Chrome/107.0.0.0 Safari/537.36","WebKit","Chrome","107.0.0.0","Windows","10.0","1254"," ","","A balloon dropped and touched a tile","2","Light_Matched","",""
"","","","","","fixation","65941","html-keyboard-response","105","158792","0.0-6.0-2.17","47","2","2022-11-17 12:19:29","fd252370c17a9971d68c1d4354a03c2e","","Mozilla/5.0 (Windows NT 10.0; Win64; x64) AppleWebKit/537.36 (KHTML, like Gecko) Chrome/107.0.0.0 Safari/537.36","WebKit","Chrome","107.0.0.0","Windows","10.0","null","null","","<p style=""font-size: 48px;"">+</p>","2","Light_Matched","",""
"","","","","","picture","65941","image-keyboard-response","106","159693","0.0-6.0-3.17","47","2","2022-11-17 12:19:29","fd252370c17a9971d68c1d4354a03c2e","","Mozilla/5.0 (Windows NT 10.0; Win64; x64) AppleWebKit/537.36 (KHTML, like Gecko) Chrome/107.0.0.0 Safari/537.36","WebKit","Chrome","107.0.0.0","Windows","10.0","862","s","","tileS.jpg","2","Light_Matched","true",""
"","","","","","fixation","65941","html-keyboard-response","107","160743","0.0-6.0-0.18","47","2","2022-11-17 12:19:29","fd252370c17a9971d68c1d4354a03c2e","","Mozilla/5.0 (Windows NT 10.0; Win64; x64) AppleWebKit/537.36 (KHTML, like Gecko) Chrome/107.0.0.0 Safari/537.36","WebKit","Chrome","107.0.0.0","Windows","10.0","null","null","","<p style=""font-size: 48px;"">+</p>","2","Heavy_Contradictory","",""
"","","","","","sentence","65941","html-keyboard-response","108","162383","0.0-6.0-1.18","47","2","2022-11-17 12:19:29","fd252370c17a9971d68c1d4354a03c2e","","Mozilla/5.0 (Windows NT 10.0; Win64; x64) AppleWebKit/537.36 (KHTML, like Gecko) Chrome/107.0.0.0 Safari/537.36","WebKit","Chrome","107.0.0.0","Windows","10.0","1601"," ","","A bowling ball dropped and touched a donut","2","Heavy_Contradictory","",""
"","","","","","fixation","65941","html-keyboard-response","109","162922","0.0-6.0-2.18","47","2","2022-11-17 12:19:29","fd252370c17a9971d68c1d4354a03c2e","","Mozilla/5.0 (Windows NT 10.0; Win64; x64) AppleWebKit/537.36 (KHTML, like Gecko) Chrome/107.0.0.0 Safari/537.36","WebKit","Chrome","107.0.0.0","Windows","10.0","null","null","","<p style=""font-size: 48px;"">+</p>","2","Heavy_Contradictory","",""
"","","","","","picture","65941","image-keyboard-response","110","163464","0.0-6.0-3.18","47","2","2022-11-17 12:19:29","fd252370c17a9971d68c1d4354a03c2e","","Mozilla/5.0 (Windows NT 10.0; Win64; x64) AppleWebKit/537.36 (KHTML, like Gecko) Chrome/107.0.0.0 Safari/537.36","WebKit","Chrome","107.0.0.0","Windows","10.0","499","s","","donutS.jpg","2","Heavy_Contradictory","true",""
"","","","","","fixation","65941","html-keyboard-response","111","164503","0.0-6.0-0.19","47","2","2022-11-17 12:19:29","fd252370c17a9971d68c1d4354a03c2e","","Mozilla/5.0 (Windows NT 10.0; Win64; x64) AppleWebKit/537.36 (KHTML, like Gecko) Chrome/107.0.0.0 Safari/537.36","WebKit","Chrome","107.0.0.0","Windows","10.0","null","null","","<p style=""font-size: 48px;"">+</p>","2","Filler","",""
"","","","","","sentence","65941","html-keyboard-response","112","166594","0.0-6.0-1.19","47","2","2022-11-17 12:19:29","fd252370c17a9971d68c1d4354a03c2e","","Mozilla/5.0 (Windows NT 10.0; Win64; x64) AppleWebKit/537.36 (KHTML, like Gecko) Chrome/107.0.0.0 Safari/537.36","WebKit","Chrome","107.0.0.0","Windows","10.0","2051"," ","","A towel was placed on the TV","2","Filler","",""
"","","","","","fixation","65941","html-keyboard-response","113","167130","0.0-6.0-2.19","47","2","2022-11-17 12:19:29","fd252370c17a9971d68c1d4354a03c2e","","Mozilla/5.0 (Windows NT 10.0; Win64; x64) AppleWebKit/537.36 (KHTML, like Gecko) Chrome/107.0.0.0 Safari/537.36","WebKit","Chrome","107.0.0.0","Windows","10.0","null","null","","<p style=""font-size: 48px;"">+</p>","2","Filler","",""
"","","","","","picture","65941","image-keyboard-response","114","167696","0.0-6.0-3.19","47","2","2022-11-17 12:19:29","fd252370c17a9971d68c1d4354a03c2e","","Mozilla/5.0 (Windows NT 10.0; Win64; x64) AppleWebKit/537.36 (KHTML, like Gecko) Chrome/107.0.0.0 Safari/537.36","WebKit","Chrome","107.0.0.0","Windows","10.0","519","n","","pencil.jpg","2","Filler","true",""
"","","","","","fixation","65941","html-keyboard-response","115","168741","0.0-6.0-0.20","47","2","2022-11-17 12:19:29","fd252370c17a9971d68c1d4354a03c2e","","Mozilla/5.0 (Windows NT 10.0; Win64; x64) AppleWebKit/537.36 (KHTML, like Gecko) Chrome/107.0.0.0 Safari/537.36","WebKit","Chrome","107.0.0.0","Windows","10.0","null","null","","<p style=""font-size: 48px;"">+</p>","2","Filler","",""
"","","","","","sentence","65941","html-keyboard-response","116","169930","0.0-6.0-1.20","47","2","2022-11-17 12:19:29","fd252370c17a9971d68c1d4354a03c2e","","Mozilla/5.0 (Windows NT 10.0; Win64; x64) AppleWebKit/537.36 (KHTML, like Gecko) Chrome/107.0.0.0 Safari/537.36","WebKit","Chrome","107.0.0.0","Windows","10.0","1147"," ","","A student is writing on a board","2","Filler","",""
"","","","","","fixation","65941","html-keyboard-response","117","170478","0.0-6.0-2.20","47","2","2022-11-17 12:19:29","fd252370c17a9971d68c1d4354a03c2e","","Mozilla/5.0 (Windows NT 10.0; Win64; x64) AppleWebKit/537.36 (KHTML, like Gecko) Chrome/107.0.0.0 Safari/537.36","WebKit","Chrome","107.0.0.0","Windows","10.0","null","null","","<p style=""font-size: 48px;"">+</p>","2","Filler","",""
"","","","","","picture","65941","image-keyboard-response","118","171080","0.0-6.0-3.20","47","2","2022-11-17 12:19:29","fd252370c17a9971d68c1d4354a03c2e","","Mozilla/5.0 (Windows NT 10.0; Win64; x64) AppleWebKit/537.36 (KHTML, like Gecko) Chrome/107.0.0.0 Safari/537.36","WebKit","Chrome","107.0.0.0","Windows","10.0","563","n","","owl.jpg","2","Filler","true",""
"","","","","","fixation","65941","html-keyboard-response","119","172110","0.0-6.0-0.21","47","2","2022-11-17 12:19:29","fd252370c17a9971d68c1d4354a03c2e","","Mozilla/5.0 (Windows NT 10.0; Win64; x64) AppleWebKit/537.36 (KHTML, like Gecko) Chrome/107.0.0.0 Safari/537.36","WebKit","Chrome","107.0.0.0","Windows","10.0","null","null","","<p style=""font-size: 48px;"">+</p>","2","Filler","",""
"","","","","","sentence","65941","html-keyboard-response","120","173844","0.0-6.0-1.21","47","2","2022-11-17 12:19:29","fd252370c17a9971d68c1d4354a03c2e","","Mozilla/5.0 (Windows NT 10.0; Win64; x64) AppleWebKit/537.36 (KHTML, like Gecko) Chrome/107.0.0.0 Safari/537.36","WebKit","Chrome","107.0.0.0","Windows","10.0","1696"," ","","An old man is hammering a nail","2","Filler","",""
"","","","","","fixation","65941","html-keyboard-response","121","174383","0.0-6.0-2.21","47","2","2022-11-17 12:19:29","fd252370c17a9971d68c1d4354a03c2e","","Mozilla/5.0 (Windows NT 10.0; Win64; x64) AppleWebKit/537.36 (KHTML, like Gecko) Chrome/107.0.0.0 Safari/537.36","WebKit","Chrome","107.0.0.0","Windows","10.0","null","null","","<p style=""font-size: 48px;"">+</p>","2","Filler","",""
"","","","","","picture","65941","image-keyboard-response","122","175143","0.0-6.0-3.21","47","2","2022-11-17 12:19:29","fd252370c17a9971d68c1d4354a03c2e","","Mozilla/5.0 (Windows NT 10.0; Win64; x64) AppleWebKit/537.36 (KHTML, like Gecko) Chrome/107.0.0.0 Safari/537.36","WebKit","Chrome","107.0.0.0","Windows","10.0","716","s","","nail.jpg","2","Filler","true",""
"","","","","","fixation","65941","html-keyboard-response","123","176184","0.0-6.0-0.22","47","2","2022-11-17 12:19:29","fd252370c17a9971d68c1d4354a03c2e","","Mozilla/5.0 (Windows NT 10.0; Win64; x64) AppleWebKit/537.36 (KHTML, like Gecko) Chrome/107.0.0.0 Safari/537.36","WebKit","Chrome","107.0.0.0","Windows","10.0","null","null","","<p style=""font-size: 48px;"">+</p>","2","Filler","",""
"","","","","","sentence","65941","html-keyboard-response","124","177111","0.0-6.0-1.22","47","2","2022-11-17 12:19:29","fd252370c17a9971d68c1d4354a03c2e","","Mozilla/5.0 (Windows NT 10.0; Win64; x64) AppleWebKit/537.36 (KHTML, like Gecko) Chrome/107.0.0.0 Safari/537.36","WebKit","Chrome","107.0.0.0","Windows","10.0","899"," ","","A mouse is eating cheese","2","Filler","",""
"","","","","","fixation","65941","html-keyboard-response","125","177654","0.0-6.0-2.22","47","2","2022-11-17 12:19:29","fd252370c17a9971d68c1d4354a03c2e","","Mozilla/5.0 (Windows NT 10.0; Win64; x64) AppleWebKit/537.36 (KHTML, like Gecko) Chrome/107.0.0.0 Safari/537.36","WebKit","Chrome","107.0.0.0","Windows","10.0","null","null","","<p style=""font-size: 48px;"">+</p>","2","Filler","",""
"","","","","","picture","65941","image-keyboard-response","126","178772","0.0-6.0-3.22","47","2","2022-11-17 12:19:29","fd252370c17a9971d68c1d4354a03c2e","","Mozilla/5.0 (Windows NT 10.0; Win64; x64) AppleWebKit/537.36 (KHTML, like Gecko) Chrome/107.0.0.0 Safari/537.36","WebKit","Chrome","107.0.0.0","Windows","10.0","1086","n","","ring.jpg","2","Filler","true",""
"","","","","","fixation","65941","html-keyboard-response","127","179814","0.0-6.0-0.23","47","2","2022-11-17 12:19:29","fd252370c17a9971d68c1d4354a03c2e","","Mozilla/5.0 (Windows NT 10.0; Win64; x64) AppleWebKit/537.36 (KHTML, like Gecko) Chrome/107.0.0.0 Safari/537.36","WebKit","Chrome","107.0.0.0","Windows","10.0","null","null","","<p style=""font-size: 48px;"">+</p>","2","Heavy_Matched","",""
"","","","","","sentence","65941","html-keyboard-response","128","181869","0.0-6.0-1.23","47","2","2022-11-17 12:19:29","fd252370c17a9971d68c1d4354a03c2e","","Mozilla/5.0 (Windows NT 10.0; Win64; x64) AppleWebKit/537.36 (KHTML, like Gecko) Chrome/107.0.0.0 Safari/537.36","WebKit","Chrome","107.0.0.0","Windows","10.0","2026"," ","","A bowling ball dropped and smashed a chocolate ice-cream","2","Heavy_Matched","",""
"","","","","","fixation","65941","html-keyboard-response","129","182416","0.0-6.0-2.23","47","2","2022-11-17 12:19:29","fd252370c17a9971d68c1d4354a03c2e","","Mozilla/5.0 (Windows NT 10.0; Win64; x64) AppleWebKit/537.36 (KHTML, like Gecko) Chrome/107.0.0.0 Safari/537.36","WebKit","Chrome","107.0.0.0","Windows","10.0","null","null","","<p style=""font-size: 48px;"">+</p>","2","Heavy_Matched","",""
"","","","","","picture","65941","image-keyboard-response","130","183186","0.0-6.0-3.23","47","2","2022-11-17 12:19:29","fd252370c17a9971d68c1d4354a03c2e","","Mozilla/5.0 (Windows NT 10.0; Win64; x64) AppleWebKit/537.36 (KHTML, like Gecko) Chrome/107.0.0.0 Safari/537.36","WebKit","Chrome","107.0.0.0","Windows","10.0","721","s","","icecreamS.jpg","2","Heavy_Matched","true",""
"","","","","","fixation","65941","html-keyboard-response","131","184226","0.0-6.0-0.24","47","2","2022-11-17 12:19:29","fd252370c17a9971d68c1d4354a03c2e","","Mozilla/5.0 (Windows NT 10.0; Win64; x64) AppleWebKit/537.36 (KHTML, like Gecko) Chrome/107.0.0.0 Safari/537.36","WebKit","Chrome","107.0.0.0","Windows","10.0","null","null","","<p style=""font-size: 48px;"">+</p>","2","Light_Matched","",""
"","","","","","sentence","65941","html-keyboard-response","132","185648","0.0-6.0-1.24","47","2","2022-11-17 12:19:29","fd252370c17a9971d68c1d4354a03c2e","","Mozilla/5.0 (Windows NT 10.0; Win64; x64) AppleWebKit/537.36 (KHTML, like Gecko) Chrome/107.0.0.0 Safari/537.36","WebKit","Chrome","107.0.0.0","Windows","10.0","1385"," ","","A balloon dropped and touched a strawberry","2","Light_Matched","",""
"","","","","","fixation","65941","html-keyboard-response","133","186194","0.0-6.0-2.24","47","2","2022-11-17 12:19:29","fd252370c17a9971d68c1d4354a03c2e","","Mozilla/5.0 (Windows NT 10.0; Win64; x64) AppleWebKit/537.36 (KHTML, like Gecko) Chrome/107.0.0.0 Safari/537.36","WebKit","Chrome","107.0.0.0","Windows","10.0","null","null","","<p style=""font-size: 48px;"">+</p>","2","Light_Matched","",""
"","","","","","picture","65941","image-keyboard-response","134","186797","0.0-6.0-3.24","47","2","2022-11-17 12:19:29","fd252370c17a9971d68c1d4354a03c2e","","Mozilla/5.0 (Windows NT 10.0; Win64; x64) AppleWebKit/537.36 (KHTML, like Gecko) Chrome/107.0.0.0 Safari/537.36","WebKit","Chrome","107.0.0.0","Windows","10.0","561","s","","strawberryS.jpg","2","Light_Matched","true",""
"","","","","","fixation","65941","html-keyboard-response","135","187846","0.0-6.0-0.25","47","2","2022-11-17 12:19:29","fd252370c17a9971d68c1d4354a03c2e","","Mozilla/5.0 (Windows NT 10.0; Win64; x64) AppleWebKit/537.36 (KHTML, like Gecko) Chrome/107.0.0.0 Safari/537.36","WebKit","Chrome","107.0.0.0","Windows","10.0","null","null","","<p style=""font-size: 48px;"">+</p>","2","Filler","",""
"","","","","","sentence","65941","html-keyboard-response","136","189014","0.0-6.0-1.25","47","2","2022-11-17 12:19:29","fd252370c17a9971d68c1d4354a03c2e","","Mozilla/5.0 (Windows NT 10.0; Win64; x64) AppleWebKit/537.36 (KHTML, like Gecko) Chrome/107.0.0.0 Safari/537.36","WebKit","Chrome","107.0.0.0","Windows","10.0","1132"," ","","A toothbrush was placed on the sponge","2","Filler","",""
"","","","","","fixation","65941","html-keyboard-response","137","189554","0.0-6.0-2.25","47","2","2022-11-17 12:19:29","fd252370c17a9971d68c1d4354a03c2e","","Mozilla/5.0 (Windows NT 10.0; Win64; x64) AppleWebKit/537.36 (KHTML, like Gecko) Chrome/107.0.0.0 Safari/537.36","WebKit","Chrome","107.0.0.0","Windows","10.0","null","null","","<p style=""font-size: 48px;"">+</p>","2","Filler","",""
"","","","","","picture","65941","image-keyboard-response","138","190289","0.0-6.0-3.25","47","2","2022-11-17 12:19:29","fd252370c17a9971d68c1d4354a03c2e","","Mozilla/5.0 (Windows NT 10.0; Win64; x64) AppleWebKit/537.36 (KHTML, like Gecko) Chrome/107.0.0.0 Safari/537.36","WebKit","Chrome","107.0.0.0","Windows","10.0","694","s","","sponge.jpg","2","Filler","true",""
"","","","","","fixation","65941","html-keyboard-response","139","191337","0.0-6.0-0.26","47","2","2022-11-17 12:19:29","fd252370c17a9971d68c1d4354a03c2e","","Mozilla/5.0 (Windows NT 10.0; Win64; x64) AppleWebKit/537.36 (KHTML, like Gecko) Chrome/107.0.0.0 Safari/537.36","WebKit","Chrome","107.0.0.0","Windows","10.0","null","null","","<p style=""font-size: 48px;"">+</p>","2","Heavy_Contradictory","",""
"","","","","","sentence","65941","html-keyboard-response","140","192964","0.0-6.0-1.26","47","2","2022-11-17 12:19:29","fd252370c17a9971d68c1d4354a03c2e","","Mozilla/5.0 (Windows NT 10.0; Win64; x64) AppleWebKit/537.36 (KHTML, like Gecko) Chrome/107.0.0.0 Safari/537.36","WebKit","Chrome","107.0.0.0","Windows","10.0","1583"," ","","A bowling ball dropped and touched a rice cake","2","Heavy_Contradictory","",""
"","","","","","fixation","65941","html-keyboard-response","141","193519","0.0-6.0-2.26","47","2","2022-11-17 12:19:29","fd252370c17a9971d68c1d4354a03c2e","","Mozilla/5.0 (Windows NT 10.0; Win64; x64) AppleWebKit/537.36 (KHTML, like Gecko) Chrome/107.0.0.0 Safari/537.36","WebKit","Chrome","107.0.0.0","Windows","10.0","null","null","","<p style=""font-size: 48px;"">+</p>","2","Heavy_Contradictory","",""
"","","","","","picture","65941","image-keyboard-response","142","194179","0.0-6.0-3.26","47","2","2022-11-17 12:19:29","fd252370c17a9971d68c1d4354a03c2e","","Mozilla/5.0 (Windows NT 10.0; Win64; x64) AppleWebKit/537.36 (KHTML, like Gecko) Chrome/107.0.0.0 Safari/537.36","WebKit","Chrome","107.0.0.0","Windows","10.0","618","s","","tortitaS.jpg","2","Heavy_Contradictory","true",""
"","","","","","fixation","65941","html-keyboard-response","143","195227","0.0-6.0-0.27","47","2","2022-11-17 12:19:29","fd252370c17a9971d68c1d4354a03c2e","","Mozilla/5.0 (Windows NT 10.0; Win64; x64) AppleWebKit/537.36 (KHTML, like Gecko) Chrome/107.0.0.0 Safari/537.36","WebKit","Chrome","107.0.0.0","Windows","10.0","null","null","","<p style=""font-size: 48px;"">+</p>","2","Filler","",""
"","","","","","sentence","65941","html-keyboard-response","144","196758","0.0-6.0-1.27","47","2","2022-11-17 12:19:29","fd252370c17a9971d68c1d4354a03c2e","","Mozilla/5.0 (Windows NT 10.0; Win64; x64) AppleWebKit/537.36 (KHTML, like Gecko) Chrome/107.0.0.0 Safari/537.36","WebKit","Chrome","107.0.0.0","Windows","10.0","1484"," ","","A giraffe is playing with a zebra","2","Filler","",""
"","","","","","fixation","65941","html-keyboard-response","145","197309","0.0-6.0-2.27","47","2","2022-11-17 12:19:29","fd252370c17a9971d68c1d4354a03c2e","","Mozilla/5.0 (Windows NT 10.0; Win64; x64) AppleWebKit/537.36 (KHTML, like Gecko) Chrome/107.0.0.0 Safari/537.36","WebKit","Chrome","107.0.0.0","Windows","10.0","null","null","","<p style=""font-size: 48px;"">+</p>","2","Filler","",""
"","","","","","picture","65941","image-keyboard-response","146","198192","0.0-6.0-3.27","47","2","2022-11-17 12:19:29","fd252370c17a9971d68c1d4354a03c2e","","Mozilla/5.0 (Windows NT 10.0; Win64; x64) AppleWebKit/537.36 (KHTML, like Gecko) Chrome/107.0.0.0 Safari/537.36","WebKit","Chrome","107.0.0.0","Windows","10.0","838","n","","wallet.jpg","2","Filler","true",""
"","","","","","fixation","65941","html-keyboard-response","147","199235","0.0-6.0-0.28","47","2","2022-11-17 12:19:29","fd252370c17a9971d68c1d4354a03c2e","","Mozilla/5.0 (Windows NT 10.0; Win64; x64) AppleWebKit/537.36 (KHTML, like Gecko) Chrome/107.0.0.0 Safari/537.36","WebKit","Chrome","107.0.0.0","Windows","10.0","null","null","","<p style=""font-size: 48px;"">+</p>","2","Filler","",""
"","","","","","sentence","65941","html-keyboard-response","148","200504","0.0-6.0-1.28","47","2","2022-11-17 12:19:29","fd252370c17a9971d68c1d4354a03c2e","","Mozilla/5.0 (Windows NT 10.0; Win64; x64) AppleWebKit/537.36 (KHTML, like Gecko) Chrome/107.0.0.0 Safari/537.36","WebKit","Chrome","107.0.0.0","Windows","10.0","1210"," ","","An astronaut is putting on a space suit","2","Filler","",""
"","","","","","fixation","65941","html-keyboard-response","149","201054","0.0-6.0-2.28","47","2","2022-11-17 12:19:29","fd252370c17a9971d68c1d4354a03c2e","","Mozilla/5.0 (Windows NT 10.0; Win64; x64) AppleWebKit/537.36 (KHTML, like Gecko) Chrome/107.0.0.0 Safari/537.36","WebKit","Chrome","107.0.0.0","Windows","10.0","null","null","","<p style=""font-size: 48px;"">+</p>","2","Filler","",""
"","","","","","picture","65941","image-keyboard-response","150","201617","0.0-6.0-3.28","47","2","2022-11-17 12:19:29","fd252370c17a9971d68c1d4354a03c2e","","Mozilla/5.0 (Windows NT 10.0; Win64; x64) AppleWebKit/537.36 (KHTML, like Gecko) Chrome/107.0.0.0 Safari/537.36","WebKit","Chrome","107.0.0.0","Windows","10.0","531","s","","spacesuit.jpg","2","Filler","true",""
"","","","","","fixation","65941","html-keyboard-response","151","202668","0.0-6.0-0.29","47","2","2022-11-17 12:19:29","fd252370c17a9971d68c1d4354a03c2e","","Mozilla/5.0 (Windows NT 10.0; Win64; x64) AppleWebKit/537.36 (KHTML, like Gecko) Chrome/107.0.0.0 Safari/537.36","WebKit","Chrome","107.0.0.0","Windows","10.0","null","null","","<p style=""font-size: 48px;"">+</p>","2","Filler","",""
"","","","","","sentence","65941","html-keyboard-response","152","204032","0.0-6.0-1.29","47","2","2022-11-17 12:19:29","fd252370c17a9971d68c1d4354a03c2e","","Mozilla/5.0 (Windows NT 10.0; Win64; x64) AppleWebKit/537.36 (KHTML, like Gecko) Chrome/107.0.0.0 Safari/537.36","WebKit","Chrome","107.0.0.0","Windows","10.0","1318"," ","","A remote was placed on the rug","2","Filler","",""
"","","","","","fixation","65941","html-keyboard-response","153","204589","0.0-6.0-2.29","47","2","2022-11-17 12:19:29","fd252370c17a9971d68c1d4354a03c2e","","Mozilla/5.0 (Windows NT 10.0; Win64; x64) AppleWebKit/537.36 (KHTML, like Gecko) Chrome/107.0.0.0 Safari/537.36","WebKit","Chrome","107.0.0.0","Windows","10.0","null","null","","<p style=""font-size: 48px;"">+</p>","2","Filler","",""
"","","","","","picture","65941","image-keyboard-response","154","205435","0.0-6.0-3.29","47","2","2022-11-17 12:19:29","fd252370c17a9971d68c1d4354a03c2e","","Mozilla/5.0 (Windows NT 10.0; Win64; x64) AppleWebKit/537.36 (KHTML, like Gecko) Chrome/107.0.0.0 Safari/537.36","WebKit","Chrome","107.0.0.0","Windows","10.0","804","n","","CD.jpg","2","Filler","true",""
"","","","","","fixation","65941","html-keyboard-response","155","206491","0.0-6.0-0.30","47","2","2022-11-17 12:19:29","fd252370c17a9971d68c1d4354a03c2e","","Mozilla/5.0 (Windows NT 10.0; Win64; x64) AppleWebKit/537.36 (KHTML, like Gecko) Chrome/107.0.0.0 Safari/537.36","WebKit","Chrome","107.0.0.0","Windows","10.0","null","null","","<p style=""font-size: 48px;"">+</p>","2","Filler","",""
"","","","","","sentence","65941","html-keyboard-response","156","207372","0.0-6.0-1.30","47","2","2022-11-17 12:19:29","fd252370c17a9971d68c1d4354a03c2e","","Mozilla/5.0 (Windows NT 10.0; Win64; x64) AppleWebKit/537.36 (KHTML, like Gecko) Chrome/107.0.0.0 Safari/537.36","WebKit","Chrome","107.0.0.0","Windows","10.0","830"," ","","A thief is stealing a wallet","2","Filler","",""
"","","","","","fixation","65941","html-keyboard-response","157","207926","0.0-6.0-2.30","47","2","2022-11-17 12:19:29","fd252370c17a9971d68c1d4354a03c2e","","Mozilla/5.0 (Windows NT 10.0; Win64; x64) AppleWebKit/537.36 (KHTML, like Gecko) Chrome/107.0.0.0 Safari/537.36","WebKit","Chrome","107.0.0.0","Windows","10.0","null","null","","<p style=""font-size: 48px;"">+</p>","2","Filler","",""
"","","","","","picture","65941","image-keyboard-response","158","208663","0.0-6.0-3.30","47","2","2022-11-17 12:19:29","fd252370c17a9971d68c1d4354a03c2e","","Mozilla/5.0 (Windows NT 10.0; Win64; x64) AppleWebKit/537.36 (KHTML, like Gecko) Chrome/107.0.0.0 Safari/537.36","WebKit","Chrome","107.0.0.0","Windows","10.0","703","n","","teddybear.jpg","2","Filler","true",""
"","","","","","fixation","65941","html-keyboard-response","159","209719","0.0-6.0-0.31","47","2","2022-11-17 12:19:29","fd252370c17a9971d68c1d4354a03c2e","","Mozilla/5.0 (Windows NT 10.0; Win64; x64) AppleWebKit/537.36 (KHTML, like Gecko) Chrome/107.0.0.0 Safari/537.36","WebKit","Chrome","107.0.0.0","Windows","10.0","null","null","","<p style=""font-size: 48px;"">+</p>","2","Heavy_Matched","",""
"","","","","","sentence","65941","html-keyboard-response","160","211120","0.0-6.0-1.31","47","2","2022-11-17 12:19:29","fd252370c17a9971d68c1d4354a03c2e","","Mozilla/5.0 (Windows NT 10.0; Win64; x64) AppleWebKit/537.36 (KHTML, like Gecko) Chrome/107.0.0.0 Safari/537.36","WebKit","Chrome","107.0.0.0","Windows","10.0","1362"," ","","A bowling ball dropped and smashed a blackberry","2","Heavy_Matched","",""
"","","","","","fixation","65941","html-keyboard-response","161","211666","0.0-6.0-2.31","47","2","2022-11-17 12:19:29","fd252370c17a9971d68c1d4354a03c2e","","Mozilla/5.0 (Windows NT 10.0; Win64; x64) AppleWebKit/537.36 (KHTML, like Gecko) Chrome/107.0.0.0 Safari/537.36","WebKit","Chrome","107.0.0.0","Windows","10.0","null","null","","<p style=""font-size: 48px;"">+</p>","2","Heavy_Matched","",""
"","","","","","picture","65941","image-keyboard-response","162","212250","0.0-6.0-3.31","47","2","2022-11-17 12:19:29","fd252370c17a9971d68c1d4354a03c2e","","Mozilla/5.0 (Windows NT 10.0; Win64; x64) AppleWebKit/537.36 (KHTML, like Gecko) Chrome/107.0.0.0 Safari/537.36","WebKit","Chrome","107.0.0.0","Windows","10.0","535","s","","blackberryS.jpg","2","Heavy_Matched","true",""
"","","","","","fixation","65941","html-keyboard-response","163","213294","0.0-6.0-0.32","47","2","2022-11-17 12:19:29","fd252370c17a9971d68c1d4354a03c2e","","Mozilla/5.0 (Windows NT 10.0; Win64; x64) AppleWebKit/537.36 (KHTML, like Gecko) Chrome/107.0.0.0 Safari/537.36","WebKit","Chrome","107.0.0.0","Windows","10.0","null","null","","<p style=""font-size: 48px;"">+</p>","2","Filler","",""
"","","","","","sentence","65941","html-keyboard-response","164","214437","0.0-6.0-1.32","47","2","2022-11-17 12:19:29","fd252370c17a9971d68c1d4354a03c2e","","Mozilla/5.0 (Windows NT 10.0; Win64; x64) AppleWebKit/537.36 (KHTML, like Gecko) Chrome/107.0.0.0 Safari/537.36","WebKit","Chrome","107.0.0.0","Windows","10.0","1103"," ","","A pencil was placed on the shoe","2","Filler","",""
"","","","","","fixation","65941","html-keyboard-response","165","214977","0.0-6.0-2.32","47","2","2022-11-17 12:19:29","fd252370c17a9971d68c1d4354a03c2e","","Mozilla/5.0 (Windows NT 10.0; Win64; x64) AppleWebKit/537.36 (KHTML, like Gecko) Chrome/107.0.0.0 Safari/537.36","WebKit","Chrome","107.0.0.0","Windows","10.0","null","null","","<p style=""font-size: 48px;"">+</p>","2","Filler","",""
"","","","","","picture","65941","image-keyboard-response","166","215854","0.0-6.0-3.32","47","2","2022-11-17 12:19:29","fd252370c17a9971d68c1d4354a03c2e","","Mozilla/5.0 (Windows NT 10.0; Win64; x64) AppleWebKit/537.36 (KHTML, like Gecko) Chrome/107.0.0.0 Safari/537.36","WebKit","Chrome","107.0.0.0","Windows","10.0","820","n","","perfume.jpg","2","Filler","true",""
"","","","","","fixation","65941","html-keyboard-response","167","216914","0.0-6.0-0.33","47","2","2022-11-17 12:19:29","fd252370c17a9971d68c1d4354a03c2e","","Mozilla/5.0 (Windows NT 10.0; Win64; x64) AppleWebKit/537.36 (KHTML, like Gecko) Chrome/107.0.0.0 Safari/537.36","WebKit","Chrome","107.0.0.0","Windows","10.0","null","null","","<p style=""font-size: 48px;"">+</p>","2","Heavy_Contradictory","",""
"","","","","","sentence","65941","html-keyboard-response","168","218098","0.0-6.0-1.33","47","2","2022-11-17 12:19:29","fd252370c17a9971d68c1d4354a03c2e","","Mozilla/5.0 (Windows NT 10.0; Win64; x64) AppleWebKit/537.36 (KHTML, like Gecko) Chrome/107.0.0.0 Safari/537.36","WebKit","Chrome","107.0.0.0","Windows","10.0","1133"," ","","A bowling ball dropped and touched a chocolate muffin","2","Heavy_Contradictory","",""
"","","","","","fixation","65941","html-keyboard-response","169","218641","0.0-6.0-2.33","47","2","2022-11-17 12:19:29","fd252370c17a9971d68c1d4354a03c2e","","Mozilla/5.0 (Windows NT 10.0; Win64; x64) AppleWebKit/537.36 (KHTML, like Gecko) Chrome/107.0.0.0 Safari/537.36","WebKit","Chrome","107.0.0.0","Windows","10.0","null","null","","<p style=""font-size: 48px;"">+</p>","2","Heavy_Contradictory","",""
"","","","","","picture","65941","image-keyboard-response","170","219459","0.0-6.0-3.33","47","2","2022-11-17 12:19:29","fd252370c17a9971d68c1d4354a03c2e","","Mozilla/5.0 (Windows NT 10.0; Win64; x64) AppleWebKit/537.36 (KHTML, like Gecko) Chrome/107.0.0.0 Safari/537.36","WebKit","Chrome","107.0.0.0","Windows","10.0","774","s","","muffinS.jpg","2","Heavy_Contradictory","true",""
"","","","","","fixation","65941","html-keyboard-response","171","220519","0.0-6.0-0.34","47","2","2022-11-17 12:19:29","fd252370c17a9971d68c1d4354a03c2e","","Mozilla/5.0 (Windows NT 10.0; Win64; x64) AppleWebKit/537.36 (KHTML, like Gecko) Chrome/107.0.0.0 Safari/537.36","WebKit","Chrome","107.0.0.0","Windows","10.0","null","null","","<p style=""font-size: 48px;"">+</p>","2","Filler","",""
"","","","","","sentence","65941","html-keyboard-response","172","221322","0.0-6.0-1.34","47","2","2022-11-17 12:19:29","fd252370c17a9971d68c1d4354a03c2e","","Mozilla/5.0 (Windows NT 10.0; Win64; x64) AppleWebKit/537.36 (KHTML, like Gecko) Chrome/107.0.0.0 Safari/537.36","WebKit","Chrome","107.0.0.0","Windows","10.0","763"," ","","A musician is playing a guitar","2","Filler","",""
"","","","","","fixation","65941","html-keyboard-response","173","221865","0.0-6.0-2.34","47","2","2022-11-17 12:19:29","fd252370c17a9971d68c1d4354a03c2e","","Mozilla/5.0 (Windows NT 10.0; Win64; x64) AppleWebKit/537.36 (KHTML, like Gecko) Chrome/107.0.0.0 Safari/537.36","WebKit","Chrome","107.0.0.0","Windows","10.0","null","null","","<p style=""font-size: 48px;"">+</p>","2","Filler","",""
"","","","","","picture","65941","image-keyboard-response","174","222709","0.0-6.0-3.34","47","2","2022-11-17 12:19:29","fd252370c17a9971d68c1d4354a03c2e","","Mozilla/5.0 (Windows NT 10.0; Win64; x64) AppleWebKit/537.36 (KHTML, like Gecko) Chrome/107.0.0.0 Safari/537.36","WebKit","Chrome","107.0.0.0","Windows","10.0","789","s","","guitar.jpg","2","Filler","true",""
"","","","","","fixation","65941","html-keyboard-response","175","223762","0.0-6.0-0.35","47","2","2022-11-17 12:19:29","fd252370c17a9971d68c1d4354a03c2e","","Mozilla/5.0 (Windows NT 10.0; Win64; x64) AppleWebKit/537.36 (KHTML, like Gecko) Chrome/107.0.0.0 Safari/537.36","WebKit","Chrome","107.0.0.0","Windows","10.0","null","null","","<p style=""font-size: 48px;"">+</p>","2","Filler","",""
"","","","","","sentence","65941","html-keyboard-response","176","224915","0.0-6.0-1.35","47","2","2022-11-17 12:19:29","fd252370c17a9971d68c1d4354a03c2e","","Mozilla/5.0 (Windows NT 10.0; Win64; x64) AppleWebKit/537.36 (KHTML, like Gecko) Chrome/107.0.0.0 Safari/537.36","WebKit","Chrome","107.0.0.0","Windows","10.0","1103"," ","","A man is boiling potatoes.","2","Filler","",""
"","","","","","fixation","65941","html-keyboard-response","177","225460","0.0-6.0-2.35","47","2","2022-11-17 12:19:29","fd252370c17a9971d68c1d4354a03c2e","","Mozilla/5.0 (Windows NT 10.0; Win64; x64) AppleWebKit/537.36 (KHTML, like Gecko) Chrome/107.0.0.0 Safari/537.36","WebKit","Chrome","107.0.0.0","Windows","10.0","null","null","","<p style=""font-size: 48px;"">+</p>","2","Filler","",""
"","","","","","picture","65941","image-keyboard-response","178","226334","0.0-6.0-3.35","47","2","2022-11-17 12:19:29","fd252370c17a9971d68c1d4354a03c2e","","Mozilla/5.0 (Windows NT 10.0; Win64; x64) AppleWebKit/537.36 (KHTML, like Gecko) Chrome/107.0.0.0 Safari/537.36","WebKit","Chrome","107.0.0.0","Windows","10.0","831","n","","cup.jpg","2","Filler","true",""
"","","","","","fixation","65941","html-keyboard-response","179","227388","0.0-6.0-0.36","47","2","2022-11-17 12:19:29","fd252370c17a9971d68c1d4354a03c2e","","Mozilla/5.0 (Windows NT 10.0; Win64; x64) AppleWebKit/537.36 (KHTML, like Gecko) Chrome/107.0.0.0 Safari/537.36","WebKit","Chrome","107.0.0.0","Windows","10.0","null","null","","<p style=""font-size: 48px;"">+</p>","2","Filler","",""
"","","","","","sentence","65941","html-keyboard-response","180","228449","0.0-6.0-1.36","47","2","2022-11-17 12:19:29","fd252370c17a9971d68c1d4354a03c2e","","Mozilla/5.0 (Windows NT 10.0; Win64; x64) AppleWebKit/537.36 (KHTML, like Gecko) Chrome/107.0.0.0 Safari/537.36","WebKit","Chrome","107.0.0.0","Windows","10.0","1018"," ","","A woman is taking money out of a wallet","2","Filler","",""
"","","","","","fixation","65941","html-keyboard-response","181","228995","0.0-6.0-2.36","47","2","2022-11-17 12:19:29","fd252370c17a9971d68c1d4354a03c2e","","Mozilla/5.0 (Windows NT 10.0; Win64; x64) AppleWebKit/537.36 (KHTML, like Gecko) Chrome/107.0.0.0 Safari/537.36","WebKit","Chrome","107.0.0.0","Windows","10.0","null","null","","<p style=""font-size: 48px;"">+</p>","2","Filler","",""
"","","","","","picture","65941","image-keyboard-response","182","229729","0.0-6.0-3.36","47","2","2022-11-17 12:19:29","fd252370c17a9971d68c1d4354a03c2e","","Mozilla/5.0 (Windows NT 10.0; Win64; x64) AppleWebKit/537.36 (KHTML, like Gecko) Chrome/107.0.0.0 Safari/537.36","WebKit","Chrome","107.0.0.0","Windows","10.0","686","n","","coconut.jpg","2","Filler","true",""
"","","","","","fixation","65941","html-keyboard-response","183","230772","0.0-6.0-0.37","47","2","2022-11-17 12:19:29","fd252370c17a9971d68c1d4354a03c2e","","Mozilla/5.0 (Windows NT 10.0; Win64; x64) AppleWebKit/537.36 (KHTML, like Gecko) Chrome/107.0.0.0 Safari/537.36","WebKit","Chrome","107.0.0.0","Windows","10.0","null","null","","<p style=""font-size: 48px;"">+</p>","2","Filler","",""
"","","","","","sentence","65941","html-keyboard-response","184","232140","0.0-6.0-1.37","47","2","2022-11-17 12:19:29","fd252370c17a9971d68c1d4354a03c2e","","Mozilla/5.0 (Windows NT 10.0; Win64; x64) AppleWebKit/537.36 (KHTML, like Gecko) Chrome/107.0.0.0 Safari/537.36","WebKit","Chrome","107.0.0.0","Windows","10.0","1324"," ","","A cushion was placed on the magazine","2","Filler","",""
"","","","","","fixation","65941","html-keyboard-response","185","232679","0.0-6.0-2.37","47","2","2022-11-17 12:19:29","fd252370c17a9971d68c1d4354a03c2e","","Mozilla/5.0 (Windows NT 10.0; Win64; x64) AppleWebKit/537.36 (KHTML, like Gecko) Chrome/107.0.0.0 Safari/537.36","WebKit","Chrome","107.0.0.0","Windows","10.0","null","null","","<p style=""font-size: 48px;"">+</p>","2","Filler","",""
"","","","","","picture","65941","image-keyboard-response","186","233395","0.0-6.0-3.37","47","2","2022-11-17 12:19:29","fd252370c17a9971d68c1d4354a03c2e","","Mozilla/5.0 (Windows NT 10.0; Win64; x64) AppleWebKit/537.36 (KHTML, like Gecko) Chrome/107.0.0.0 Safari/537.36","WebKit","Chrome","107.0.0.0","Windows","10.0","663","n","","box.jpg","2","Filler","true",""
"","","","","","fixation","65941","html-keyboard-response","187","234451","0.0-6.0-0.38","47","2","2022-11-17 12:19:29","fd252370c17a9971d68c1d4354a03c2e","","Mozilla/5.0 (Windows NT 10.0; Win64; x64) AppleWebKit/537.36 (KHTML, like Gecko) Chrome/107.0.0.0 Safari/537.36","WebKit","Chrome","107.0.0.0","Windows","10.0","null","null","","<p style=""font-size: 48px;"">+</p>","2","Filler","",""
"","","","","","sentence","65941","html-keyboard-response","188","235630","0.0-6.0-1.38","47","2","2022-11-17 12:19:29","fd252370c17a9971d68c1d4354a03c2e","","Mozilla/5.0 (Windows NT 10.0; Win64; x64) AppleWebKit/537.36 (KHTML, like Gecko) Chrome/107.0.0.0 Safari/537.36","WebKit","Chrome","107.0.0.0","Windows","10.0","1126"," ","","A needle was placed on the mouse pad","2","Filler","",""
"","","","","","fixation","65941","html-keyboard-response","189","236187","0.0-6.0-2.38","47","2","2022-11-17 12:19:29","fd252370c17a9971d68c1d4354a03c2e","","Mozilla/5.0 (Windows NT 10.0; Win64; x64) AppleWebKit/537.36 (KHTML, like Gecko) Chrome/107.0.0.0 Safari/537.36","WebKit","Chrome","107.0.0.0","Windows","10.0","null","null","","<p style=""font-size: 48px;"">+</p>","2","Filler","",""
"","","","","","picture","65941","image-keyboard-response","190","237010","0.0-6.0-3.38","47","2","2022-11-17 12:19:29","fd252370c17a9971d68c1d4354a03c2e","","Mozilla/5.0 (Windows NT 10.0; Win64; x64) AppleWebKit/537.36 (KHTML, like Gecko) Chrome/107.0.0.0 Safari/537.36","WebKit","Chrome","107.0.0.0","Windows","10.0","777","n","","chocolate.jpg","2","Filler","true",""
"","","","","","fixation","65941","html-keyboard-response","191","238074","0.0-6.0-0.39","47","2","2022-11-17 12:19:29","fd252370c17a9971d68c1d4354a03c2e","","Mozilla/5.0 (Windows NT 10.0; Win64; x64) AppleWebKit/537.36 (KHTML, like Gecko) Chrome/107.0.0.0 Safari/537.36","WebKit","Chrome","107.0.0.0","Windows","10.0","null","null","","<p style=""font-size: 48px;"">+</p>","2","Filler","",""
"","","","","","sentence","65941","html-keyboard-response","192","239081","0.0-6.0-1.39","47","2","2022-11-17 12:19:29","fd252370c17a9971d68c1d4354a03c2e","","Mozilla/5.0 (Windows NT 10.0; Win64; x64) AppleWebKit/537.36 (KHTML, like Gecko) Chrome/107.0.0.0 Safari/537.36","WebKit","Chrome","107.0.0.0","Windows","10.0","954"," ","","A ring was placed on the newspaper","2","Filler","",""
"","","","","","fixation","65941","html-keyboard-response","193","239640","0.0-6.0-2.39","47","2","2022-11-17 12:19:29","fd252370c17a9971d68c1d4354a03c2e","","Mozilla/5.0 (Windows NT 10.0; Win64; x64) AppleWebKit/537.36 (KHTML, like Gecko) Chrome/107.0.0.0 Safari/537.36","WebKit","Chrome","107.0.0.0","Windows","10.0","null","null","","<p style=""font-size: 48px;"">+</p>","2","Filler","",""
"","","","","","picture","65941","image-keyboard-response","194","240306","0.0-6.0-3.39","47","2","2022-11-17 12:19:29","fd252370c17a9971d68c1d4354a03c2e","","Mozilla/5.0 (Windows NT 10.0; Win64; x64) AppleWebKit/537.36 (KHTML, like Gecko) Chrome/107.0.0.0 Safari/537.36","WebKit","Chrome","107.0.0.0","Windows","10.0","600","n","","cat.jpg","2","Filler","true",""
"","","","","","fixation","65941","html-keyboard-response","195","241359","0.0-6.0-0.40","47","2","2022-11-17 12:19:29","fd252370c17a9971d68c1d4354a03c2e","","Mozilla/5.0 (Windows NT 10.0; Win64; x64) AppleWebKit/537.36 (KHTML, like Gecko) Chrome/107.0.0.0 Safari/537.36","WebKit","Chrome","107.0.0.0","Windows","10.0","null","null","","<p style=""font-size: 48px;"">+</p>","2","Filler","",""
"","","","","","sentence","65941","html-keyboard-response","196","242191","0.0-6.0-1.40","47","2","2022-11-17 12:19:29","fd252370c17a9971d68c1d4354a03c2e","","Mozilla/5.0 (Windows NT 10.0; Win64; x64) AppleWebKit/537.36 (KHTML, like Gecko) Chrome/107.0.0.0 Safari/537.36","WebKit","Chrome","107.0.0.0","Windows","10.0","781"," ","","An actress is taking a microphone","2","Filler","",""
"","","","","","fixation","65941","html-keyboard-response","197","242744","0.0-6.0-2.40","47","2","2022-11-17 12:19:29","fd252370c17a9971d68c1d4354a03c2e","","Mozilla/5.0 (Windows NT 10.0; Win64; x64) AppleWebKit/537.36 (KHTML, like Gecko) Chrome/107.0.0.0 Safari/537.36","WebKit","Chrome","107.0.0.0","Windows","10.0","null","null","","<p style=""font-size: 48px;"">+</p>","2","Filler","",""
"","","","","","picture","65941","image-keyboard-response","198","243519","0.0-6.0-3.40","47","2","2022-11-17 12:19:29","fd252370c17a9971d68c1d4354a03c2e","","Mozilla/5.0 (Windows NT 10.0; Win64; x64) AppleWebKit/537.36 (KHTML, like Gecko) Chrome/107.0.0.0 Safari/537.36","WebKit","Chrome","107.0.0.0","Windows","10.0","724","n","","pants.jpg","2","Filler","true",""
"","","","","","fixation","65941","html-keyboard-response","199","244586","0.0-6.0-0.41","47","2","2022-11-17 12:19:29","fd252370c17a9971d68c1d4354a03c2e","","Mozilla/5.0 (Windows NT 10.0; Win64; x64) AppleWebKit/537.36 (KHTML, like Gecko) Chrome/107.0.0.0 Safari/537.36","WebKit","Chrome","107.0.0.0","Windows","10.0","null","null","","<p style=""font-size: 48px;"">+</p>","2","Filler","",""
"","","","","","sentence","65941","html-keyboard-response","200","245630","0.0-6.0-1.41","47","2","2022-11-17 12:19:29","fd252370c17a9971d68c1d4354a03c2e","","Mozilla/5.0 (Windows NT 10.0; Win64; x64) AppleWebKit/537.36 (KHTML, like Gecko) Chrome/107.0.0.0 Safari/537.36","WebKit","Chrome","107.0.0.0","Windows","10.0","998"," ","","A zebra is playing with a horse","2","Filler","",""
"","","","","","fixation","65941","html-keyboard-response","201","246184","0.0-6.0-2.41","47","2","2022-11-17 12:19:29","fd252370c17a9971d68c1d4354a03c2e","","Mozilla/5.0 (Windows NT 10.0; Win64; x64) AppleWebKit/537.36 (KHTML, like Gecko) Chrome/107.0.0.0 Safari/537.36","WebKit","Chrome","107.0.0.0","Windows","10.0","null","null","","<p style=""font-size: 48px;"">+</p>","2","Filler","",""
"","","","","","picture","65941","image-keyboard-response","202","247016","0.0-6.0-3.41","47","2","2022-11-17 12:19:29","fd252370c17a9971d68c1d4354a03c2e","","Mozilla/5.0 (Windows NT 10.0; Win64; x64) AppleWebKit/537.36 (KHTML, like Gecko) Chrome/107.0.0.0 Safari/537.36","WebKit","Chrome","107.0.0.0","Windows","10.0","784","n","","watch.jpg","2","Filler","true",""
"","","","","","fixation","65941","html-keyboard-response","203","248068","0.0-6.0-0.42","47","2","2022-11-17 12:19:29","fd252370c17a9971d68c1d4354a03c2e","","Mozilla/5.0 (Windows NT 10.0; Win64; x64) AppleWebKit/537.36 (KHTML, like Gecko) Chrome/107.0.0.0 Safari/537.36","WebKit","Chrome","107.0.0.0","Windows","10.0","null","null","","<p style=""font-size: 48px;"">+</p>","2","Light_Contradictory","",""
"","","","","","sentence","65941","html-keyboard-response","204","249646","0.0-6.0-1.42","47","2","2022-11-17 12:19:29","fd252370c17a9971d68c1d4354a03c2e","","Mozilla/5.0 (Windows NT 10.0; Win64; x64) AppleWebKit/537.36 (KHTML, like Gecko) Chrome/107.0.0.0 Safari/537.36","WebKit","Chrome","107.0.0.0","Windows","10.0","1517"," ","","A balloon dropped and smashed a porcelain figure","2","Light_Contradictory","",""
"","","","","","fixation","65941","html-keyboard-response","205","250170","0.0-6.0-2.42","47","2","2022-11-17 12:19:29","fd252370c17a9971d68c1d4354a03c2e","","Mozilla/5.0 (Windows NT 10.0; Win64; x64) AppleWebKit/537.36 (KHTML, like Gecko) Chrome/107.0.0.0 Safari/537.36","WebKit","Chrome","107.0.0.0","Windows","10.0","null","null","","<p style=""font-size: 48px;"">+</p>","2","Light_Contradictory","",""
"","","","","","picture","65941","image-keyboard-response","206","251488","0.0-6.0-3.42","47","2","2022-11-17 12:19:29","fd252370c17a9971d68c1d4354a03c2e","","Mozilla/5.0 (Windows NT 10.0; Win64; x64) AppleWebKit/537.36 (KHTML, like Gecko) Chrome/107.0.0.0 Safari/537.36","WebKit","Chrome","107.0.0.0","Windows","10.0","1256","s","","figureS.jpg","2","Light_Contradictory","true",""
"","","","","","fixation","65941","html-keyboard-response","207","252537","0.0-6.0-0.43","47","2","2022-11-17 12:19:29","fd252370c17a9971d68c1d4354a03c2e","","Mozilla/5.0 (Windows NT 10.0; Win64; x64) AppleWebKit/537.36 (KHTML, like Gecko) Chrome/107.0.0.0 Safari/537.36","WebKit","Chrome","107.0.0.0","Windows","10.0","null","null","","<p style=""font-size: 48px;"">+</p>","2","Filler","",""
"","","","","","sentence","65941","html-keyboard-response","208","253342","0.0-6.0-1.43","47","2","2022-11-17 12:19:29","fd252370c17a9971d68c1d4354a03c2e","","Mozilla/5.0 (Windows NT 10.0; Win64; x64) AppleWebKit/537.36 (KHTML, like Gecko) Chrome/107.0.0.0 Safari/537.36","WebKit","Chrome","107.0.0.0","Windows","10.0","743"," ","","A horse is chewing hay","2","Filler","",""
"","","","","","fixation","65941","html-keyboard-response","209","253904","0.0-6.0-2.43","47","2","2022-11-17 12:19:29","fd252370c17a9971d68c1d4354a03c2e","","Mozilla/5.0 (Windows NT 10.0; Win64; x64) AppleWebKit/537.36 (KHTML, like Gecko) Chrome/107.0.0.0 Safari/537.36","WebKit","Chrome","107.0.0.0","Windows","10.0","null","null","","<p style=""font-size: 48px;"">+</p>","2","Filler","",""
"","","","","","picture","65941","image-keyboard-response","210","254552","0.0-6.0-3.43","47","2","2022-11-17 12:19:29","fd252370c17a9971d68c1d4354a03c2e","","Mozilla/5.0 (Windows NT 10.0; Win64; x64) AppleWebKit/537.36 (KHTML, like Gecko) Chrome/107.0.0.0 Safari/537.36","WebKit","Chrome","107.0.0.0","Windows","10.0","591","n","","purse.jpg","2","Filler","true",""
"","","","","","fixation","65941","html-keyboard-response","211","255607","0.0-6.0-0.44","47","2","2022-11-17 12:19:29","fd252370c17a9971d68c1d4354a03c2e","","Mozilla/5.0 (Windows NT 10.0; Win64; x64) AppleWebKit/537.36 (KHTML, like Gecko) Chrome/107.0.0.0 Safari/537.36","WebKit","Chrome","107.0.0.0","Windows","10.0","null","null","","<p style=""font-size: 48px;"">+</p>","2","Filler","",""
"","","","","","sentence","65941","html-keyboard-response","212","256602","0.0-6.0-1.44","47","2","2022-11-17 12:19:29","fd252370c17a9971d68c1d4354a03c2e","","Mozilla/5.0 (Windows NT 10.0; Win64; x64) AppleWebKit/537.36 (KHTML, like Gecko) Chrome/107.0.0.0 Safari/537.36","WebKit","Chrome","107.0.0.0","Windows","10.0","936"," ","","A teenage girl is playing the piano","2","Filler","",""
"","","","","","fixation","65941","html-keyboard-response","213","257156","0.0-6.0-2.44","47","2","2022-11-17 12:19:29","fd252370c17a9971d68c1d4354a03c2e","","Mozilla/5.0 (Windows NT 10.0; Win64; x64) AppleWebKit/537.36 (KHTML, like Gecko) Chrome/107.0.0.0 Safari/537.36","WebKit","Chrome","107.0.0.0","Windows","10.0","null","null","","<p style=""font-size: 48px;"">+</p>","2","Filler","",""
"","","","","","picture","65941","image-keyboard-response","214","257873","0.0-6.0-3.44","47","2","2022-11-17 12:19:29","fd252370c17a9971d68c1d4354a03c2e","","Mozilla/5.0 (Windows NT 10.0; Win64; x64) AppleWebKit/537.36 (KHTML, like Gecko) Chrome/107.0.0.0 Safari/537.36","WebKit","Chrome","107.0.0.0","Windows","10.0","653","n","","pillow.jpg","2","Filler","true",""
"","","","","","fixation","65941","html-keyboard-response","215","258892","0.0-6.0-0.45","47","2","2022-11-17 12:19:29","fd252370c17a9971d68c1d4354a03c2e","","Mozilla/5.0 (Windows NT 10.0; Win64; x64) AppleWebKit/537.36 (KHTML, like Gecko) Chrome/107.0.0.0 Safari/537.36","WebKit","Chrome","107.0.0.0","Windows","10.0","null","null","","<p style=""font-size: 48px;"">+</p>","2","Filler","",""
"","","","","","sentence","65941","html-keyboard-response","216","260398","0.0-6.0-1.45","47","2","2022-11-17 12:19:29","fd252370c17a9971d68c1d4354a03c2e","","Mozilla/5.0 (Windows NT 10.0; Win64; x64) AppleWebKit/537.36 (KHTML, like Gecko) Chrome/107.0.0.0 Safari/537.36","WebKit","Chrome","107.0.0.0","Windows","10.0","1467"," ","","A police officer is talking on the phone","2","Filler","",""
"","","","","","fixation","65941","html-keyboard-response","217","260937","0.0-6.0-2.45","47","2","2022-11-17 12:19:29","fd252370c17a9971d68c1d4354a03c2e","","Mozilla/5.0 (Windows NT 10.0; Win64; x64) AppleWebKit/537.36 (KHTML, like Gecko) Chrome/107.0.0.0 Safari/537.36","WebKit","Chrome","107.0.0.0","Windows","10.0","null","null","","<p style=""font-size: 48px;"">+</p>","2","Filler","",""
"","","","","","picture","65941","image-keyboard-response","218","261613","0.0-6.0-3.45","47","2","2022-11-17 12:19:29","fd252370c17a9971d68c1d4354a03c2e","","Mozilla/5.0 (Windows NT 10.0; Win64; x64) AppleWebKit/537.36 (KHTML, like Gecko) Chrome/107.0.0.0 Safari/537.36","WebKit","Chrome","107.0.0.0","Windows","10.0","623","n","","tissuebox.jpg","2","Filler","true",""
"","","","","","fixation","65941","html-keyboard-response","219","262665","0.0-6.0-0.46","47","2","2022-11-17 12:19:29","fd252370c17a9971d68c1d4354a03c2e","","Mozilla/5.0 (Windows NT 10.0; Win64; x64) AppleWebKit/537.36 (KHTML, like Gecko) Chrome/107.0.0.0 Safari/537.36","WebKit","Chrome","107.0.0.0","Windows","10.0","null","null","","<p style=""font-size: 48px;"">+</p>","2","Filler","",""
"","","","","","sentence","65941","html-keyboard-response","220","263981","0.0-6.0-1.46","47","2","2022-11-17 12:19:29","fd252370c17a9971d68c1d4354a03c2e","","Mozilla/5.0 (Windows NT 10.0; Win64; x64) AppleWebKit/537.36 (KHTML, like Gecko) Chrome/107.0.0.0 Safari/537.36","WebKit","Chrome","107.0.0.0","Windows","10.0","1256"," ","","A cook is taking a knife","2","Filler","",""
"","","","","","fixation","65941","html-keyboard-response","221","264539","0.0-6.0-2.46","47","2","2022-11-17 12:19:29","fd252370c17a9971d68c1d4354a03c2e","","Mozilla/5.0 (Windows NT 10.0; Win64; x64) AppleWebKit/537.36 (KHTML, like Gecko) Chrome/107.0.0.0 Safari/537.36","WebKit","Chrome","107.0.0.0","Windows","10.0","null","null","","<p style=""font-size: 48px;"">+</p>","2","Filler","",""
"","","","","","picture","65941","image-keyboard-response","222","265127","0.0-6.0-3.46","47","2","2022-11-17 12:19:29","fd252370c17a9971d68c1d4354a03c2e","","Mozilla/5.0 (Windows NT 10.0; Win64; x64) AppleWebKit/537.36 (KHTML, like Gecko) Chrome/107.0.0.0 Safari/537.36","WebKit","Chrome","107.0.0.0","Windows","10.0","564","s","","knife.jpg","2","Filler","true",""
"","","","","","fixation","65941","html-keyboard-response","223","266178","0.0-6.0-0.47","47","2","2022-11-17 12:19:29","fd252370c17a9971d68c1d4354a03c2e","","Mozilla/5.0 (Windows NT 10.0; Win64; x64) AppleWebKit/537.36 (KHTML, like Gecko) Chrome/107.0.0.0 Safari/537.36","WebKit","Chrome","107.0.0.0","Windows","10.0","null","null","","<p style=""font-size: 48px;"">+</p>","2","Filler","",""
"","","","","","sentence","65941","html-keyboard-response","224","267002","0.0-6.0-1.47","47","2","2022-11-17 12:19:29","fd252370c17a9971d68c1d4354a03c2e","","Mozilla/5.0 (Windows NT 10.0; Win64; x64) AppleWebKit/537.36 (KHTML, like Gecko) Chrome/107.0.0.0 Safari/537.36","WebKit","Chrome","107.0.0.0","Windows","10.0","766"," ","","A postman is driving a car","2","Filler","",""
"","","","","","fixation","65941","html-keyboard-response","225","267553","0.0-6.0-2.47","47","2","2022-11-17 12:19:29","fd252370c17a9971d68c1d4354a03c2e","","Mozilla/5.0 (Windows NT 10.0; Win64; x64) AppleWebKit/537.36 (KHTML, like Gecko) Chrome/107.0.0.0 Safari/537.36","WebKit","Chrome","107.0.0.0","Windows","10.0","null","null","","<p style=""font-size: 48px;"">+</p>","2","Filler","",""
"","","","","","picture","65941","image-keyboard-response","226","268530","0.0-6.0-3.47","47","2","2022-11-17 12:19:29","fd252370c17a9971d68c1d4354a03c2e","","Mozilla/5.0 (Windows NT 10.0; Win64; x64) AppleWebKit/537.36 (KHTML, like Gecko) Chrome/107.0.0.0 Safari/537.36","WebKit","Chrome","107.0.0.0","Windows","10.0","935","s","","car.jpg","2","Filler","true",""
"","","","","","fixation","65941","html-keyboard-response","227","269592","0.0-6.0-0.48","47","2","2022-11-17 12:19:29","fd252370c17a9971d68c1d4354a03c2e","","Mozilla/5.0 (Windows NT 10.0; Win64; x64) AppleWebKit/537.36 (KHTML, like Gecko) Chrome/107.0.0.0 Safari/537.36","WebKit","Chrome","107.0.0.0","Windows","10.0","null","null","","<p style=""font-size: 48px;"">+</p>","2","Light_Matched","",""
"","","","","","sentence","65941","html-keyboard-response","228","270956","0.0-6.0-1.48","47","2","2022-11-17 12:19:29","fd252370c17a9971d68c1d4354a03c2e","","Mozilla/5.0 (Windows NT 10.0; Win64; x64) AppleWebKit/537.36 (KHTML, like Gecko) Chrome/107.0.0.0 Safari/537.36","WebKit","Chrome","107.0.0.0","Windows","10.0","1303"," ","","A balloon dropped and touched a ceramic plate","2","Light_Matched","",""
"","","","","","fixation","65941","html-keyboard-response","229","271520","0.0-6.0-2.48","47","2","2022-11-17 12:19:29","fd252370c17a9971d68c1d4354a03c2e","","Mozilla/5.0 (Windows NT 10.0; Win64; x64) AppleWebKit/537.36 (KHTML, like Gecko) Chrome/107.0.0.0 Safari/537.36","WebKit","Chrome","107.0.0.0","Windows","10.0","null","null","","<p style=""font-size: 48px;"">+</p>","2","Light_Matched","",""
"","","","","","picture","65941","image-keyboard-response","230","272143","0.0-6.0-3.48","47","2","2022-11-17 12:19:29","fd252370c17a9971d68c1d4354a03c2e","","Mozilla/5.0 (Windows NT 10.0; Win64; x64) AppleWebKit/537.36 (KHTML, like Gecko) Chrome/107.0.0.0 Safari/537.36","WebKit","Chrome","107.0.0.0","Windows","10.0","556","s","","plateS.jpg","2","Light_Matched","true",""
"","","","","","fixation","65941","html-keyboard-response","231","273220","0.0-6.0-0.49","47","2","2022-11-17 12:19:29","fd252370c17a9971d68c1d4354a03c2e","","Mozilla/5.0 (Windows NT 10.0; Win64; x64) AppleWebKit/537.36 (KHTML, like Gecko) Chrome/107.0.0.0 Safari/537.36","WebKit","Chrome","107.0.0.0","Windows","10.0","null","null","","<p style=""font-size: 48px;"">+</p>","2","Filler","",""
"","","","","","sentence","65941","html-keyboard-response","232","274465","0.0-6.0-1.49","47","2","2022-11-17 12:19:29","fd252370c17a9971d68c1d4354a03c2e","","Mozilla/5.0 (Windows NT 10.0; Win64; x64) AppleWebKit/537.36 (KHTML, like Gecko) Chrome/107.0.0.0 Safari/537.36","WebKit","Chrome","107.0.0.0","Windows","10.0","1198"," ","","A president is writing in the notebook","2","Filler","",""
"","","","","","fixation","65941","html-keyboard-response","233","275000","0.0-6.0-2.49","47","2","2022-11-17 12:19:29","fd252370c17a9971d68c1d4354a03c2e","","Mozilla/5.0 (Windows NT 10.0; Win64; x64) AppleWebKit/537.36 (KHTML, like Gecko) Chrome/107.0.0.0 Safari/537.36","WebKit","Chrome","107.0.0.0","Windows","10.0","null","null","","<p style=""font-size: 48px;"">+</p>","2","Filler","",""
"","","","","","picture","65941","image-keyboard-response","234","275692","0.0-6.0-3.49","47","2","2022-11-17 12:19:29","fd252370c17a9971d68c1d4354a03c2e","","Mozilla/5.0 (Windows NT 10.0; Win64; x64) AppleWebKit/537.36 (KHTML, like Gecko) Chrome/107.0.0.0 Safari/537.36","WebKit","Chrome","107.0.0.0","Windows","10.0","620","n","","can.jpg","2","Filler","true",""
"","","","","","fixation","65941","html-keyboard-response","235","276746","0.0-6.0-0.50","47","2","2022-11-17 12:19:29","fd252370c17a9971d68c1d4354a03c2e","","Mozilla/5.0 (Windows NT 10.0; Win64; x64) AppleWebKit/537.36 (KHTML, like Gecko) Chrome/107.0.0.0 Safari/537.36","WebKit","Chrome","107.0.0.0","Windows","10.0","null","null","","<p style=""font-size: 48px;"">+</p>","2","Filler","",""
"","","","","","sentence","65941","html-keyboard-response","236","277889","0.0-6.0-1.50","47","2","2022-11-17 12:19:29","fd252370c17a9971d68c1d4354a03c2e","","Mozilla/5.0 (Windows NT 10.0; Win64; x64) AppleWebKit/537.36 (KHTML, like Gecko) Chrome/107.0.0.0 Safari/537.36","WebKit","Chrome","107.0.0.0","Windows","10.0","1082"," ","","A photographer is taking a photo of a lion","2","Filler","",""
"","","","","","fixation","65941","html-keyboard-response","237","278447","0.0-6.0-2.50","47","2","2022-11-17 12:19:29","fd252370c17a9971d68c1d4354a03c2e","","Mozilla/5.0 (Windows NT 10.0; Win64; x64) AppleWebKit/537.36 (KHTML, like Gecko) Chrome/107.0.0.0 Safari/537.36","WebKit","Chrome","107.0.0.0","Windows","10.0","null","null","","<p style=""font-size: 48px;"">+</p>","2","Filler","",""
"","","","","","picture","65941","image-keyboard-response","238","279403","0.0-6.0-3.50","47","2","2022-11-17 12:19:29","fd252370c17a9971d68c1d4354a03c2e","","Mozilla/5.0 (Windows NT 10.0; Win64; x64) AppleWebKit/537.36 (KHTML, like Gecko) Chrome/107.0.0.0 Safari/537.36","WebKit","Chrome","107.0.0.0","Windows","10.0","900","s","","lion.jpg","2","Filler","true",""
"","","","","","fixation","65941","html-keyboard-response","239","280448","0.0-6.0-0.51","47","2","2022-11-17 12:19:29","fd252370c17a9971d68c1d4354a03c2e","","Mozilla/5.0 (Windows NT 10.0; Win64; x64) AppleWebKit/537.36 (KHTML, like Gecko) Chrome/107.0.0.0 Safari/537.36","WebKit","Chrome","107.0.0.0","Windows","10.0","null","null","","<p style=""font-size: 48px;"">+</p>","2","Light_Contradictory","",""
"","","","","","sentence","65941","html-keyboard-response","240","281555","0.0-6.0-1.51","47","2","2022-11-17 12:19:29","fd252370c17a9971d68c1d4354a03c2e","","Mozilla/5.0 (Windows NT 10.0; Win64; x64) AppleWebKit/537.36 (KHTML, like Gecko) Chrome/107.0.0.0 Safari/537.36","WebKit","Chrome","107.0.0.0","Windows","10.0","1056"," ","","A balloon dropped and smashed a piece of cake","2","Light_Contradictory","",""
"","","","","","fixation","65941","html-keyboard-response","241","282117","0.0-6.0-2.51","47","2","2022-11-17 12:19:29","fd252370c17a9971d68c1d4354a03c2e","","Mozilla/5.0 (Windows NT 10.0; Win64; x64) AppleWebKit/537.36 (KHTML, like Gecko) Chrome/107.0.0.0 Safari/537.36","WebKit","Chrome","107.0.0.0","Windows","10.0","null","null","","<p style=""font-size: 48px;"">+</p>","2","Light_Contradictory","",""
"","","","","","picture","65941","image-keyboard-response","242","283526","0.0-6.0-3.51","47","2","2022-11-17 12:19:29","fd252370c17a9971d68c1d4354a03c2e","","Mozilla/5.0 (Windows NT 10.0; Win64; x64) AppleWebKit/537.36 (KHTML, like Gecko) Chrome/107.0.0.0 Safari/537.36","WebKit","Chrome","107.0.0.0","Windows","10.0","1348","s","","cakeS.jpg","2","Light_Contradictory","true",""
"","","","","","fixation","65941","html-keyboard-response","243","284571","0.0-6.0-0.52","47","2","2022-11-17 12:19:29","fd252370c17a9971d68c1d4354a03c2e","","Mozilla/5.0 (Windows NT 10.0; Win64; x64) AppleWebKit/537.36 (KHTML, like Gecko) Chrome/107.0.0.0 Safari/537.36","WebKit","Chrome","107.0.0.0","Windows","10.0","null","null","","<p style=""font-size: 48px;"">+</p>","2","Filler","",""
"","","","","","sentence","65941","html-keyboard-response","244","285651","0.0-6.0-1.52","47","2","2022-11-17 12:19:29","fd252370c17a9971d68c1d4354a03c2e","","Mozilla/5.0 (Windows NT 10.0; Win64; x64) AppleWebKit/537.36 (KHTML, like Gecko) Chrome/107.0.0.0 Safari/537.36","WebKit","Chrome","107.0.0.0","Windows","10.0","1012"," ","","A dentist is drinking a can of cola","2","Filler","",""
"","","","","","fixation","65941","html-keyboard-response","245","286200","0.0-6.0-2.52","47","2","2022-11-17 12:19:29","fd252370c17a9971d68c1d4354a03c2e","","Mozilla/5.0 (Windows NT 10.0; Win64; x64) AppleWebKit/537.36 (KHTML, like Gecko) Chrome/107.0.0.0 Safari/537.36","WebKit","Chrome","107.0.0.0","Windows","10.0","null","null","","<p style=""font-size: 48px;"">+</p>","2","Filler","",""
"","","","","","picture","65941","image-keyboard-response","246","287123","0.0-6.0-3.52","47","2","2022-11-17 12:19:29","fd252370c17a9971d68c1d4354a03c2e","","Mozilla/5.0 (Windows NT 10.0; Win64; x64) AppleWebKit/537.36 (KHTML, like Gecko) Chrome/107.0.0.0 Safari/537.36","WebKit","Chrome","107.0.0.0","Windows","10.0","864","n","","doll.jpg","2","Filler","true",""
"","","","","","fixation","65941","html-keyboard-response","247","288184","0.0-6.0-0.53","47","2","2022-11-17 12:19:29","fd252370c17a9971d68c1d4354a03c2e","","Mozilla/5.0 (Windows NT 10.0; Win64; x64) AppleWebKit/537.36 (KHTML, like Gecko) Chrome/107.0.0.0 Safari/537.36","WebKit","Chrome","107.0.0.0","Windows","10.0","null","null","","<p style=""font-size: 48px;"">+</p>","2","Filler","",""
"","","","","","sentence","65941","html-keyboard-response","248","289143","0.0-6.0-1.53","47","2","2022-11-17 12:19:29","fd252370c17a9971d68c1d4354a03c2e","","Mozilla/5.0 (Windows NT 10.0; Win64; x64) AppleWebKit/537.36 (KHTML, like Gecko) Chrome/107.0.0.0 Safari/537.36","WebKit","Chrome","107.0.0.0","Windows","10.0","942"," ","","A fork was placed on the plate","2","Filler","",""
