"success","timeout","failed_images","failed_audio","failed_video","typeoftrial","subject","trial_type","trial_index","time_elapsed","internal_node_id","run_id","condition","recorded_at","source_code_version","ip","user_agent","device","browser","browser_version","platform","platform_version","rt","response","Experiment","stimulus","list_number","trialcondition","correct","question_order"
"true","false","[]","[]","[]","preload","26268","preload","0","2468","0.0-0.0","106","2","2022-11-17 12:31:41","fd252370c17a9971d68c1d4354a03c2e","","Mozilla/5.0 (Windows NT 10.0; Win64; x64) AppleWebKit/537.36 (KHTML, like Gecko) Chrome/107.0.0.0 Safari/537.36 Edg/107.0.1418.42","WebKit","Edge","107.0.1418.42","Windows","10.0","","","","","","","",""
"","","","","","ID","26268","survey-text","1","12729","0.0-1.0","106","2","2022-11-17 12:31:41","fd252370c17a9971d68c1d4354a03c2e","","Mozilla/5.0 (Windows NT 10.0; Win64; x64) AppleWebKit/537.36 (KHTML, like Gecko) Chrome/107.0.0.0 Safari/537.36 Edg/107.0.1418.42","WebKit","Edge","107.0.1418.42","Windows","10.0","10231","{""ID"":""5f454344a4b4820f066b1d4a""}","","","","","",""
"","","","","","instructions","26268","html-button-response","2","80683","0.0-2.0","106","2","2022-11-17 12:31:41","fd252370c17a9971d68c1d4354a03c2e","","Mozilla/5.0 (Windows NT 10.0; Win64; x64) AppleWebKit/537.36 (KHTML, like Gecko) Chrome/107.0.0.0 Safari/537.36 Edg/107.0.1418.42","WebKit","Edge","107.0.1418.42","Windows","10.0","67939","0","","
                    <p style=""font-size:20px;""> Welcome to the experiment! </p>
                    <p style=""font-size:20px;""> In this experiment, you will be asked to make judgments about the content of different sentences.</p>
                    <p style=""font-size:20px;""> On each trial, you will read a sentence, and will be shown a picture immediately following the sentence. </p>
                    <p style=""font-size:20px;""> Your task is to decide whether the object displayed in the picture was mentioned in the sentence or not </p>
                    <p style=""font-size:20px;""> and respond as quickly as possible by pressing <strong>S</strong> for yes or <strong>N</strong> for no. </p>
                    <p style=""font-size:20px;""> You will now do a practice session with feedback and instructions. </p>
                    <p style=""font-size:20px;""> Click the button below to continue.</p>
                    ","","","",""
"","","","","","instructions","26268","html-button-response","3","105412","0.0-3.0","106","2","2022-11-17 12:31:41","fd252370c17a9971d68c1d4354a03c2e","","Mozilla/5.0 (Windows NT 10.0; Win64; x64) AppleWebKit/537.36 (KHTML, like Gecko) Chrome/107.0.0.0 Safari/537.36 Edg/107.0.1418.42","WebKit","Edge","107.0.1418.42","Windows","10.0","24722","0","","
                    <p style=""font-size:20px;""> You are about to begin the practice test. </p>
                    <p style=""font-size:20px;""> On each trial, a sentence will appear on the screen. You should press SPACEBAR when you have read and understood the sentence.</p>
                    <p style=""font-size:20px;""> After you press SPACEBAR, a picture will appear on the screen. </p>
                    <p style=""font-size:20px;""> You need to indicate whether or not the pictured object was mentioned in the sentence. </p>
                    <p style=""font-size:20px;""> If the object WAS mentioned in the preceding sentence, you should press <strong>S</strong> </p>
                    <p style=""font-size:20px;""> If the object was NOT mentioned in the preceding sentence, you should press <strong>N</strong>. </p>
                    <p style=""font-size:20px;""> Click the button below to continue to the practice session.</p>
                    ","","","",""
"","","","","","fixation","26268","html-keyboard-response","4","106429","0.0-4.0-0.0","106","2","2022-11-17 12:31:41","fd252370c17a9971d68c1d4354a03c2e","","Mozilla/5.0 (Windows NT 10.0; Win64; x64) AppleWebKit/537.36 (KHTML, like Gecko) Chrome/107.0.0.0 Safari/537.36 Edg/107.0.1418.42","WebKit","Edge","107.0.1418.42","Windows","10.0","null","null","","<p style=""font-size: 48px;"">+</p>","practice","practice_s","",""
"","","","","","sentence","26268","html-keyboard-response","5","106621","0.0-4.0-1.0","106","2","2022-11-17 12:31:41","fd252370c17a9971d68c1d4354a03c2e","","Mozilla/5.0 (Windows NT 10.0; Win64; x64) AppleWebKit/537.36 (KHTML, like Gecko) Chrome/107.0.0.0 Safari/537.36 Edg/107.0.1418.42","WebKit","Edge","107.0.1418.42","Windows","10.0","184"," ","","A bowling ball dropped and smashed a teacup","practice","practice_s","",""
"","","","","","fixation","26268","html-keyboard-response","6","107138","0.0-4.0-2.0","106","2","2022-11-17 12:31:41","fd252370c17a9971d68c1d4354a03c2e","","Mozilla/5.0 (Windows NT 10.0; Win64; x64) AppleWebKit/537.36 (KHTML, like Gecko) Chrome/107.0.0.0 Safari/537.36 Edg/107.0.1418.42","WebKit","Edge","107.0.1418.42","Windows","10.0","null","null","","<p style=""font-size: 48px;"">+</p>","practice","practice_s","",""
"","","","","","picture","26268","image-keyboard-response","7","108905","0.0-4.0-3.0","106","2","2022-11-17 12:31:41","fd252370c17a9971d68c1d4354a03c2e","","Mozilla/5.0 (Windows NT 10.0; Win64; x64) AppleWebKit/537.36 (KHTML, like Gecko) Chrome/107.0.0.0 Safari/537.36 Edg/107.0.1418.42","WebKit","Edge","107.0.1418.42","Windows","10.0","1721","s","","cupB.jpg","practice","practice_s","true",""
"","","","","","","","html-keyboard-response","8","110913","0.0-4.0-4.0","106","2","2022-11-17 12:31:41","fd252370c17a9971d68c1d4354a03c2e","","Mozilla/5.0 (Windows NT 10.0; Win64; x64) AppleWebKit/537.36 (KHTML, like Gecko) Chrome/107.0.0.0 Safari/537.36 Edg/107.0.1418.42","WebKit","Edge","107.0.1418.42","Windows","10.0","null","null","","CORRECT!","","","",""
"","","","","","fixation","26268","html-keyboard-response","9","111940","0.0-4.0-0.1","106","2","2022-11-17 12:31:41","fd252370c17a9971d68c1d4354a03c2e","","Mozilla/5.0 (Windows NT 10.0; Win64; x64) AppleWebKit/537.36 (KHTML, like Gecko) Chrome/107.0.0.0 Safari/537.36 Edg/107.0.1418.42","WebKit","Edge","107.0.1418.42","Windows","10.0","null","null","","<p style=""font-size: 48px;"">+</p>","practice","practice_n","",""
"","","","","","sentence","26268","html-keyboard-response","10","117252","0.0-4.0-1.1","106","2","2022-11-17 12:31:41","fd252370c17a9971d68c1d4354a03c2e","","Mozilla/5.0 (Windows NT 10.0; Win64; x64) AppleWebKit/537.36 (KHTML, like Gecko) Chrome/107.0.0.0 Safari/537.36 Edg/107.0.1418.42","WebKit","Edge","107.0.1418.42","Windows","10.0","5306"," ","","A balloon dropped and smashed a cup","practice","practice_n","",""
"","","","","","fixation","26268","html-keyboard-response","11","117758","0.0-4.0-2.1","106","2","2022-11-17 12:31:41","fd252370c17a9971d68c1d4354a03c2e","","Mozilla/5.0 (Windows NT 10.0; Win64; x64) AppleWebKit/537.36 (KHTML, like Gecko) Chrome/107.0.0.0 Safari/537.36 Edg/107.0.1418.42","WebKit","Edge","107.0.1418.42","Windows","10.0","null","null","","<p style=""font-size: 48px;"">+</p>","practice","practice_n","",""
"","","","","","picture","26268","image-keyboard-response","12","119248","0.0-4.0-3.1","106","2","2022-11-17 12:31:41","fd252370c17a9971d68c1d4354a03c2e","","Mozilla/5.0 (Windows NT 10.0; Win64; x64) AppleWebKit/537.36 (KHTML, like Gecko) Chrome/107.0.0.0 Safari/537.36 Edg/107.0.1418.42","WebKit","Edge","107.0.1418.42","Windows","10.0","1481","n","","bananaB.jpg","practice","practice_n","true",""
"","","","","","","","html-keyboard-response","13","121266","0.0-4.0-4.1","106","2","2022-11-17 12:31:41","fd252370c17a9971d68c1d4354a03c2e","","Mozilla/5.0 (Windows NT 10.0; Win64; x64) AppleWebKit/537.36 (KHTML, like Gecko) Chrome/107.0.0.0 Safari/537.36 Edg/107.0.1418.42","WebKit","Edge","107.0.1418.42","Windows","10.0","null","null","","CORRECT!","","","",""
"","","","","","fixation","26268","html-keyboard-response","14","122286","0.0-4.0-0.2","106","2","2022-11-17 12:31:41","fd252370c17a9971d68c1d4354a03c2e","","Mozilla/5.0 (Windows NT 10.0; Win64; x64) AppleWebKit/537.36 (KHTML, like Gecko) Chrome/107.0.0.0 Safari/537.36 Edg/107.0.1418.42","WebKit","Edge","107.0.1418.42","Windows","10.0","null","null","","<p style=""font-size: 48px;"">+</p>","practice","practice_s","",""
"","","","","","sentence","26268","html-keyboard-response","15","124108","0.0-4.0-1.2","106","2","2022-11-17 12:31:41","fd252370c17a9971d68c1d4354a03c2e","","Mozilla/5.0 (Windows NT 10.0; Win64; x64) AppleWebKit/537.36 (KHTML, like Gecko) Chrome/107.0.0.0 Safari/537.36 Edg/107.0.1418.42","WebKit","Edge","107.0.1418.42","Windows","10.0","1815"," ","","A balloon dropped and touched a cigarette","practice","practice_s","",""
"","","","","","fixation","26268","html-keyboard-response","16","124619","0.0-4.0-2.2","106","2","2022-11-17 12:31:41","fd252370c17a9971d68c1d4354a03c2e","","Mozilla/5.0 (Windows NT 10.0; Win64; x64) AppleWebKit/537.36 (KHTML, like Gecko) Chrome/107.0.0.0 Safari/537.36 Edg/107.0.1418.42","WebKit","Edge","107.0.1418.42","Windows","10.0","null","null","","<p style=""font-size: 48px;"">+</p>","practice","practice_s","",""
"","","","","","picture","26268","image-keyboard-response","17","125679","0.0-4.0-3.2","106","2","2022-11-17 12:31:41","fd252370c17a9971d68c1d4354a03c2e","","Mozilla/5.0 (Windows NT 10.0; Win64; x64) AppleWebKit/537.36 (KHTML, like Gecko) Chrome/107.0.0.0 Safari/537.36 Edg/107.0.1418.42","WebKit","Edge","107.0.1418.42","Windows","10.0","1052","s","","cigaretteB.jpg","practice","practice_s","true",""
"","","","","","","","html-keyboard-response","18","127701","0.0-4.0-4.2","106","2","2022-11-17 12:31:41","fd252370c17a9971d68c1d4354a03c2e","","Mozilla/5.0 (Windows NT 10.0; Win64; x64) AppleWebKit/537.36 (KHTML, like Gecko) Chrome/107.0.0.0 Safari/537.36 Edg/107.0.1418.42","WebKit","Edge","107.0.1418.42","Windows","10.0","null","null","","CORRECT!","","","",""
"","","","","","fixation","26268","html-keyboard-response","19","128719","0.0-4.0-0.3","106","2","2022-11-17 12:31:41","fd252370c17a9971d68c1d4354a03c2e","","Mozilla/5.0 (Windows NT 10.0; Win64; x64) AppleWebKit/537.36 (KHTML, like Gecko) Chrome/107.0.0.0 Safari/537.36 Edg/107.0.1418.42","WebKit","Edge","107.0.1418.42","Windows","10.0","null","null","","<p style=""font-size: 48px;"">+</p>","practice","practice_n","",""
"","","","","","sentence","26268","html-keyboard-response","20","130638","0.0-4.0-1.3","106","2","2022-11-17 12:31:41","fd252370c17a9971d68c1d4354a03c2e","","Mozilla/5.0 (Windows NT 10.0; Win64; x64) AppleWebKit/537.36 (KHTML, like Gecko) Chrome/107.0.0.0 Safari/537.36 Edg/107.0.1418.42","WebKit","Edge","107.0.1418.42","Windows","10.0","1912"," ","","A fork was placed on a stool","practice","practice_n","",""
"","","","","","fixation","26268","html-keyboard-response","21","131154","0.0-4.0-2.3","106","2","2022-11-17 12:31:41","fd252370c17a9971d68c1d4354a03c2e","","Mozilla/5.0 (Windows NT 10.0; Win64; x64) AppleWebKit/537.36 (KHTML, like Gecko) Chrome/107.0.0.0 Safari/537.36 Edg/107.0.1418.42","WebKit","Edge","107.0.1418.42","Windows","10.0","null","null","","<p style=""font-size: 48px;"">+</p>","practice","practice_n","",""
"","","","","","picture","26268","image-keyboard-response","22","132484","0.0-4.0-3.3","106","2","2022-11-17 12:31:41","fd252370c17a9971d68c1d4354a03c2e","","Mozilla/5.0 (Windows NT 10.0; Win64; x64) AppleWebKit/537.36 (KHTML, like Gecko) Chrome/107.0.0.0 Safari/537.36 Edg/107.0.1418.42","WebKit","Edge","107.0.1418.42","Windows","10.0","1322","s","","tableB.jpg","practice","practice_n","false",""
"","","","","","","","html-keyboard-response","23","134496","0.0-4.0-4.3","106","2","2022-11-17 12:31:41","fd252370c17a9971d68c1d4354a03c2e","","Mozilla/5.0 (Windows NT 10.0; Win64; x64) AppleWebKit/537.36 (KHTML, like Gecko) Chrome/107.0.0.0 Safari/537.36 Edg/107.0.1418.42","WebKit","Edge","107.0.1418.42","Windows","10.0","null","null","","WRONG!","","","",""
"","","","","","fixation","26268","html-keyboard-response","24","135518","0.0-4.0-0.4","106","2","2022-11-17 12:31:41","fd252370c17a9971d68c1d4354a03c2e","","Mozilla/5.0 (Windows NT 10.0; Win64; x64) AppleWebKit/537.36 (KHTML, like Gecko) Chrome/107.0.0.0 Safari/537.36 Edg/107.0.1418.42","WebKit","Edge","107.0.1418.42","Windows","10.0","null","null","","<p style=""font-size: 48px;"">+</p>","practice","practice_s","",""
"","","","","","sentence","26268","html-keyboard-response","25","137404","0.0-4.0-1.4","106","2","2022-11-17 12:31:41","fd252370c17a9971d68c1d4354a03c2e","","Mozilla/5.0 (Windows NT 10.0; Win64; x64) AppleWebKit/537.36 (KHTML, like Gecko) Chrome/107.0.0.0 Safari/537.36 Edg/107.0.1418.42","WebKit","Edge","107.0.1418.42","Windows","10.0","1879"," ","","A knife was placed on a hammer","practice","practice_s","",""
"","","","","","fixation","26268","html-keyboard-response","26","137920","0.0-4.0-2.4","106","2","2022-11-17 12:31:41","fd252370c17a9971d68c1d4354a03c2e","","Mozilla/5.0 (Windows NT 10.0; Win64; x64) AppleWebKit/537.36 (KHTML, like Gecko) Chrome/107.0.0.0 Safari/537.36 Edg/107.0.1418.42","WebKit","Edge","107.0.1418.42","Windows","10.0","null","null","","<p style=""font-size: 48px;"">+</p>","practice","practice_s","",""
"","","","","","picture","26268","image-keyboard-response","27","138918","0.0-4.0-3.4","106","2","2022-11-17 12:31:41","fd252370c17a9971d68c1d4354a03c2e","","Mozilla/5.0 (Windows NT 10.0; Win64; x64) AppleWebKit/537.36 (KHTML, like Gecko) Chrome/107.0.0.0 Safari/537.36 Edg/107.0.1418.42","WebKit","Edge","107.0.1418.42","Windows","10.0","989","s","","hammerB.jpg","practice","practice_s","true",""
"","","","","","","","html-keyboard-response","28","140929","0.0-4.0-4.4","106","2","2022-11-17 12:31:41","fd252370c17a9971d68c1d4354a03c2e","","Mozilla/5.0 (Windows NT 10.0; Win64; x64) AppleWebKit/537.36 (KHTML, like Gecko) Chrome/107.0.0.0 Safari/537.36 Edg/107.0.1418.42","WebKit","Edge","107.0.1418.42","Windows","10.0","null","null","","CORRECT!","","","",""
"","","","","","fixation","26268","html-keyboard-response","29","141959","0.0-4.0-0.5","106","2","2022-11-17 12:31:41","fd252370c17a9971d68c1d4354a03c2e","","Mozilla/5.0 (Windows NT 10.0; Win64; x64) AppleWebKit/537.36 (KHTML, like Gecko) Chrome/107.0.0.0 Safari/537.36 Edg/107.0.1418.42","WebKit","Edge","107.0.1418.42","Windows","10.0","null","null","","<p style=""font-size: 48px;"">+</p>","practice","practice_n","",""
"","","","","","sentence","26268","html-keyboard-response","30","146872","0.0-4.0-1.5","106","2","2022-11-17 12:31:41","fd252370c17a9971d68c1d4354a03c2e","","Mozilla/5.0 (Windows NT 10.0; Win64; x64) AppleWebKit/537.36 (KHTML, like Gecko) Chrome/107.0.0.0 Safari/537.36 Edg/107.0.1418.42","WebKit","Edge","107.0.1418.42","Windows","10.0","4906"," ","","A bowling ball dropped and touched a bottle","practice","practice_n","",""
"","","","","","fixation","26268","html-keyboard-response","31","147383","0.0-4.0-2.5","106","2","2022-11-17 12:31:41","fd252370c17a9971d68c1d4354a03c2e","","Mozilla/5.0 (Windows NT 10.0; Win64; x64) AppleWebKit/537.36 (KHTML, like Gecko) Chrome/107.0.0.0 Safari/537.36 Edg/107.0.1418.42","WebKit","Edge","107.0.1418.42","Windows","10.0","null","null","","<p style=""font-size: 48px;"">+</p>","practice","practice_n","",""
"","","","","","picture","26268","image-keyboard-response","32","148300","0.0-4.0-3.5","106","2","2022-11-17 12:31:41","fd252370c17a9971d68c1d4354a03c2e","","Mozilla/5.0 (Windows NT 10.0; Win64; x64) AppleWebKit/537.36 (KHTML, like Gecko) Chrome/107.0.0.0 Safari/537.36 Edg/107.0.1418.42","WebKit","Edge","107.0.1418.42","Windows","10.0","907","n","","bookB.jpg","practice","practice_n","true",""
"","","","","","","","html-keyboard-response","33","150319","0.0-4.0-4.5","106","2","2022-11-17 12:31:41","fd252370c17a9971d68c1d4354a03c2e","","Mozilla/5.0 (Windows NT 10.0; Win64; x64) AppleWebKit/537.36 (KHTML, like Gecko) Chrome/107.0.0.0 Safari/537.36 Edg/107.0.1418.42","WebKit","Edge","107.0.1418.42","Windows","10.0","null","null","","CORRECT!","","","",""
"","","","","","movetoexp","26268","html-button-response","34","162066","0.0-5.0","106","2","2022-11-17 12:31:41","fd252370c17a9971d68c1d4354a03c2e","","Mozilla/5.0 (Windows NT 10.0; Win64; x64) AppleWebKit/537.36 (KHTML, like Gecko) Chrome/107.0.0.0 Safari/537.36 Edg/107.0.1418.42","WebKit","Edge","107.0.1418.42","Windows","10.0","11737","0","","<p style=""font-size:20px;"">You have now completed the practice session! </p>
                    <p style=""font-size:20px;"">You will now move on to the main experiment, where you will not be provided any feedback. </p>
                    <p style=""font-size:20px;"">Remember, you should press <strong>S</strong> if the pictured object was mentioned in the preceding sentence<br> and <strong>N</strong> if the pictured object was not mentioned in the preceding sentence.</p>
                    <p style=""font-size:20px;"">Please click the button below to continue to the main experiment. </p>","","","",""
"","","","","","fixation","26268","html-keyboard-response","35","163081","0.0-6.0-0.0","106","2","2022-11-17 12:31:41","fd252370c17a9971d68c1d4354a03c2e","","Mozilla/5.0 (Windows NT 10.0; Win64; x64) AppleWebKit/537.36 (KHTML, like Gecko) Chrome/107.0.0.0 Safari/537.36 Edg/107.0.1418.42","WebKit","Edge","107.0.1418.42","Windows","10.0","null","null","","<p style=""font-size: 48px;"">+</p>","2","Heavy_Matched","",""
"","","","","","sentence","26268","html-keyboard-response","36","165749","0.0-6.0-1.0","106","2","2022-11-17 12:31:41","fd252370c17a9971d68c1d4354a03c2e","","Mozilla/5.0 (Windows NT 10.0; Win64; x64) AppleWebKit/537.36 (KHTML, like Gecko) Chrome/107.0.0.0 Safari/537.36 Edg/107.0.1418.42","WebKit","Edge","107.0.1418.42","Windows","10.0","2661"," ","","A bowling ball dropped and smashed a chocolate ice-cream","2","Heavy_Matched","",""
"","","","","","fixation","26268","html-keyboard-response","37","166266","0.0-6.0-2.0","106","2","2022-11-17 12:31:41","fd252370c17a9971d68c1d4354a03c2e","","Mozilla/5.0 (Windows NT 10.0; Win64; x64) AppleWebKit/537.36 (KHTML, like Gecko) Chrome/107.0.0.0 Safari/537.36 Edg/107.0.1418.42","WebKit","Edge","107.0.1418.42","Windows","10.0","null","null","","<p style=""font-size: 48px;"">+</p>","2","Heavy_Matched","",""
"","","","","","picture","26268","image-keyboard-response","38","167802","0.0-6.0-3.0","106","2","2022-11-17 12:31:41","fd252370c17a9971d68c1d4354a03c2e","","Mozilla/5.0 (Windows NT 10.0; Win64; x64) AppleWebKit/537.36 (KHTML, like Gecko) Chrome/107.0.0.0 Safari/537.36 Edg/107.0.1418.42","WebKit","Edge","107.0.1418.42","Windows","10.0","1525","s","","icecreamS.jpg","2","Heavy_Matched","true",""
"","","","","","fixation","26268","html-keyboard-response","39","168830","0.0-6.0-0.1","106","2","2022-11-17 12:31:41","fd252370c17a9971d68c1d4354a03c2e","","Mozilla/5.0 (Windows NT 10.0; Win64; x64) AppleWebKit/537.36 (KHTML, like Gecko) Chrome/107.0.0.0 Safari/537.36 Edg/107.0.1418.42","WebKit","Edge","107.0.1418.42","Windows","10.0","null","null","","<p style=""font-size: 48px;"">+</p>","2","Filler","",""
"","","","","","sentence","26268","html-keyboard-response","40","170410","0.0-6.0-1.1","106","2","2022-11-17 12:31:41","fd252370c17a9971d68c1d4354a03c2e","","Mozilla/5.0 (Windows NT 10.0; Win64; x64) AppleWebKit/537.36 (KHTML, like Gecko) Chrome/107.0.0.0 Safari/537.36 Edg/107.0.1418.42","WebKit","Edge","107.0.1418.42","Windows","10.0","1571"," ","","A towel was placed on the TV","2","Filler","",""
"","","","","","fixation","26268","html-keyboard-response","41","171284","0.0-6.0-2.1","106","2","2022-11-17 12:31:41","fd252370c17a9971d68c1d4354a03c2e","","Mozilla/5.0 (Windows NT 10.0; Win64; x64) AppleWebKit/537.36 (KHTML, like Gecko) Chrome/107.0.0.0 Safari/537.36 Edg/107.0.1418.42","WebKit","Edge","107.0.1418.42","Windows","10.0","null","null","","<p style=""font-size: 48px;"">+</p>","2","Filler","",""
"","","","","","picture","26268","image-keyboard-response","42","172085","0.0-6.0-3.1","106","2","2022-11-17 12:31:41","fd252370c17a9971d68c1d4354a03c2e","","Mozilla/5.0 (Windows NT 10.0; Win64; x64) AppleWebKit/537.36 (KHTML, like Gecko) Chrome/107.0.0.0 Safari/537.36 Edg/107.0.1418.42","WebKit","Edge","107.0.1418.42","Windows","10.0","790","n","","pencil.jpg","2","Filler","true",""
"","","","","","fixation","26268","html-keyboard-response","43","173107","0.0-6.0-0.2","106","2","2022-11-17 12:31:41","fd252370c17a9971d68c1d4354a03c2e","","Mozilla/5.0 (Windows NT 10.0; Win64; x64) AppleWebKit/537.36 (KHTML, like Gecko) Chrome/107.0.0.0 Safari/537.36 Edg/107.0.1418.42","WebKit","Edge","107.0.1418.42","Windows","10.0","null","null","","<p style=""font-size: 48px;"">+</p>","2","Heavy_Matched","",""
"","","","","","sentence","26268","html-keyboard-response","44","174678","0.0-6.0-1.2","106","2","2022-11-17 12:31:41","fd252370c17a9971d68c1d4354a03c2e","","Mozilla/5.0 (Windows NT 10.0; Win64; x64) AppleWebKit/537.36 (KHTML, like Gecko) Chrome/107.0.0.0 Safari/537.36 Edg/107.0.1418.42","WebKit","Edge","107.0.1418.42","Windows","10.0","1563"," ","","A bowling ball dropped and smashed a blackberry","2","Heavy_Matched","",""
"","","","","","fixation","26268","html-keyboard-response","45","175192","0.0-6.0-2.2","106","2","2022-11-17 12:31:41","fd252370c17a9971d68c1d4354a03c2e","","Mozilla/5.0 (Windows NT 10.0; Win64; x64) AppleWebKit/537.36 (KHTML, like Gecko) Chrome/107.0.0.0 Safari/537.36 Edg/107.0.1418.42","WebKit","Edge","107.0.1418.42","Windows","10.0","null","null","","<p style=""font-size: 48px;"">+</p>","2","Heavy_Matched","",""
"","","","","","picture","26268","image-keyboard-response","46","176330","0.0-6.0-3.2","106","2","2022-11-17 12:31:41","fd252370c17a9971d68c1d4354a03c2e","","Mozilla/5.0 (Windows NT 10.0; Win64; x64) AppleWebKit/537.36 (KHTML, like Gecko) Chrome/107.0.0.0 Safari/537.36 Edg/107.0.1418.42","WebKit","Edge","107.0.1418.42","Windows","10.0","1127","s","","blackberryS.jpg","2","Heavy_Matched","true",""
"","","","","","fixation","26268","html-keyboard-response","47","178283","0.0-6.0-0.3","106","2","2022-11-17 12:31:41","fd252370c17a9971d68c1d4354a03c2e","","Mozilla/5.0 (Windows NT 10.0; Win64; x64) AppleWebKit/537.36 (KHTML, like Gecko) Chrome/107.0.0.0 Safari/537.36 Edg/107.0.1418.42","WebKit","Edge","107.0.1418.42","Windows","10.0","null","null","","<p style=""font-size: 48px;"">+</p>","2","Heavy_Contradictory","",""
"","","","","","sentence","26268","html-keyboard-response","48","179780","0.0-6.0-1.3","106","2","2022-11-17 12:31:41","fd252370c17a9971d68c1d4354a03c2e","","Mozilla/5.0 (Windows NT 10.0; Win64; x64) AppleWebKit/537.36 (KHTML, like Gecko) Chrome/107.0.0.0 Safari/537.36 Edg/107.0.1418.42","WebKit","Edge","107.0.1418.42","Windows","10.0","1486"," ","","A bowling ball dropped and touched an iPhone","2","Heavy_Contradictory","",""
"","","","","","fixation","26268","html-keyboard-response","49","180296","0.0-6.0-2.3","106","2","2022-11-17 12:31:41","fd252370c17a9971d68c1d4354a03c2e","","Mozilla/5.0 (Windows NT 10.0; Win64; x64) AppleWebKit/537.36 (KHTML, like Gecko) Chrome/107.0.0.0 Safari/537.36 Edg/107.0.1418.42","WebKit","Edge","107.0.1418.42","Windows","10.0","null","null","","<p style=""font-size: 48px;"">+</p>","2","Heavy_Contradictory","",""
"","","","","","picture","26268","image-keyboard-response","50","181456","0.0-6.0-3.3","106","2","2022-11-17 12:31:41","fd252370c17a9971d68c1d4354a03c2e","","Mozilla/5.0 (Windows NT 10.0; Win64; x64) AppleWebKit/537.36 (KHTML, like Gecko) Chrome/107.0.0.0 Safari/537.36 Edg/107.0.1418.42","WebKit","Edge","107.0.1418.42","Windows","10.0","1146","s","","iphoneS.png","2","Heavy_Contradictory","true",""
"","","","","","fixation","26268","html-keyboard-response","51","182479","0.0-6.0-0.4","106","2","2022-11-17 12:31:41","fd252370c17a9971d68c1d4354a03c2e","","Mozilla/5.0 (Windows NT 10.0; Win64; x64) AppleWebKit/537.36 (KHTML, like Gecko) Chrome/107.0.0.0 Safari/537.36 Edg/107.0.1418.42","WebKit","Edge","107.0.1418.42","Windows","10.0","null","null","","<p style=""font-size: 48px;"">+</p>","2","Filler","",""
"","","","","","sentence","26268","html-keyboard-response","52","183838","0.0-6.0-1.4","106","2","2022-11-17 12:31:41","fd252370c17a9971d68c1d4354a03c2e","","Mozilla/5.0 (Windows NT 10.0; Win64; x64) AppleWebKit/537.36 (KHTML, like Gecko) Chrome/107.0.0.0 Safari/537.36 Edg/107.0.1418.42","WebKit","Edge","107.0.1418.42","Windows","10.0","1348"," ","","A man is boiling potatoes.","2","Filler","",""
"","","","","","fixation","26268","html-keyboard-response","53","184355","0.0-6.0-2.4","106","2","2022-11-17 12:31:41","fd252370c17a9971d68c1d4354a03c2e","","Mozilla/5.0 (Windows NT 10.0; Win64; x64) AppleWebKit/537.36 (KHTML, like Gecko) Chrome/107.0.0.0 Safari/537.36 Edg/107.0.1418.42","WebKit","Edge","107.0.1418.42","Windows","10.0","null","null","","<p style=""font-size: 48px;"">+</p>","2","Filler","",""
"","","","","","picture","26268","image-keyboard-response","54","185424","0.0-6.0-3.4","106","2","2022-11-17 12:31:41","fd252370c17a9971d68c1d4354a03c2e","","Mozilla/5.0 (Windows NT 10.0; Win64; x64) AppleWebKit/537.36 (KHTML, like Gecko) Chrome/107.0.0.0 Safari/537.36 Edg/107.0.1418.42","WebKit","Edge","107.0.1418.42","Windows","10.0","1056","n","","cup.jpg","2","Filler","true",""
"","","","","","fixation","26268","html-keyboard-response","55","186452","0.0-6.0-0.5","106","2","2022-11-17 12:31:41","fd252370c17a9971d68c1d4354a03c2e","","Mozilla/5.0 (Windows NT 10.0; Win64; x64) AppleWebKit/537.36 (KHTML, like Gecko) Chrome/107.0.0.0 Safari/537.36 Edg/107.0.1418.42","WebKit","Edge","107.0.1418.42","Windows","10.0","null","null","","<p style=""font-size: 48px;"">+</p>","2","Filler","",""
"","","","","","sentence","26268","html-keyboard-response","56","188537","0.0-6.0-1.5","106","2","2022-11-17 12:31:41","fd252370c17a9971d68c1d4354a03c2e","","Mozilla/5.0 (Windows NT 10.0; Win64; x64) AppleWebKit/537.36 (KHTML, like Gecko) Chrome/107.0.0.0 Safari/537.36 Edg/107.0.1418.42","WebKit","Edge","107.0.1418.42","Windows","10.0","2075"," ","","A thief is stealing a wallet","2","Filler","",""
"","","","","","fixation","26268","html-keyboard-response","57","189052","0.0-6.0-2.5","106","2","2022-11-17 12:31:41","fd252370c17a9971d68c1d4354a03c2e","","Mozilla/5.0 (Windows NT 10.0; Win64; x64) AppleWebKit/537.36 (KHTML, like Gecko) Chrome/107.0.0.0 Safari/537.36 Edg/107.0.1418.42","WebKit","Edge","107.0.1418.42","Windows","10.0","null","null","","<p style=""font-size: 48px;"">+</p>","2","Filler","",""
"","","","","","picture","26268","image-keyboard-response","58","189662","0.0-6.0-3.5","106","2","2022-11-17 12:31:41","fd252370c17a9971d68c1d4354a03c2e","","Mozilla/5.0 (Windows NT 10.0; Win64; x64) AppleWebKit/537.36 (KHTML, like Gecko) Chrome/107.0.0.0 Safari/537.36 Edg/107.0.1418.42","WebKit","Edge","107.0.1418.42","Windows","10.0","597","n","","teddybear.jpg","2","Filler","true",""
"","","","","","fixation","26268","html-keyboard-response","59","191288","0.0-6.0-0.6","106","2","2022-11-17 12:31:41","fd252370c17a9971d68c1d4354a03c2e","","Mozilla/5.0 (Windows NT 10.0; Win64; x64) AppleWebKit/537.36 (KHTML, like Gecko) Chrome/107.0.0.0 Safari/537.36 Edg/107.0.1418.42","WebKit","Edge","107.0.1418.42","Windows","10.0","null","null","","<p style=""font-size: 48px;"">+</p>","2","Light_Contradictory","",""
"","","","","","sentence","26268","html-keyboard-response","60","193022","0.0-6.0-1.6","106","2","2022-11-17 12:31:41","fd252370c17a9971d68c1d4354a03c2e","","Mozilla/5.0 (Windows NT 10.0; Win64; x64) AppleWebKit/537.36 (KHTML, like Gecko) Chrome/107.0.0.0 Safari/537.36 Edg/107.0.1418.42","WebKit","Edge","107.0.1418.42","Windows","10.0","1724"," ","","A balloon dropped and smashed a TV","2","Light_Contradictory","",""
"","","","","","fixation","26268","html-keyboard-response","61","193541","0.0-6.0-2.6","106","2","2022-11-17 12:31:41","fd252370c17a9971d68c1d4354a03c2e","","Mozilla/5.0 (Windows NT 10.0; Win64; x64) AppleWebKit/537.36 (KHTML, like Gecko) Chrome/107.0.0.0 Safari/537.36 Edg/107.0.1418.42","WebKit","Edge","107.0.1418.42","Windows","10.0","null","null","","<p style=""font-size: 48px;"">+</p>","2","Light_Contradictory","",""
"","","","","","picture","26268","image-keyboard-response","62","194115","0.0-6.0-3.6","106","2","2022-11-17 12:31:41","fd252370c17a9971d68c1d4354a03c2e","","Mozilla/5.0 (Windows NT 10.0; Win64; x64) AppleWebKit/537.36 (KHTML, like Gecko) Chrome/107.0.0.0 Safari/537.36 Edg/107.0.1418.42","WebKit","Edge","107.0.1418.42","Windows","10.0","560","s","","tvS.jpg","2","Light_Contradictory","true",""
"","","","","","fixation","26268","html-keyboard-response","63","195143","0.0-6.0-0.7","106","2","2022-11-17 12:31:41","fd252370c17a9971d68c1d4354a03c2e","","Mozilla/5.0 (Windows NT 10.0; Win64; x64) AppleWebKit/537.36 (KHTML, like Gecko) Chrome/107.0.0.0 Safari/537.36 Edg/107.0.1418.42","WebKit","Edge","107.0.1418.42","Windows","10.0","null","null","","<p style=""font-size: 48px;"">+</p>","2","Light_Matched","",""
"","","","","","sentence","26268","html-keyboard-response","64","196958","0.0-6.0-1.7","106","2","2022-11-17 12:31:41","fd252370c17a9971d68c1d4354a03c2e","","Mozilla/5.0 (Windows NT 10.0; Win64; x64) AppleWebKit/537.36 (KHTML, like Gecko) Chrome/107.0.0.0 Safari/537.36 Edg/107.0.1418.42","WebKit","Edge","107.0.1418.42","Windows","10.0","1804"," ","","A balloon dropped and touched a ceramic plate","2","Light_Matched","",""
"","","","","","fixation","26268","html-keyboard-response","65","197480","0.0-6.0-2.7","106","2","2022-11-17 12:31:41","fd252370c17a9971d68c1d4354a03c2e","","Mozilla/5.0 (Windows NT 10.0; Win64; x64) AppleWebKit/537.36 (KHTML, like Gecko) Chrome/107.0.0.0 Safari/537.36 Edg/107.0.1418.42","WebKit","Edge","107.0.1418.42","Windows","10.0","null","null","","<p style=""font-size: 48px;"">+</p>","2","Light_Matched","",""
"","","","","","picture","26268","image-keyboard-response","66","198290","0.0-6.0-3.7","106","2","2022-11-17 12:31:41","fd252370c17a9971d68c1d4354a03c2e","","Mozilla/5.0 (Windows NT 10.0; Win64; x64) AppleWebKit/537.36 (KHTML, like Gecko) Chrome/107.0.0.0 Safari/537.36 Edg/107.0.1418.42","WebKit","Edge","107.0.1418.42","Windows","10.0","796","s","","plateS.jpg","2","Light_Matched","true",""
"","","","","","fixation","26268","html-keyboard-response","67","199307","0.0-6.0-0.8","106","2","2022-11-17 12:31:41","fd252370c17a9971d68c1d4354a03c2e","","Mozilla/5.0 (Windows NT 10.0; Win64; x64) AppleWebKit/537.36 (KHTML, like Gecko) Chrome/107.0.0.0 Safari/537.36 Edg/107.0.1418.42","WebKit","Edge","107.0.1418.42","Windows","10.0","null","null","","<p style=""font-size: 48px;"">+</p>","2","Light_Matched","",""
"","","","","","sentence","26268","html-keyboard-response","68","201185","0.0-6.0-1.8","106","2","2022-11-17 12:31:41","fd252370c17a9971d68c1d4354a03c2e","","Mozilla/5.0 (Windows NT 10.0; Win64; x64) AppleWebKit/537.36 (KHTML, like Gecko) Chrome/107.0.0.0 Safari/537.36 Edg/107.0.1418.42","WebKit","Edge","107.0.1418.42","Windows","10.0","1867"," ","","A balloon dropped and touched a piece of sushi","2","Light_Matched","",""
"","","","","","fixation","26268","html-keyboard-response","69","201699","0.0-6.0-2.8","106","2","2022-11-17 12:31:41","fd252370c17a9971d68c1d4354a03c2e","","Mozilla/5.0 (Windows NT 10.0; Win64; x64) AppleWebKit/537.36 (KHTML, like Gecko) Chrome/107.0.0.0 Safari/537.36 Edg/107.0.1418.42","WebKit","Edge","107.0.1418.42","Windows","10.0","null","null","","<p style=""font-size: 48px;"">+</p>","2","Light_Matched","",""
"","","","","","picture","26268","image-keyboard-response","70","203625","0.0-6.0-3.8","106","2","2022-11-17 12:31:41","fd252370c17a9971d68c1d4354a03c2e","","Mozilla/5.0 (Windows NT 10.0; Win64; x64) AppleWebKit/537.36 (KHTML, like Gecko) Chrome/107.0.0.0 Safari/537.36 Edg/107.0.1418.42","WebKit","Edge","107.0.1418.42","Windows","10.0","1909","s","","sushiS.jpg","2","Light_Matched","true",""
"","","","","","fixation","26268","html-keyboard-response","71","204646","0.0-6.0-0.9","106","2","2022-11-17 12:31:41","fd252370c17a9971d68c1d4354a03c2e","","Mozilla/5.0 (Windows NT 10.0; Win64; x64) AppleWebKit/537.36 (KHTML, like Gecko) Chrome/107.0.0.0 Safari/537.36 Edg/107.0.1418.42","WebKit","Edge","107.0.1418.42","Windows","10.0","null","null","","<p style=""font-size: 48px;"">+</p>","2","Filler","",""
"","","","","","sentence","26268","html-keyboard-response","72","206282","0.0-6.0-1.9","106","2","2022-11-17 12:31:41","fd252370c17a9971d68c1d4354a03c2e","","Mozilla/5.0 (Windows NT 10.0; Win64; x64) AppleWebKit/537.36 (KHTML, like Gecko) Chrome/107.0.0.0 Safari/537.36 Edg/107.0.1418.42","WebKit","Edge","107.0.1418.42","Windows","10.0","1626"," ","","A parrot is eating an apple","2","Filler","",""
"","","","","","fixation","26268","html-keyboard-response","73","206793","0.0-6.0-2.9","106","2","2022-11-17 12:31:41","fd252370c17a9971d68c1d4354a03c2e","","Mozilla/5.0 (Windows NT 10.0; Win64; x64) AppleWebKit/537.36 (KHTML, like Gecko) Chrome/107.0.0.0 Safari/537.36 Edg/107.0.1418.42","WebKit","Edge","107.0.1418.42","Windows","10.0","null","null","","<p style=""font-size: 48px;"">+</p>","2","Filler","",""
"","","","","","picture","26268","image-keyboard-response","74","207503","0.0-6.0-3.9","106","2","2022-11-17 12:31:41","fd252370c17a9971d68c1d4354a03c2e","","Mozilla/5.0 (Windows NT 10.0; Win64; x64) AppleWebKit/537.36 (KHTML, like Gecko) Chrome/107.0.0.0 Safari/537.36 Edg/107.0.1418.42","WebKit","Edge","107.0.1418.42","Windows","10.0","695","n","","shirt.jpg","2","Filler","true",""
"","","","","","fixation","26268","html-keyboard-response","75","208520","0.0-6.0-0.10","106","2","2022-11-17 12:31:41","fd252370c17a9971d68c1d4354a03c2e","","Mozilla/5.0 (Windows NT 10.0; Win64; x64) AppleWebKit/537.36 (KHTML, like Gecko) Chrome/107.0.0.0 Safari/537.36 Edg/107.0.1418.42","WebKit","Edge","107.0.1418.42","Windows","10.0","null","null","","<p style=""font-size: 48px;"">+</p>","2","Heavy_Contradictory","",""
"","","","","","sentence","26268","html-keyboard-response","76","211349","0.0-6.0-1.10","106","2","2022-11-17 12:31:41","fd252370c17a9971d68c1d4354a03c2e","","Mozilla/5.0 (Windows NT 10.0; Win64; x64) AppleWebKit/537.36 (KHTML, like Gecko) Chrome/107.0.0.0 Safari/537.36 Edg/107.0.1418.42","WebKit","Edge","107.0.1418.42","Windows","10.0","2819"," ","","A bowling ball dropped and touched a rice cake","2","Heavy_Contradictory","",""
"","","","","","fixation","26268","html-keyboard-response","77","211875","0.0-6.0-2.10","106","2","2022-11-17 12:31:41","fd252370c17a9971d68c1d4354a03c2e","","Mozilla/5.0 (Windows NT 10.0; Win64; x64) AppleWebKit/537.36 (KHTML, like Gecko) Chrome/107.0.0.0 Safari/537.36 Edg/107.0.1418.42","WebKit","Edge","107.0.1418.42","Windows","10.0","null","null","","<p style=""font-size: 48px;"">+</p>","2","Heavy_Contradictory","",""
"","","","","","picture","26268","image-keyboard-response","78","212745","0.0-6.0-3.10","106","2","2022-11-17 12:31:41","fd252370c17a9971d68c1d4354a03c2e","","Mozilla/5.0 (Windows NT 10.0; Win64; x64) AppleWebKit/537.36 (KHTML, like Gecko) Chrome/107.0.0.0 Safari/537.36 Edg/107.0.1418.42","WebKit","Edge","107.0.1418.42","Windows","10.0","853","s","","tortitaS.jpg","2","Heavy_Contradictory","true",""
"","","","","","fixation","26268","html-keyboard-response","79","213771","0.0-6.0-0.11","106","2","2022-11-17 12:31:41","fd252370c17a9971d68c1d4354a03c2e","","Mozilla/5.0 (Windows NT 10.0; Win64; x64) AppleWebKit/537.36 (KHTML, like Gecko) Chrome/107.0.0.0 Safari/537.36 Edg/107.0.1418.42","WebKit","Edge","107.0.1418.42","Windows","10.0","null","null","","<p style=""font-size: 48px;"">+</p>","2","Heavy_Matched","",""
"","","","","","sentence","26268","html-keyboard-response","80","217614","0.0-6.0-1.11","106","2","2022-11-17 12:31:41","fd252370c17a9971d68c1d4354a03c2e","","Mozilla/5.0 (Windows NT 10.0; Win64; x64) AppleWebKit/537.36 (KHTML, like Gecko) Chrome/107.0.0.0 Safari/537.36 Edg/107.0.1418.42","WebKit","Edge","107.0.1418.42","Windows","10.0","3830"," ","","A bowling ball dropped and smashed an egg flan","2","Heavy_Matched","",""
"","","","","","fixation","26268","html-keyboard-response","81","218139","0.0-6.0-2.11","106","2","2022-11-17 12:31:41","fd252370c17a9971d68c1d4354a03c2e","","Mozilla/5.0 (Windows NT 10.0; Win64; x64) AppleWebKit/537.36 (KHTML, like Gecko) Chrome/107.0.0.0 Safari/537.36 Edg/107.0.1418.42","WebKit","Edge","107.0.1418.42","Windows","10.0","null","null","","<p style=""font-size: 48px;"">+</p>","2","Heavy_Matched","",""
"","","","","","picture","26268","image-keyboard-response","82","219566","0.0-6.0-3.11","106","2","2022-11-17 12:31:41","fd252370c17a9971d68c1d4354a03c2e","","Mozilla/5.0 (Windows NT 10.0; Win64; x64) AppleWebKit/537.36 (KHTML, like Gecko) Chrome/107.0.0.0 Safari/537.36 Edg/107.0.1418.42","WebKit","Edge","107.0.1418.42","Windows","10.0","1411","s","","eggflanS.jpg","2","Heavy_Matched","true",""
"","","","","","fixation","26268","html-keyboard-response","83","220594","0.0-6.0-0.12","106","2","2022-11-17 12:31:41","fd252370c17a9971d68c1d4354a03c2e","","Mozilla/5.0 (Windows NT 10.0; Win64; x64) AppleWebKit/537.36 (KHTML, like Gecko) Chrome/107.0.0.0 Safari/537.36 Edg/107.0.1418.42","WebKit","Edge","107.0.1418.42","Windows","10.0","null","null","","<p style=""font-size: 48px;"">+</p>","2","Filler","",""
"","","","","","sentence","26268","html-keyboard-response","84","222934","0.0-6.0-1.12","106","2","2022-11-17 12:31:41","fd252370c17a9971d68c1d4354a03c2e","","Mozilla/5.0 (Windows NT 10.0; Win64; x64) AppleWebKit/537.36 (KHTML, like Gecko) Chrome/107.0.0.0 Safari/537.36 Edg/107.0.1418.42","WebKit","Edge","107.0.1418.42","Windows","10.0","2326"," ","","A butterfly is sitting on a flower","2","Filler","",""
"","","","","","fixation","26268","html-keyboard-response","85","223455","0.0-6.0-2.12","106","2","2022-11-17 12:31:41","fd252370c17a9971d68c1d4354a03c2e","","Mozilla/5.0 (Windows NT 10.0; Win64; x64) AppleWebKit/537.36 (KHTML, like Gecko) Chrome/107.0.0.0 Safari/537.36 Edg/107.0.1418.42","WebKit","Edge","107.0.1418.42","Windows","10.0","null","null","","<p style=""font-size: 48px;"">+</p>","2","Filler","",""
"","","","","","picture","26268","image-keyboard-response","86","224448","0.0-6.0-3.12","106","2","2022-11-17 12:31:41","fd252370c17a9971d68c1d4354a03c2e","","Mozilla/5.0 (Windows NT 10.0; Win64; x64) AppleWebKit/537.36 (KHTML, like Gecko) Chrome/107.0.0.0 Safari/537.36 Edg/107.0.1418.42","WebKit","Edge","107.0.1418.42","Windows","10.0","977","n","","soap.jpg","2","Filler","true",""
"","","","","","fixation","26268","html-keyboard-response","87","225478","0.0-6.0-0.13","106","2","2022-11-17 12:31:41","fd252370c17a9971d68c1d4354a03c2e","","Mozilla/5.0 (Windows NT 10.0; Win64; x64) AppleWebKit/537.36 (KHTML, like Gecko) Chrome/107.0.0.0 Safari/537.36 Edg/107.0.1418.42","WebKit","Edge","107.0.1418.42","Windows","10.0","null","null","","<p style=""font-size: 48px;"">+</p>","2","Filler","",""
"","","","","","sentence","26268","html-keyboard-response","88","226778","0.0-6.0-1.13","106","2","2022-11-17 12:31:41","fd252370c17a9971d68c1d4354a03c2e","","Mozilla/5.0 (Windows NT 10.0; Win64; x64) AppleWebKit/537.36 (KHTML, like Gecko) Chrome/107.0.0.0 Safari/537.36 Edg/107.0.1418.42","WebKit","Edge","107.0.1418.42","Windows","10.0","1285"," ","","A musician is playing a guitar","2","Filler","",""
"","","","","","fixation","26268","html-keyboard-response","89","227300","0.0-6.0-2.13","106","2","2022-11-17 12:31:41","fd252370c17a9971d68c1d4354a03c2e","","Mozilla/5.0 (Windows NT 10.0; Win64; x64) AppleWebKit/537.36 (KHTML, like Gecko) Chrome/107.0.0.0 Safari/537.36 Edg/107.0.1418.42","WebKit","Edge","107.0.1418.42","Windows","10.0","null","null","","<p style=""font-size: 48px;"">+</p>","2","Filler","",""
"","","","","","picture","26268","image-keyboard-response","90","229030","0.0-6.0-3.13","106","2","2022-11-17 12:31:41","fd252370c17a9971d68c1d4354a03c2e","","Mozilla/5.0 (Windows NT 10.0; Win64; x64) AppleWebKit/537.36 (KHTML, like Gecko) Chrome/107.0.0.0 Safari/537.36 Edg/107.0.1418.42","WebKit","Edge","107.0.1418.42","Windows","10.0","1713","s","","guitar.jpg","2","Filler","true",""
"","","","","","fixation","26268","html-keyboard-response","91","230057","0.0-6.0-0.14","106","2","2022-11-17 12:31:41","fd252370c17a9971d68c1d4354a03c2e","","Mozilla/5.0 (Windows NT 10.0; Win64; x64) AppleWebKit/537.36 (KHTML, like Gecko) Chrome/107.0.0.0 Safari/537.36 Edg/107.0.1418.42","WebKit","Edge","107.0.1418.42","Windows","10.0","null","null","","<p style=""font-size: 48px;"">+</p>","2","Filler","",""
"","","","","","sentence","26268","html-keyboard-response","92","231469","0.0-6.0-1.14","106","2","2022-11-17 12:31:41","fd252370c17a9971d68c1d4354a03c2e","","Mozilla/5.0 (Windows NT 10.0; Win64; x64) AppleWebKit/537.36 (KHTML, like Gecko) Chrome/107.0.0.0 Safari/537.36 Edg/107.0.1418.42","WebKit","Edge","107.0.1418.42","Windows","10.0","1395"," ","","A man is shaving his beard","2","Filler","",""
"","","","","","fixation","26268","html-keyboard-response","93","231992","0.0-6.0-2.14","106","2","2022-11-17 12:31:41","fd252370c17a9971d68c1d4354a03c2e","","Mozilla/5.0 (Windows NT 10.0; Win64; x64) AppleWebKit/537.36 (KHTML, like Gecko) Chrome/107.0.0.0 Safari/537.36 Edg/107.0.1418.42","WebKit","Edge","107.0.1418.42","Windows","10.0","null","null","","<p style=""font-size: 48px;"">+</p>","2","Filler","",""
"","","","","","picture","26268","image-keyboard-response","94","232663","0.0-6.0-3.14","106","2","2022-11-17 12:31:41","fd252370c17a9971d68c1d4354a03c2e","","Mozilla/5.0 (Windows NT 10.0; Win64; x64) AppleWebKit/537.36 (KHTML, like Gecko) Chrome/107.0.0.0 Safari/537.36 Edg/107.0.1418.42","WebKit","Edge","107.0.1418.42","Windows","10.0","653","n","","clock.jpg","2","Filler","true",""
"","","","","","fixation","26268","html-keyboard-response","95","233701","0.0-6.0-0.15","106","2","2022-11-17 12:31:41","fd252370c17a9971d68c1d4354a03c2e","","Mozilla/5.0 (Windows NT 10.0; Win64; x64) AppleWebKit/537.36 (KHTML, like Gecko) Chrome/107.0.0.0 Safari/537.36 Edg/107.0.1418.42","WebKit","Edge","107.0.1418.42","Windows","10.0","null","null","","<p style=""font-size: 48px;"">+</p>","2","Light_Contradictory","",""
"","","","","","sentence","26268","html-keyboard-response","96","235461","0.0-6.0-1.15","106","2","2022-11-17 12:31:41","fd252370c17a9971d68c1d4354a03c2e","","Mozilla/5.0 (Windows NT 10.0; Win64; x64) AppleWebKit/537.36 (KHTML, like Gecko) Chrome/107.0.0.0 Safari/537.36 Edg/107.0.1418.42","WebKit","Edge","107.0.1418.42","Windows","10.0","1744"," ","","A balloon dropped and smashed a porcelain figure","2","Light_Contradictory","",""
"","","","","","fixation","26268","html-keyboard-response","97","235974","0.0-6.0-2.15","106","2","2022-11-17 12:31:41","fd252370c17a9971d68c1d4354a03c2e","","Mozilla/5.0 (Windows NT 10.0; Win64; x64) AppleWebKit/537.36 (KHTML, like Gecko) Chrome/107.0.0.0 Safari/537.36 Edg/107.0.1418.42","WebKit","Edge","107.0.1418.42","Windows","10.0","null","null","","<p style=""font-size: 48px;"">+</p>","2","Light_Contradictory","",""
"","","","","","picture","26268","image-keyboard-response","98","236691","0.0-6.0-3.15","106","2","2022-11-17 12:31:41","fd252370c17a9971d68c1d4354a03c2e","","Mozilla/5.0 (Windows NT 10.0; Win64; x64) AppleWebKit/537.36 (KHTML, like Gecko) Chrome/107.0.0.0 Safari/537.36 Edg/107.0.1418.42","WebKit","Edge","107.0.1418.42","Windows","10.0","699","s","","figureS.jpg","2","Light_Contradictory","true",""
"","","","","","fixation","26268","html-keyboard-response","99","237720","0.0-6.0-0.16","106","2","2022-11-17 12:31:41","fd252370c17a9971d68c1d4354a03c2e","","Mozilla/5.0 (Windows NT 10.0; Win64; x64) AppleWebKit/537.36 (KHTML, like Gecko) Chrome/107.0.0.0 Safari/537.36 Edg/107.0.1418.42","WebKit","Edge","107.0.1418.42","Windows","10.0","null","null","","<p style=""font-size: 48px;"">+</p>","2","Filler","",""
"","","","","","sentence","26268","html-keyboard-response","100","238957","0.0-6.0-1.16","106","2","2022-11-17 12:31:41","fd252370c17a9971d68c1d4354a03c2e","","Mozilla/5.0 (Windows NT 10.0; Win64; x64) AppleWebKit/537.36 (KHTML, like Gecko) Chrome/107.0.0.0 Safari/537.36 Edg/107.0.1418.42","WebKit","Edge","107.0.1418.42","Windows","10.0","1221"," ","","A cabbage was placed on the table","2","Filler","",""
"","","","","","fixation","26268","html-keyboard-response","101","239477","0.0-6.0-2.16","106","2","2022-11-17 12:31:41","fd252370c17a9971d68c1d4354a03c2e","","Mozilla/5.0 (Windows NT 10.0; Win64; x64) AppleWebKit/537.36 (KHTML, like Gecko) Chrome/107.0.0.0 Safari/537.36 Edg/107.0.1418.42","WebKit","Edge","107.0.1418.42","Windows","10.0","null","null","","<p style=""font-size: 48px;"">+</p>","2","Filler","",""
"","","","","","picture","26268","image-keyboard-response","102","240058","0.0-6.0-3.16","106","2","2022-11-17 12:31:41","fd252370c17a9971d68c1d4354a03c2e","","Mozilla/5.0 (Windows NT 10.0; Win64; x64) AppleWebKit/537.36 (KHTML, like Gecko) Chrome/107.0.0.0 Safari/537.36 Edg/107.0.1418.42","WebKit","Edge","107.0.1418.42","Windows","10.0","561","n","","ladder.jpg","2","Filler","true",""
"","","","","","fixation","26268","html-keyboard-response","103","241292","0.0-6.0-0.17","106","2","2022-11-17 12:31:41","fd252370c17a9971d68c1d4354a03c2e","","Mozilla/5.0 (Windows NT 10.0; Win64; x64) AppleWebKit/537.36 (KHTML, like Gecko) Chrome/107.0.0.0 Safari/537.36 Edg/107.0.1418.42","WebKit","Edge","107.0.1418.42","Windows","10.0","null","null","","<p style=""font-size: 48px;"">+</p>","2","Filler","",""
"","","","","","sentence","26268","html-keyboard-response","104","248193","0.0-6.0-1.17","106","2","2022-11-17 12:31:41","fd252370c17a9971d68c1d4354a03c2e","","Mozilla/5.0 (Windows NT 10.0; Win64; x64) AppleWebKit/537.36 (KHTML, like Gecko) Chrome/107.0.0.0 Safari/537.36 Edg/107.0.1418.42","WebKit","Edge","107.0.1418.42","Windows","10.0","6883"," ","","A puppy is playing with a ball","2","Filler","",""
"","","","","","fixation","26268","html-keyboard-response","105","248719","0.0-6.0-2.17","106","2","2022-11-17 12:31:41","fd252370c17a9971d68c1d4354a03c2e","","Mozilla/5.0 (Windows NT 10.0; Win64; x64) AppleWebKit/537.36 (KHTML, like Gecko) Chrome/107.0.0.0 Safari/537.36 Edg/107.0.1418.42","WebKit","Edge","107.0.1418.42","Windows","10.0","null","null","","<p style=""font-size: 48px;"">+</p>","2","Filler","",""
"","","","","","picture","26268","image-keyboard-response","106","250746","0.0-6.0-3.17","106","2","2022-11-17 12:31:41","fd252370c17a9971d68c1d4354a03c2e","","Mozilla/5.0 (Windows NT 10.0; Win64; x64) AppleWebKit/537.36 (KHTML, like Gecko) Chrome/107.0.0.0 Safari/537.36 Edg/107.0.1418.42","WebKit","Edge","107.0.1418.42","Windows","10.0","2008","s","","tennisball.jpg","2","Filler","true",""
"","","","","","fixation","26268","html-keyboard-response","107","251775","0.0-6.0-0.18","106","2","2022-11-17 12:31:41","fd252370c17a9971d68c1d4354a03c2e","","Mozilla/5.0 (Windows NT 10.0; Win64; x64) AppleWebKit/537.36 (KHTML, like Gecko) Chrome/107.0.0.0 Safari/537.36 Edg/107.0.1418.42","WebKit","Edge","107.0.1418.42","Windows","10.0","null","null","","<p style=""font-size: 48px;"">+</p>","2","Filler","",""
"","","","","","sentence","26268","html-keyboard-response","108","253758","0.0-6.0-1.18","106","2","2022-11-17 12:31:41","fd252370c17a9971d68c1d4354a03c2e","","Mozilla/5.0 (Windows NT 10.0; Win64; x64) AppleWebKit/537.36 (KHTML, like Gecko) Chrome/107.0.0.0 Safari/537.36 Edg/107.0.1418.42","WebKit","Edge","107.0.1418.42","Windows","10.0","1966"," ","","A man is playing with a cat","2","Filler","",""
"","","","","","fixation","26268","html-keyboard-response","109","254278","0.0-6.0-2.18","106","2","2022-11-17 12:31:41","fd252370c17a9971d68c1d4354a03c2e","","Mozilla/5.0 (Windows NT 10.0; Win64; x64) AppleWebKit/537.36 (KHTML, like Gecko) Chrome/107.0.0.0 Safari/537.36 Edg/107.0.1418.42","WebKit","Edge","107.0.1418.42","Windows","10.0","null","null","","<p style=""font-size: 48px;"">+</p>","2","Filler","",""
"","","","","","picture","26268","image-keyboard-response","110","255720","0.0-6.0-3.18","106","2","2022-11-17 12:31:41","fd252370c17a9971d68c1d4354a03c2e","","Mozilla/5.0 (Windows NT 10.0; Win64; x64) AppleWebKit/537.36 (KHTML, like Gecko) Chrome/107.0.0.0 Safari/537.36 Edg/107.0.1418.42","WebKit","Edge","107.0.1418.42","Windows","10.0","1420","n","","ceramicplate.jpg","2","Filler","true",""
"","","","","","fixation","26268","html-keyboard-response","111","256752","0.0-6.0-0.19","106","2","2022-11-17 12:31:41","fd252370c17a9971d68c1d4354a03c2e","","Mozilla/5.0 (Windows NT 10.0; Win64; x64) AppleWebKit/537.36 (KHTML, like Gecko) Chrome/107.0.0.0 Safari/537.36 Edg/107.0.1418.42","WebKit","Edge","107.0.1418.42","Windows","10.0","null","null","","<p style=""font-size: 48px;"">+</p>","2","Filler","",""
"","","","","","sentence","26268","html-keyboard-response","112","259540","0.0-6.0-1.19","106","2","2022-11-17 12:31:41","fd252370c17a9971d68c1d4354a03c2e","","Mozilla/5.0 (Windows NT 10.0; Win64; x64) AppleWebKit/537.36 (KHTML, like Gecko) Chrome/107.0.0.0 Safari/537.36 Edg/107.0.1418.42","WebKit","Edge","107.0.1418.42","Windows","10.0","2771"," ","","A zebra is playing with a horse","2","Filler","",""
"","","","","","fixation","26268","html-keyboard-response","113","260063","0.0-6.0-2.19","106","2","2022-11-17 12:31:41","fd252370c17a9971d68c1d4354a03c2e","","Mozilla/5.0 (Windows NT 10.0; Win64; x64) AppleWebKit/537.36 (KHTML, like Gecko) Chrome/107.0.0.0 Safari/537.36 Edg/107.0.1418.42","WebKit","Edge","107.0.1418.42","Windows","10.0","null","null","","<p style=""font-size: 48px;"">+</p>","2","Filler","",""
"","","","","","picture","26268","image-keyboard-response","114","261359","0.0-6.0-3.19","106","2","2022-11-17 12:31:41","fd252370c17a9971d68c1d4354a03c2e","","Mozilla/5.0 (Windows NT 10.0; Win64; x64) AppleWebKit/537.36 (KHTML, like Gecko) Chrome/107.0.0.0 Safari/537.36 Edg/107.0.1418.42","WebKit","Edge","107.0.1418.42","Windows","10.0","1277","n","","watch.jpg","2","Filler","true",""
"","","","","","fixation","26268","html-keyboard-response","115","262380","0.0-6.0-0.20","106","2","2022-11-17 12:31:41","fd252370c17a9971d68c1d4354a03c2e","","Mozilla/5.0 (Windows NT 10.0; Win64; x64) AppleWebKit/537.36 (KHTML, like Gecko) Chrome/107.0.0.0 Safari/537.36 Edg/107.0.1418.42","WebKit","Edge","107.0.1418.42","Windows","10.0","null","null","","<p style=""font-size: 48px;"">+</p>","2","Filler","",""
"","","","","","sentence","26268","html-keyboard-response","116","264499","0.0-6.0-1.20","106","2","2022-11-17 12:31:41","fd252370c17a9971d68c1d4354a03c2e","","Mozilla/5.0 (Windows NT 10.0; Win64; x64) AppleWebKit/537.36 (KHTML, like Gecko) Chrome/107.0.0.0 Safari/537.36 Edg/107.0.1418.42","WebKit","Edge","107.0.1418.42","Windows","10.0","2103"," ","","A kitten is playing in the sandbox","2","Filler","",""
"","","","","","fixation","26268","html-keyboard-response","117","265017","0.0-6.0-2.20","106","2","2022-11-17 12:31:41","fd252370c17a9971d68c1d4354a03c2e","","Mozilla/5.0 (Windows NT 10.0; Win64; x64) AppleWebKit/537.36 (KHTML, like Gecko) Chrome/107.0.0.0 Safari/537.36 Edg/107.0.1418.42","WebKit","Edge","107.0.1418.42","Windows","10.0","null","null","","<p style=""font-size: 48px;"">+</p>","2","Filler","",""
"","","","","","picture","26268","image-keyboard-response","118","266989","0.0-6.0-3.20","106","2","2022-11-17 12:31:41","fd252370c17a9971d68c1d4354a03c2e","","Mozilla/5.0 (Windows NT 10.0; Win64; x64) AppleWebKit/537.36 (KHTML, like Gecko) Chrome/107.0.0.0 Safari/537.36 Edg/107.0.1418.42","WebKit","Edge","107.0.1418.42","Windows","10.0","1948","n","","dustbin.jpg","2","Filler","true",""
"","","","","","fixation","26268","html-keyboard-response","119","268013","0.0-6.0-0.21","106","2","2022-11-17 12:31:41","fd252370c17a9971d68c1d4354a03c2e","","Mozilla/5.0 (Windows NT 10.0; Win64; x64) AppleWebKit/537.36 (KHTML, like Gecko) Chrome/107.0.0.0 Safari/537.36 Edg/107.0.1418.42","WebKit","Edge","107.0.1418.42","Windows","10.0","null","null","","<p style=""font-size: 48px;"">+</p>","2","Heavy_Contradictory","",""
"","","","","","sentence","26268","html-keyboard-response","120","270485","0.0-6.0-1.21","106","2","2022-11-17 12:31:41","fd252370c17a9971d68c1d4354a03c2e","","Mozilla/5.0 (Windows NT 10.0; Win64; x64) AppleWebKit/537.36 (KHTML, like Gecko) Chrome/107.0.0.0 Safari/537.36 Edg/107.0.1418.42","WebKit","Edge","107.0.1418.42","Windows","10.0","2454"," ","","A bowling ball dropped and touched a mirror","2","Heavy_Contradictory","",""
"","","","","","fixation","26268","html-keyboard-response","121","271020","0.0-6.0-2.21","106","2","2022-11-17 12:31:41","fd252370c17a9971d68c1d4354a03c2e","","Mozilla/5.0 (Windows NT 10.0; Win64; x64) AppleWebKit/537.36 (KHTML, like Gecko) Chrome/107.0.0.0 Safari/537.36 Edg/107.0.1418.42","WebKit","Edge","107.0.1418.42","Windows","10.0","null","null","","<p style=""font-size: 48px;"">+</p>","2","Heavy_Contradictory","",""
"","","","","","picture","26268","image-keyboard-response","122","272357","0.0-6.0-3.21","106","2","2022-11-17 12:31:41","fd252370c17a9971d68c1d4354a03c2e","","Mozilla/5.0 (Windows NT 10.0; Win64; x64) AppleWebKit/537.36 (KHTML, like Gecko) Chrome/107.0.0.0 Safari/537.36 Edg/107.0.1418.42","WebKit","Edge","107.0.1418.42","Windows","10.0","1318","s","","mirrorS.jpg","2","Heavy_Contradictory","true",""
"","","","","","fixation","26268","html-keyboard-response","123","273377","0.0-6.0-0.22","106","2","2022-11-17 12:31:41","fd252370c17a9971d68c1d4354a03c2e","","Mozilla/5.0 (Windows NT 10.0; Win64; x64) AppleWebKit/537.36 (KHTML, like Gecko) Chrome/107.0.0.0 Safari/537.36 Edg/107.0.1418.42","WebKit","Edge","107.0.1418.42","Windows","10.0","null","null","","<p style=""font-size: 48px;"">+</p>","2","Light_Matched","",""
"","","","","","sentence","26268","html-keyboard-response","124","274875","0.0-6.0-1.22","106","2","2022-11-17 12:31:41","fd252370c17a9971d68c1d4354a03c2e","","Mozilla/5.0 (Windows NT 10.0; Win64; x64) AppleWebKit/537.36 (KHTML, like Gecko) Chrome/107.0.0.0 Safari/537.36 Edg/107.0.1418.42","WebKit","Edge","107.0.1418.42","Windows","10.0","1480"," ","","A balloon dropped and touched a vase","2","Light_Matched","",""
"","","","","","fixation","26268","html-keyboard-response","125","275410","0.0-6.0-2.22","106","2","2022-11-17 12:31:41","fd252370c17a9971d68c1d4354a03c2e","","Mozilla/5.0 (Windows NT 10.0; Win64; x64) AppleWebKit/537.36 (KHTML, like Gecko) Chrome/107.0.0.0 Safari/537.36 Edg/107.0.1418.42","WebKit","Edge","107.0.1418.42","Windows","10.0","null","null","","<p style=""font-size: 48px;"">+</p>","2","Light_Matched","",""
"","","","","","picture","26268","image-keyboard-response","126","276403","0.0-6.0-3.22","106","2","2022-11-17 12:31:41","fd252370c17a9971d68c1d4354a03c2e","","Mozilla/5.0 (Windows NT 10.0; Win64; x64) AppleWebKit/537.36 (KHTML, like Gecko) Chrome/107.0.0.0 Safari/537.36 Edg/107.0.1418.42","WebKit","Edge","107.0.1418.42","Windows","10.0","972","s","","vaseS.jpg","2","Light_Matched","true",""
"","","","","","fixation","26268","html-keyboard-response","127","277429","0.0-6.0-0.23","106","2","2022-11-17 12:31:41","fd252370c17a9971d68c1d4354a03c2e","","Mozilla/5.0 (Windows NT 10.0; Win64; x64) AppleWebKit/537.36 (KHTML, like Gecko) Chrome/107.0.0.0 Safari/537.36 Edg/107.0.1418.42","WebKit","Edge","107.0.1418.42","Windows","10.0","null","null","","<p style=""font-size: 48px;"">+</p>","2","Filler","",""
"","","","","","sentence","26268","html-keyboard-response","128","278957","0.0-6.0-1.23","106","2","2022-11-17 12:31:41","fd252370c17a9971d68c1d4354a03c2e","","Mozilla/5.0 (Windows NT 10.0; Win64; x64) AppleWebKit/537.36 (KHTML, like Gecko) Chrome/107.0.0.0 Safari/537.36 Edg/107.0.1418.42","WebKit","Edge","107.0.1418.42","Windows","10.0","1510"," ","","A student is writing on a board","2","Filler","",""
"","","","","","fixation","26268","html-keyboard-response","129","279475","0.0-6.0-2.23","106","2","2022-11-17 12:31:41","fd252370c17a9971d68c1d4354a03c2e","","Mozilla/5.0 (Windows NT 10.0; Win64; x64) AppleWebKit/537.36 (KHTML, like Gecko) Chrome/107.0.0.0 Safari/537.36 Edg/107.0.1418.42","WebKit","Edge","107.0.1418.42","Windows","10.0","null","null","","<p style=""font-size: 48px;"">+</p>","2","Filler","",""
"","","","","","picture","26268","image-keyboard-response","130","280661","0.0-6.0-3.23","106","2","2022-11-17 12:31:41","fd252370c17a9971d68c1d4354a03c2e","","Mozilla/5.0 (Windows NT 10.0; Win64; x64) AppleWebKit/537.36 (KHTML, like Gecko) Chrome/107.0.0.0 Safari/537.36 Edg/107.0.1418.42","WebKit","Edge","107.0.1418.42","Windows","10.0","1166","n","","owl.jpg","2","Filler","true",""
"","","","","","fixation","26268","html-keyboard-response","131","282294","0.0-6.0-0.24","106","2","2022-11-17 12:31:41","fd252370c17a9971d68c1d4354a03c2e","","Mozilla/5.0 (Windows NT 10.0; Win64; x64) AppleWebKit/537.36 (KHTML, like Gecko) Chrome/107.0.0.0 Safari/537.36 Edg/107.0.1418.42","WebKit","Edge","107.0.1418.42","Windows","10.0","null","null","","<p style=""font-size: 48px;"">+</p>","2","Filler","",""
"","","","","","sentence","26268","html-keyboard-response","132","283408","0.0-6.0-1.24","106","2","2022-11-17 12:31:41","fd252370c17a9971d68c1d4354a03c2e","","Mozilla/5.0 (Windows NT 10.0; Win64; x64) AppleWebKit/537.36 (KHTML, like Gecko) Chrome/107.0.0.0 Safari/537.36 Edg/107.0.1418.42","WebKit","Edge","107.0.1418.42","Windows","10.0","1096"," ","","A donkey is drinking water.","2","Filler","",""
"","","","","","fixation","26268","html-keyboard-response","133","283929","0.0-6.0-2.24","106","2","2022-11-17 12:31:41","fd252370c17a9971d68c1d4354a03c2e","","Mozilla/5.0 (Windows NT 10.0; Win64; x64) AppleWebKit/537.36 (KHTML, like Gecko) Chrome/107.0.0.0 Safari/537.36 Edg/107.0.1418.42","WebKit","Edge","107.0.1418.42","Windows","10.0","null","null","","<p style=""font-size: 48px;"">+</p>","2","Filler","",""
"","","","","","picture","26268","image-keyboard-response","134","285094","0.0-6.0-3.24","106","2","2022-11-17 12:31:41","fd252370c17a9971d68c1d4354a03c2e","","Mozilla/5.0 (Windows NT 10.0; Win64; x64) AppleWebKit/537.36 (KHTML, like Gecko) Chrome/107.0.0.0 Safari/537.36 Edg/107.0.1418.42","WebKit","Edge","107.0.1418.42","Windows","10.0","1143","n","","couch.jpg","2","Filler","true",""
"","","","","","fixation","26268","html-keyboard-response","135","286129","0.0-6.0-0.25","106","2","2022-11-17 12:31:41","fd252370c17a9971d68c1d4354a03c2e","","Mozilla/5.0 (Windows NT 10.0; Win64; x64) AppleWebKit/537.36 (KHTML, like Gecko) Chrome/107.0.0.0 Safari/537.36 Edg/107.0.1418.42","WebKit","Edge","107.0.1418.42","Windows","10.0","null","null","","<p style=""font-size: 48px;"">+</p>","2","Heavy_Contradictory","",""
"","","","","","sentence","26268","html-keyboard-response","136","288620","0.0-6.0-1.25","106","2","2022-11-17 12:31:41","fd252370c17a9971d68c1d4354a03c2e","","Mozilla/5.0 (Windows NT 10.0; Win64; x64) AppleWebKit/537.36 (KHTML, like Gecko) Chrome/107.0.0.0 Safari/537.36 Edg/107.0.1418.42","WebKit","Edge","107.0.1418.42","Windows","10.0","2474"," ","","A bowling ball dropped and touched a chocolate muffin","2","Heavy_Contradictory","",""
"","","","","","fixation","26268","html-keyboard-response","137","289148","0.0-6.0-2.25","106","2","2022-11-17 12:31:41","fd252370c17a9971d68c1d4354a03c2e","","Mozilla/5.0 (Windows NT 10.0; Win64; x64) AppleWebKit/537.36 (KHTML, like Gecko) Chrome/107.0.0.0 Safari/537.36 Edg/107.0.1418.42","WebKit","Edge","107.0.1418.42","Windows","10.0","null","null","","<p style=""font-size: 48px;"">+</p>","2","Heavy_Contradictory","",""
"","","","","","picture","26268","image-keyboard-response","138","290372","0.0-6.0-3.25","106","2","2022-11-17 12:31:41","fd252370c17a9971d68c1d4354a03c2e","","Mozilla/5.0 (Windows NT 10.0; Win64; x64) AppleWebKit/537.36 (KHTML, like Gecko) Chrome/107.0.0.0 Safari/537.36 Edg/107.0.1418.42","WebKit","Edge","107.0.1418.42","Windows","10.0","1198","s","","muffinS.jpg","2","Heavy_Contradictory","true",""
"","","","","","fixation","26268","html-keyboard-response","139","291396","0.0-6.0-0.26","106","2","2022-11-17 12:31:41","fd252370c17a9971d68c1d4354a03c2e","","Mozilla/5.0 (Windows NT 10.0; Win64; x64) AppleWebKit/537.36 (KHTML, like Gecko) Chrome/107.0.0.0 Safari/537.36 Edg/107.0.1418.42","WebKit","Edge","107.0.1418.42","Windows","10.0","null","null","","<p style=""font-size: 48px;"">+</p>","2","Filler","",""
"","","","","","sentence","26268","html-keyboard-response","140","293430","0.0-6.0-1.26","106","2","2022-11-17 12:31:41","fd252370c17a9971d68c1d4354a03c2e","","Mozilla/5.0 (Windows NT 10.0; Win64; x64) AppleWebKit/537.36 (KHTML, like Gecko) Chrome/107.0.0.0 Safari/537.36 Edg/107.0.1418.42","WebKit","Edge","107.0.1418.42","Windows","10.0","2026"," ","","A mouse is eating cheese","2","Filler","",""
"","","","","","fixation","26268","html-keyboard-response","141","294293","0.0-6.0-2.26","106","2","2022-11-17 12:31:41","fd252370c17a9971d68c1d4354a03c2e","","Mozilla/5.0 (Windows NT 10.0; Win64; x64) AppleWebKit/537.36 (KHTML, like Gecko) Chrome/107.0.0.0 Safari/537.36 Edg/107.0.1418.42","WebKit","Edge","107.0.1418.42","Windows","10.0","null","null","","<p style=""font-size: 48px;"">+</p>","2","Filler","",""
"","","","","","picture","26268","image-keyboard-response","142","295410","0.0-6.0-3.26","106","2","2022-11-17 12:31:41","fd252370c17a9971d68c1d4354a03c2e","","Mozilla/5.0 (Windows NT 10.0; Win64; x64) AppleWebKit/537.36 (KHTML, like Gecko) Chrome/107.0.0.0 Safari/537.36 Edg/107.0.1418.42","WebKit","Edge","107.0.1418.42","Windows","10.0","1094","n","","ring.jpg","2","Filler","true",""
"","","","","","fixation","26268","html-keyboard-response","143","296460","0.0-6.0-0.27","106","2","2022-11-17 12:31:41","fd252370c17a9971d68c1d4354a03c2e","","Mozilla/5.0 (Windows NT 10.0; Win64; x64) AppleWebKit/537.36 (KHTML, like Gecko) Chrome/107.0.0.0 Safari/537.36 Edg/107.0.1418.42","WebKit","Edge","107.0.1418.42","Windows","10.0","null","null","","<p style=""font-size: 48px;"">+</p>","2","Filler","",""
"","","","","","sentence","26268","html-keyboard-response","144","298890","0.0-6.0-1.27","106","2","2022-11-17 12:31:41","fd252370c17a9971d68c1d4354a03c2e","","Mozilla/5.0 (Windows NT 10.0; Win64; x64) AppleWebKit/537.36 (KHTML, like Gecko) Chrome/107.0.0.0 Safari/537.36 Edg/107.0.1418.42","WebKit","Edge","107.0.1418.42","Windows","10.0","2418"," ","","A woman is taking money out of a wallet","2","Filler","",""
"","","","","","fixation","26268","html-keyboard-response","145","299410","0.0-6.0-2.27","106","2","2022-11-17 12:31:41","fd252370c17a9971d68c1d4354a03c2e","","Mozilla/5.0 (Windows NT 10.0; Win64; x64) AppleWebKit/537.36 (KHTML, like Gecko) Chrome/107.0.0.0 Safari/537.36 Edg/107.0.1418.42","WebKit","Edge","107.0.1418.42","Windows","10.0","null","null","","<p style=""font-size: 48px;"">+</p>","2","Filler","",""
"","","","","","picture","26268","image-keyboard-response","146","300546","0.0-6.0-3.27","106","2","2022-11-17 12:31:41","fd252370c17a9971d68c1d4354a03c2e","","Mozilla/5.0 (Windows NT 10.0; Win64; x64) AppleWebKit/537.36 (KHTML, like Gecko) Chrome/107.0.0.0 Safari/537.36 Edg/107.0.1418.42","WebKit","Edge","107.0.1418.42","Windows","10.0","1126","n","","coconut.jpg","2","Filler","true",""
"","","","","","fixation","26268","html-keyboard-response","147","301569","0.0-6.0-0.28","106","2","2022-11-17 12:31:41","fd252370c17a9971d68c1d4354a03c2e","","Mozilla/5.0 (Windows NT 10.0; Win64; x64) AppleWebKit/537.36 (KHTML, like Gecko) Chrome/107.0.0.0 Safari/537.36 Edg/107.0.1418.42","WebKit","Edge","107.0.1418.42","Windows","10.0","null","null","","<p style=""font-size: 48px;"">+</p>","2","Light_Matched","",""
"","","","","","sentence","26268","html-keyboard-response","148","302761","0.0-6.0-1.28","106","2","2022-11-17 12:31:41","fd252370c17a9971d68c1d4354a03c2e","","Mozilla/5.0 (Windows NT 10.0; Win64; x64) AppleWebKit/537.36 (KHTML, like Gecko) Chrome/107.0.0.0 Safari/537.36 Edg/107.0.1418.42","WebKit","Edge","107.0.1418.42","Windows","10.0","1183"," ","","A balloon dropped and touched a strawberry","2","Light_Matched","",""
"","","","","","fixation","26268","html-keyboard-response","149","303281","0.0-6.0-2.28","106","2","2022-11-17 12:31:41","fd252370c17a9971d68c1d4354a03c2e","","Mozilla/5.0 (Windows NT 10.0; Win64; x64) AppleWebKit/537.36 (KHTML, like Gecko) Chrome/107.0.0.0 Safari/537.36 Edg/107.0.1418.42","WebKit","Edge","107.0.1418.42","Windows","10.0","null","null","","<p style=""font-size: 48px;"">+</p>","2","Light_Matched","",""
"","","","","","picture","26268","image-keyboard-response","150","304571","0.0-6.0-3.28","106","2","2022-11-17 12:31:41","fd252370c17a9971d68c1d4354a03c2e","","Mozilla/5.0 (Windows NT 10.0; Win64; x64) AppleWebKit/537.36 (KHTML, like Gecko) Chrome/107.0.0.0 Safari/537.36 Edg/107.0.1418.42","WebKit","Edge","107.0.1418.42","Windows","10.0","1265","s","","strawberryS.jpg","2","Light_Matched","true",""
"","","","","","fixation","26268","html-keyboard-response","151","306280","0.0-6.0-0.29","106","2","2022-11-17 12:31:41","fd252370c17a9971d68c1d4354a03c2e","","Mozilla/5.0 (Windows NT 10.0; Win64; x64) AppleWebKit/537.36 (KHTML, like Gecko) Chrome/107.0.0.0 Safari/537.36 Edg/107.0.1418.42","WebKit","Edge","107.0.1418.42","Windows","10.0","null","null","","<p style=""font-size: 48px;"">+</p>","2","Heavy_Contradictory","",""
"","","","","","sentence","26268","html-keyboard-response","152","307994","0.0-6.0-1.29","106","2","2022-11-17 12:31:41","fd252370c17a9971d68c1d4354a03c2e","","Mozilla/5.0 (Windows NT 10.0; Win64; x64) AppleWebKit/537.36 (KHTML, like Gecko) Chrome/107.0.0.0 Safari/537.36 Edg/107.0.1418.42","WebKit","Edge","107.0.1418.42","Windows","10.0","1692"," ","","A bowling ball dropped and touched a light bulb","2","Heavy_Contradictory","",""
"","","","","","fixation","26268","html-keyboard-response","153","308515","0.0-6.0-2.29","106","2","2022-11-17 12:31:41","fd252370c17a9971d68c1d4354a03c2e","","Mozilla/5.0 (Windows NT 10.0; Win64; x64) AppleWebKit/537.36 (KHTML, like Gecko) Chrome/107.0.0.0 Safari/537.36 Edg/107.0.1418.42","WebKit","Edge","107.0.1418.42","Windows","10.0","null","null","","<p style=""font-size: 48px;"">+</p>","2","Heavy_Contradictory","",""
"","","","","","picture","26268","image-keyboard-response","154","309804","0.0-6.0-3.29","106","2","2022-11-17 12:31:41","fd252370c17a9971d68c1d4354a03c2e","","Mozilla/5.0 (Windows NT 10.0; Win64; x64) AppleWebKit/537.36 (KHTML, like Gecko) Chrome/107.0.0.0 Safari/537.36 Edg/107.0.1418.42","WebKit","Edge","107.0.1418.42","Windows","10.0","1265","s","","lampS.jpg","2","Heavy_Contradictory","true",""
"","","","","","fixation","26268","html-keyboard-response","155","310846","0.0-6.0-0.30","106","2","2022-11-17 12:31:41","fd252370c17a9971d68c1d4354a03c2e","","Mozilla/5.0 (Windows NT 10.0; Win64; x64) AppleWebKit/537.36 (KHTML, like Gecko) Chrome/107.0.0.0 Safari/537.36 Edg/107.0.1418.42","WebKit","Edge","107.0.1418.42","Windows","10.0","null","null","","<p style=""font-size: 48px;"">+</p>","2","Filler","",""
"","","","","","sentence","26268","html-keyboard-response","156","312457","0.0-6.0-1.30","106","2","2022-11-17 12:31:41","fd252370c17a9971d68c1d4354a03c2e","","Mozilla/5.0 (Windows NT 10.0; Win64; x64) AppleWebKit/537.36 (KHTML, like Gecko) Chrome/107.0.0.0 Safari/537.36 Edg/107.0.1418.42","WebKit","Edge","107.0.1418.42","Windows","10.0","1591"," ","","A cat is drinking water from a bowl","2","Filler","",""
"","","","","","fixation","26268","html-keyboard-response","157","312988","0.0-6.0-2.30","106","2","2022-11-17 12:31:41","fd252370c17a9971d68c1d4354a03c2e","","Mozilla/5.0 (Windows NT 10.0; Win64; x64) AppleWebKit/537.36 (KHTML, like Gecko) Chrome/107.0.0.0 Safari/537.36 Edg/107.0.1418.42","WebKit","Edge","107.0.1418.42","Windows","10.0","null","null","","<p style=""font-size: 48px;"">+</p>","2","Filler","",""
"","","","","","picture","26268","image-keyboard-response","158","314216","0.0-6.0-3.30","106","2","2022-11-17 12:31:41","fd252370c17a9971d68c1d4354a03c2e","","Mozilla/5.0 (Windows NT 10.0; Win64; x64) AppleWebKit/537.36 (KHTML, like Gecko) Chrome/107.0.0.0 Safari/537.36 Edg/107.0.1418.42","WebKit","Edge","107.0.1418.42","Windows","10.0","1205","s","","bowl.jpg","2","Filler","true",""
"","","","","","fixation","26268","html-keyboard-response","159","315240","0.0-6.0-0.31","106","2","2022-11-17 12:31:41","fd252370c17a9971d68c1d4354a03c2e","","Mozilla/5.0 (Windows NT 10.0; Win64; x64) AppleWebKit/537.36 (KHTML, like Gecko) Chrome/107.0.0.0 Safari/537.36 Edg/107.0.1418.42","WebKit","Edge","107.0.1418.42","Windows","10.0","null","null","","<p style=""font-size: 48px;"">+</p>","2","Filler","",""
"","","","","","sentence","26268","html-keyboard-response","160","317299","0.0-6.0-1.31","106","2","2022-11-17 12:31:41","fd252370c17a9971d68c1d4354a03c2e","","Mozilla/5.0 (Windows NT 10.0; Win64; x64) AppleWebKit/537.36 (KHTML, like Gecko) Chrome/107.0.0.0 Safari/537.36 Edg/107.0.1418.42","WebKit","Edge","107.0.1418.42","Windows","10.0","2037"," ","","A president is writing in the notebook","2","Filler","",""
"","","","","","fixation","26268","html-keyboard-response","161","317830","0.0-6.0-2.31","106","2","2022-11-17 12:31:41","fd252370c17a9971d68c1d4354a03c2e","","Mozilla/5.0 (Windows NT 10.0; Win64; x64) AppleWebKit/537.36 (KHTML, like Gecko) Chrome/107.0.0.0 Safari/537.36 Edg/107.0.1418.42","WebKit","Edge","107.0.1418.42","Windows","10.0","null","null","","<p style=""font-size: 48px;"">+</p>","2","Filler","",""
"","","","","","picture","26268","image-keyboard-response","162","319057","0.0-6.0-3.31","106","2","2022-11-17 12:31:41","fd252370c17a9971d68c1d4354a03c2e","","Mozilla/5.0 (Windows NT 10.0; Win64; x64) AppleWebKit/537.36 (KHTML, like Gecko) Chrome/107.0.0.0 Safari/537.36 Edg/107.0.1418.42","WebKit","Edge","107.0.1418.42","Windows","10.0","1202","n","","can.jpg","2","Filler","true",""
"","","","","","fixation","26268","html-keyboard-response","163","320285","0.0-6.0-0.32","106","2","2022-11-17 12:31:41","fd252370c17a9971d68c1d4354a03c2e","","Mozilla/5.0 (Windows NT 10.0; Win64; x64) AppleWebKit/537.36 (KHTML, like Gecko) Chrome/107.0.0.0 Safari/537.36 Edg/107.0.1418.42","WebKit","Edge","107.0.1418.42","Windows","10.0","null","null","","<p style=""font-size: 48px;"">+</p>","2","Filler","",""
"","","","","","sentence","26268","html-keyboard-response","164","322109","0.0-6.0-1.32","106","2","2022-11-17 12:31:41","fd252370c17a9971d68c1d4354a03c2e","","Mozilla/5.0 (Windows NT 10.0; Win64; x64) AppleWebKit/537.36 (KHTML, like Gecko) Chrome/107.0.0.0 Safari/537.36 Edg/107.0.1418.42","WebKit","Edge","107.0.1418.42","Windows","10.0","1798"," ","","A pencil was placed on the shoe","2","Filler","",""
"","","","","","fixation","26268","html-keyboard-response","165","322644","0.0-6.0-2.32","106","2","2022-11-17 12:31:41","fd252370c17a9971d68c1d4354a03c2e","","Mozilla/5.0 (Windows NT 10.0; Win64; x64) AppleWebKit/537.36 (KHTML, like Gecko) Chrome/107.0.0.0 Safari/537.36 Edg/107.0.1418.42","WebKit","Edge","107.0.1418.42","Windows","10.0","null","null","","<p style=""font-size: 48px;"">+</p>","2","Filler","",""
"","","","","","picture","26268","image-keyboard-response","166","323868","0.0-6.0-3.32","106","2","2022-11-17 12:31:41","fd252370c17a9971d68c1d4354a03c2e","","Mozilla/5.0 (Windows NT 10.0; Win64; x64) AppleWebKit/537.36 (KHTML, like Gecko) Chrome/107.0.0.0 Safari/537.36 Edg/107.0.1418.42","WebKit","Edge","107.0.1418.42","Windows","10.0","1173","n","","perfume.jpg","2","Filler","true",""
"","","","","","fixation","26268","html-keyboard-response","167","324906","0.0-6.0-0.33","106","2","2022-11-17 12:31:41","fd252370c17a9971d68c1d4354a03c2e","","Mozilla/5.0 (Windows NT 10.0; Win64; x64) AppleWebKit/537.36 (KHTML, like Gecko) Chrome/107.0.0.0 Safari/537.36 Edg/107.0.1418.42","WebKit","Edge","107.0.1418.42","Windows","10.0","null","null","","<p style=""font-size: 48px;"">+</p>","2","Light_Contradictory","",""
"","","","","","sentence","26268","html-keyboard-response","168","326533","0.0-6.0-1.33","106","2","2022-11-17 12:31:41","fd252370c17a9971d68c1d4354a03c2e","","Mozilla/5.0 (Windows NT 10.0; Win64; x64) AppleWebKit/537.36 (KHTML, like Gecko) Chrome/107.0.0.0 Safari/537.36 Edg/107.0.1418.42","WebKit","Edge","107.0.1418.42","Windows","10.0","1606"," ","","A balloon dropped and smashed a wineglass","2","Light_Contradictory","",""
"","","","","","fixation","26268","html-keyboard-response","169","327055","0.0-6.0-2.33","106","2","2022-11-17 12:31:41","fd252370c17a9971d68c1d4354a03c2e","","Mozilla/5.0 (Windows NT 10.0; Win64; x64) AppleWebKit/537.36 (KHTML, like Gecko) Chrome/107.0.0.0 Safari/537.36 Edg/107.0.1418.42","WebKit","Edge","107.0.1418.42","Windows","10.0","null","null","","<p style=""font-size: 48px;"">+</p>","2","Light_Contradictory","",""
"","","","","","picture","26268","image-keyboard-response","170","328244","0.0-6.0-3.33","106","2","2022-11-17 12:31:41","fd252370c17a9971d68c1d4354a03c2e","","Mozilla/5.0 (Windows NT 10.0; Win64; x64) AppleWebKit/537.36 (KHTML, like Gecko) Chrome/107.0.0.0 Safari/537.36 Edg/107.0.1418.42","WebKit","Edge","107.0.1418.42","Windows","10.0","1165","s","","wineglassS.jpg","2","Light_Contradictory","true",""
"","","","","","fixation","26268","html-keyboard-response","171","329282","0.0-6.0-0.34","106","2","2022-11-17 12:31:41","fd252370c17a9971d68c1d4354a03c2e","","Mozilla/5.0 (Windows NT 10.0; Win64; x64) AppleWebKit/537.36 (KHTML, like Gecko) Chrome/107.0.0.0 Safari/537.36 Edg/107.0.1418.42","WebKit","Edge","107.0.1418.42","Windows","10.0","null","null","","<p style=""font-size: 48px;"">+</p>","2","Heavy_Matched","",""
"","","","","","sentence","26268","html-keyboard-response","172","330926","0.0-6.0-1.34","106","2","2022-11-17 12:31:41","fd252370c17a9971d68c1d4354a03c2e","","Mozilla/5.0 (Windows NT 10.0; Win64; x64) AppleWebKit/537.36 (KHTML, like Gecko) Chrome/107.0.0.0 Safari/537.36 Edg/107.0.1418.42","WebKit","Edge","107.0.1418.42","Windows","10.0","1622"," ","","A bowling ball dropped and smashed glasses","2","Heavy_Matched","",""
"","","","","","fixation","26268","html-keyboard-response","173","331458","0.0-6.0-2.34","106","2","2022-11-17 12:31:41","fd252370c17a9971d68c1d4354a03c2e","","Mozilla/5.0 (Windows NT 10.0; Win64; x64) AppleWebKit/537.36 (KHTML, like Gecko) Chrome/107.0.0.0 Safari/537.36 Edg/107.0.1418.42","WebKit","Edge","107.0.1418.42","Windows","10.0","null","null","","<p style=""font-size: 48px;"">+</p>","2","Heavy_Matched","",""
"","","","","","picture","26268","image-keyboard-response","174","333116","0.0-6.0-3.34","106","2","2022-11-17 12:31:41","fd252370c17a9971d68c1d4354a03c2e","","Mozilla/5.0 (Windows NT 10.0; Win64; x64) AppleWebKit/537.36 (KHTML, like Gecko) Chrome/107.0.0.0 Safari/537.36 Edg/107.0.1418.42","WebKit","Edge","107.0.1418.42","Windows","10.0","1634","n","","glassesS.jpg","2","Heavy_Matched","false",""
"","","","","","fixation","26268","html-keyboard-response","175","334286","0.0-6.0-0.35","106","2","2022-11-17 12:31:41","fd252370c17a9971d68c1d4354a03c2e","","Mozilla/5.0 (Windows NT 10.0; Win64; x64) AppleWebKit/537.36 (KHTML, like Gecko) Chrome/107.0.0.0 Safari/537.36 Edg/107.0.1418.42","WebKit","Edge","107.0.1418.42","Windows","10.0","null","null","","<p style=""font-size: 48px;"">+</p>","2","Filler","",""
"","","","","","sentence","26268","html-keyboard-response","176","336233","0.0-6.0-1.35","106","2","2022-11-17 12:31:41","fd252370c17a9971d68c1d4354a03c2e","","Mozilla/5.0 (Windows NT 10.0; Win64; x64) AppleWebKit/537.36 (KHTML, like Gecko) Chrome/107.0.0.0 Safari/537.36 Edg/107.0.1418.42","WebKit","Edge","107.0.1418.42","Windows","10.0","1925"," ","","A pilot is reading a book","2","Filler","",""
"","","","","","fixation","26268","html-keyboard-response","177","336773","0.0-6.0-2.35","106","2","2022-11-17 12:31:41","fd252370c17a9971d68c1d4354a03c2e","","Mozilla/5.0 (Windows NT 10.0; Win64; x64) AppleWebKit/537.36 (KHTML, like Gecko) Chrome/107.0.0.0 Safari/537.36 Edg/107.0.1418.42","WebKit","Edge","107.0.1418.42","Windows","10.0","null","null","","<p style=""font-size: 48px;"">+</p>","2","Filler","",""
"","","","","","picture","26268","image-keyboard-response","178","338387","0.0-6.0-3.35","106","2","2022-11-17 12:31:41","fd252370c17a9971d68c1d4354a03c2e","","Mozilla/5.0 (Windows NT 10.0; Win64; x64) AppleWebKit/537.36 (KHTML, like Gecko) Chrome/107.0.0.0 Safari/537.36 Edg/107.0.1418.42","WebKit","Edge","107.0.1418.42","Windows","10.0","1590","n","","spoon.jpg","2","Filler","true",""
"","","","","","fixation","26268","html-keyboard-response","179","339420","0.0-6.0-0.36","106","2","2022-11-17 12:31:41","fd252370c17a9971d68c1d4354a03c2e","","Mozilla/5.0 (Windows NT 10.0; Win64; x64) AppleWebKit/537.36 (KHTML, like Gecko) Chrome/107.0.0.0 Safari/537.36 Edg/107.0.1418.42","WebKit","Edge","107.0.1418.42","Windows","10.0","null","null","","<p style=""font-size: 48px;"">+</p>","2","Filler","",""
"","","","","","sentence","26268","html-keyboard-response","180","341507","0.0-6.0-1.36","106","2","2022-11-17 12:31:41","fd252370c17a9971d68c1d4354a03c2e","","Mozilla/5.0 (Windows NT 10.0; Win64; x64) AppleWebKit/537.36 (KHTML, like Gecko) Chrome/107.0.0.0 Safari/537.36 Edg/107.0.1418.42","WebKit","Edge","107.0.1418.42","Windows","10.0","2066"," ","","An astronaut is putting on a space suit","2","Filler","",""
"","","","","","fixation","26268","html-keyboard-response","181","342046","0.0-6.0-2.36","106","2","2022-11-17 12:31:41","fd252370c17a9971d68c1d4354a03c2e","","Mozilla/5.0 (Windows NT 10.0; Win64; x64) AppleWebKit/537.36 (KHTML, like Gecko) Chrome/107.0.0.0 Safari/537.36 Edg/107.0.1418.42","WebKit","Edge","107.0.1418.42","Windows","10.0","null","null","","<p style=""font-size: 48px;"">+</p>","2","Filler","",""
"","","","","","picture","26268","image-keyboard-response","182","343264","0.0-6.0-3.36","106","2","2022-11-17 12:31:41","fd252370c17a9971d68c1d4354a03c2e","","Mozilla/5.0 (Windows NT 10.0; Win64; x64) AppleWebKit/537.36 (KHTML, like Gecko) Chrome/107.0.0.0 Safari/537.36 Edg/107.0.1418.42","WebKit","Edge","107.0.1418.42","Windows","10.0","1196","s","","spacesuit.jpg","2","Filler","true",""
"","","","","","fixation","26268","html-keyboard-response","183","344289","0.0-6.0-0.37","106","2","2022-11-17 12:31:41","fd252370c17a9971d68c1d4354a03c2e","","Mozilla/5.0 (Windows NT 10.0; Win64; x64) AppleWebKit/537.36 (KHTML, like Gecko) Chrome/107.0.0.0 Safari/537.36 Edg/107.0.1418.42","WebKit","Edge","107.0.1418.42","Windows","10.0","null","null","","<p style=""font-size: 48px;"">+</p>","2","Filler","",""
"","","","","","sentence","26268","html-keyboard-response","184","345807","0.0-6.0-1.37","106","2","2022-11-17 12:31:41","fd252370c17a9971d68c1d4354a03c2e","","Mozilla/5.0 (Windows NT 10.0; Win64; x64) AppleWebKit/537.36 (KHTML, like Gecko) Chrome/107.0.0.0 Safari/537.36 Edg/107.0.1418.42","WebKit","Edge","107.0.1418.42","Windows","10.0","1496"," ","","A boy is wearing a hat","2","Filler","",""
"","","","","","fixation","26268","html-keyboard-response","185","346345","0.0-6.0-2.37","106","2","2022-11-17 12:31:41","fd252370c17a9971d68c1d4354a03c2e","","Mozilla/5.0 (Windows NT 10.0; Win64; x64) AppleWebKit/537.36 (KHTML, like Gecko) Chrome/107.0.0.0 Safari/537.36 Edg/107.0.1418.42","WebKit","Edge","107.0.1418.42","Windows","10.0","null","null","","<p style=""font-size: 48px;"">+</p>","2","Filler","",""
"","","","","","picture","26268","image-keyboard-response","186","347538","0.0-6.0-3.37","106","2","2022-11-17 12:31:41","fd252370c17a9971d68c1d4354a03c2e","","Mozilla/5.0 (Windows NT 10.0; Win64; x64) AppleWebKit/537.36 (KHTML, like Gecko) Chrome/107.0.0.0 Safari/537.36 Edg/107.0.1418.42","WebKit","Edge","107.0.1418.42","Windows","10.0","1167","s","","hat.jpg","2","Filler","true",""
"","","","","","fixation","26268","html-keyboard-response","187","348577","0.0-6.0-0.38","106","2","2022-11-17 12:31:41","fd252370c17a9971d68c1d4354a03c2e","","Mozilla/5.0 (Windows NT 10.0; Win64; x64) AppleWebKit/537.36 (KHTML, like Gecko) Chrome/107.0.0.0 Safari/537.36 Edg/107.0.1418.42","WebKit","Edge","107.0.1418.42","Windows","10.0","null","null","","<p style=""font-size: 48px;"">+</p>","2","Filler","",""
"","","","","","sentence","26268","html-keyboard-response","188","350117","0.0-6.0-1.38","106","2","2022-11-17 12:31:41","fd252370c17a9971d68c1d4354a03c2e","","Mozilla/5.0 (Windows NT 10.0; Win64; x64) AppleWebKit/537.36 (KHTML, like Gecko) Chrome/107.0.0.0 Safari/537.36 Edg/107.0.1418.42","WebKit","Edge","107.0.1418.42","Windows","10.0","1518"," ","","A keyboard was placed on the bed","2","Filler","",""
"","","","","","fixation","26268","html-keyboard-response","189","350659","0.0-6.0-2.38","106","2","2022-11-17 12:31:41","fd252370c17a9971d68c1d4354a03c2e","","Mozilla/5.0 (Windows NT 10.0; Win64; x64) AppleWebKit/537.36 (KHTML, like Gecko) Chrome/107.0.0.0 Safari/537.36 Edg/107.0.1418.42","WebKit","Edge","107.0.1418.42","Windows","10.0","null","null","","<p style=""font-size: 48px;"">+</p>","2","Filler","",""
"","","","","","picture","26268","image-keyboard-response","190","351856","0.0-6.0-3.38","106","2","2022-11-17 12:31:41","fd252370c17a9971d68c1d4354a03c2e","","Mozilla/5.0 (Windows NT 10.0; Win64; x64) AppleWebKit/537.36 (KHTML, like Gecko) Chrome/107.0.0.0 Safari/537.36 Edg/107.0.1418.42","WebKit","Edge","107.0.1418.42","Windows","10.0","1174","n","","bottlecap.jpg","2","Filler","true",""
"","","","","","fixation","26268","html-keyboard-response","191","353278","0.0-6.0-0.39","106","2","2022-11-17 12:31:41","fd252370c17a9971d68c1d4354a03c2e","","Mozilla/5.0 (Windows NT 10.0; Win64; x64) AppleWebKit/537.36 (KHTML, like Gecko) Chrome/107.0.0.0 Safari/537.36 Edg/107.0.1418.42","WebKit","Edge","107.0.1418.42","Windows","10.0","null","null","","<p style=""font-size: 48px;"">+</p>","2","Filler","",""
"","","","","","sentence","26268","html-keyboard-response","192","354412","0.0-6.0-1.39","106","2","2022-11-17 12:31:41","fd252370c17a9971d68c1d4354a03c2e","","Mozilla/5.0 (Windows NT 10.0; Win64; x64) AppleWebKit/537.36 (KHTML, like Gecko) Chrome/107.0.0.0 Safari/537.36 Edg/107.0.1418.42","WebKit","Edge","107.0.1418.42","Windows","10.0","1108"," ","","A panda is resting on a tree","2","Filler","",""
"","","","","","fixation","26268","html-keyboard-response","193","354954","0.0-6.0-2.39","106","2","2022-11-17 12:31:41","fd252370c17a9971d68c1d4354a03c2e","","Mozilla/5.0 (Windows NT 10.0; Win64; x64) AppleWebKit/537.36 (KHTML, like Gecko) Chrome/107.0.0.0 Safari/537.36 Edg/107.0.1418.42","WebKit","Edge","107.0.1418.42","Windows","10.0","null","null","","<p style=""font-size: 48px;"">+</p>","2","Filler","",""
"","","","","","picture","26268","image-keyboard-response","194","356190","0.0-6.0-3.39","106","2","2022-11-17 12:31:41","fd252370c17a9971d68c1d4354a03c2e","","Mozilla/5.0 (Windows NT 10.0; Win64; x64) AppleWebKit/537.36 (KHTML, like Gecko) Chrome/107.0.0.0 Safari/537.36 Edg/107.0.1418.42","WebKit","Edge","107.0.1418.42","Windows","10.0","1207","n","","dollar.jpg","2","Filler","true",""
"","","","","","fixation","26268","html-keyboard-response","195","357234","0.0-6.0-0.40","106","2","2022-11-17 12:31:41","fd252370c17a9971d68c1d4354a03c2e","","Mozilla/5.0 (Windows NT 10.0; Win64; x64) AppleWebKit/537.36 (KHTML, like Gecko) Chrome/107.0.0.0 Safari/537.36 Edg/107.0.1418.42","WebKit","Edge","107.0.1418.42","Windows","10.0","null","null","","<p style=""font-size: 48px;"">+</p>","2","Filler","",""
"","","","","","sentence","26268","html-keyboard-response","196","359547","0.0-6.0-1.40","106","2","2022-11-17 12:31:41","fd252370c17a9971d68c1d4354a03c2e","","Mozilla/5.0 (Windows NT 10.0; Win64; x64) AppleWebKit/537.36 (KHTML, like Gecko) Chrome/107.0.0.0 Safari/537.36 Edg/107.0.1418.42","WebKit","Edge","107.0.1418.42","Windows","10.0","2290"," ","","A cook is taking a knife","2","Filler","",""
"","","","","","fixation","26268","html-keyboard-response","197","360092","0.0-6.0-2.40","106","2","2022-11-17 12:31:41","fd252370c17a9971d68c1d4354a03c2e","","Mozilla/5.0 (Windows NT 10.0; Win64; x64) AppleWebKit/537.36 (KHTML, like Gecko) Chrome/107.0.0.0 Safari/537.36 Edg/107.0.1418.42","WebKit","Edge","107.0.1418.42","Windows","10.0","null","null","","<p style=""font-size: 48px;"">+</p>","2","Filler","",""
"","","","","","picture","26268","image-keyboard-response","198","361337","0.0-6.0-3.40","106","2","2022-11-17 12:31:41","fd252370c17a9971d68c1d4354a03c2e","","Mozilla/5.0 (Windows NT 10.0; Win64; x64) AppleWebKit/537.36 (KHTML, like Gecko) Chrome/107.0.0.0 Safari/537.36 Edg/107.0.1418.42","WebKit","Edge","107.0.1418.42","Windows","10.0","1218","s","","knife.jpg","2","Filler","true",""
"","","","","","fixation","26268","html-keyboard-response","199","362379","0.0-6.0-0.41","106","2","2022-11-17 12:31:41","fd252370c17a9971d68c1d4354a03c2e","","Mozilla/5.0 (Windows NT 10.0; Win64; x64) AppleWebKit/537.36 (KHTML, like Gecko) Chrome/107.0.0.0 Safari/537.36 Edg/107.0.1418.42","WebKit","Edge","107.0.1418.42","Windows","10.0","null","null","","<p style=""font-size: 48px;"">+</p>","2","Filler","",""
"","","","","","sentence","26268","html-keyboard-response","200","363929","0.0-6.0-1.41","106","2","2022-11-17 12:31:41","fd252370c17a9971d68c1d4354a03c2e","","Mozilla/5.0 (Windows NT 10.0; Win64; x64) AppleWebKit/537.36 (KHTML, like Gecko) Chrome/107.0.0.0 Safari/537.36 Edg/107.0.1418.42","WebKit","Edge","107.0.1418.42","Windows","10.0","1523"," ","","A hairdresser is taking scissors","2","Filler","",""
"","","","","","fixation","26268","html-keyboard-response","201","364455","0.0-6.0-2.41","106","2","2022-11-17 12:31:41","fd252370c17a9971d68c1d4354a03c2e","","Mozilla/5.0 (Windows NT 10.0; Win64; x64) AppleWebKit/537.36 (KHTML, like Gecko) Chrome/107.0.0.0 Safari/537.36 Edg/107.0.1418.42","WebKit","Edge","107.0.1418.42","Windows","10.0","null","null","","<p style=""font-size: 48px;"">+</p>","2","Filler","",""
"","","","","","picture","26268","image-keyboard-response","202","365688","0.0-6.0-3.41","106","2","2022-11-17 12:31:41","fd252370c17a9971d68c1d4354a03c2e","","Mozilla/5.0 (Windows NT 10.0; Win64; x64) AppleWebKit/537.36 (KHTML, like Gecko) Chrome/107.0.0.0 Safari/537.36 Edg/107.0.1418.42","WebKit","Edge","107.0.1418.42","Windows","10.0","1206","n","","sock.jpg","2","Filler","true",""
"","","","","","fixation","26268","html-keyboard-response","203","366718","0.0-6.0-0.42","106","2","2022-11-17 12:31:41","fd252370c17a9971d68c1d4354a03c2e","","Mozilla/5.0 (Windows NT 10.0; Win64; x64) AppleWebKit/537.36 (KHTML, like Gecko) Chrome/107.0.0.0 Safari/537.36 Edg/107.0.1418.42","WebKit","Edge","107.0.1418.42","Windows","10.0","null","null","","<p style=""font-size: 48px;"">+</p>","2","Filler","",""
"","","","","","sentence","26268","html-keyboard-response","204","368296","0.0-6.0-1.42","106","2","2022-11-17 12:31:41","fd252370c17a9971d68c1d4354a03c2e","","Mozilla/5.0 (Windows NT 10.0; Win64; x64) AppleWebKit/537.36 (KHTML, like Gecko) Chrome/107.0.0.0 Safari/537.36 Edg/107.0.1418.42","WebKit","Edge","107.0.1418.42","Windows","10.0","1553"," ","","A horse is chewing hay","2","Filler","",""
"","","","","","fixation","26268","html-keyboard-response","205","368833","0.0-6.0-2.42","106","2","2022-11-17 12:31:41","fd252370c17a9971d68c1d4354a03c2e","","Mozilla/5.0 (Windows NT 10.0; Win64; x64) AppleWebKit/537.36 (KHTML, like Gecko) Chrome/107.0.0.0 Safari/537.36 Edg/107.0.1418.42","WebKit","Edge","107.0.1418.42","Windows","10.0","null","null","","<p style=""font-size: 48px;"">+</p>","2","Filler","",""
"","","","","","picture","26268","image-keyboard-response","206","370013","0.0-6.0-3.42","106","2","2022-11-17 12:31:41","fd252370c17a9971d68c1d4354a03c2e","","Mozilla/5.0 (Windows NT 10.0; Win64; x64) AppleWebKit/537.36 (KHTML, like Gecko) Chrome/107.0.0.0 Safari/537.36 Edg/107.0.1418.42","WebKit","Edge","107.0.1418.42","Windows","10.0","1148","n","","purse.jpg","2","Filler","true",""
"","","","","","fixation","26268","html-keyboard-response","207","371290","0.0-6.0-0.43","106","2","2022-11-17 12:31:41","fd252370c17a9971d68c1d4354a03c2e","","Mozilla/5.0 (Windows NT 10.0; Win64; x64) AppleWebKit/537.36 (KHTML, like Gecko) Chrome/107.0.0.0 Safari/537.36 Edg/107.0.1418.42","WebKit","Edge","107.0.1418.42","Windows","10.0","null","null","","<p style=""font-size: 48px;"">+</p>","2","Filler","",""
"","","","","","sentence","26268","html-keyboard-response","208","373448","0.0-6.0-1.43","106","2","2022-11-17 12:31:41","fd252370c17a9971d68c1d4354a03c2e","","Mozilla/5.0 (Windows NT 10.0; Win64; x64) AppleWebKit/537.36 (KHTML, like Gecko) Chrome/107.0.0.0 Safari/537.36 Edg/107.0.1418.42","WebKit","Edge","107.0.1418.42","Windows","10.0","2133"," ","","A cushion was placed on the magazine","2","Filler","",""
"","","","","","fixation","26268","html-keyboard-response","209","373987","0.0-6.0-2.43","106","2","2022-11-17 12:31:41","fd252370c17a9971d68c1d4354a03c2e","","Mozilla/5.0 (Windows NT 10.0; Win64; x64) AppleWebKit/537.36 (KHTML, like Gecko) Chrome/107.0.0.0 Safari/537.36 Edg/107.0.1418.42","WebKit","Edge","107.0.1418.42","Windows","10.0","null","null","","<p style=""font-size: 48px;"">+</p>","2","Filler","",""
"","","","","","picture","26268","image-keyboard-response","210","375211","0.0-6.0-3.43","106","2","2022-11-17 12:31:41","fd252370c17a9971d68c1d4354a03c2e","","Mozilla/5.0 (Windows NT 10.0; Win64; x64) AppleWebKit/537.36 (KHTML, like Gecko) Chrome/107.0.0.0 Safari/537.36 Edg/107.0.1418.42","WebKit","Edge","107.0.1418.42","Windows","10.0","1193","n","","box.jpg","2","Filler","true",""
"","","","","","fixation","26268","html-keyboard-response","211","376245","0.0-6.0-0.44","106","2","2022-11-17 12:31:41","fd252370c17a9971d68c1d4354a03c2e","","Mozilla/5.0 (Windows NT 10.0; Win64; x64) AppleWebKit/537.36 (KHTML, like Gecko) Chrome/107.0.0.0 Safari/537.36 Edg/107.0.1418.42","WebKit","Edge","107.0.1418.42","Windows","10.0","null","null","","<p style=""font-size: 48px;"">+</p>","2","Filler","",""
"","","","","","sentence","26268","html-keyboard-response","212","378652","0.0-6.0-1.44","106","2","2022-11-17 12:31:41","fd252370c17a9971d68c1d4354a03c2e","","Mozilla/5.0 (Windows NT 10.0; Win64; x64) AppleWebKit/537.36 (KHTML, like Gecko) Chrome/107.0.0.0 Safari/537.36 Edg/107.0.1418.42","WebKit","Edge","107.0.1418.42","Windows","10.0","2378"," ","","A ring was placed on the newspaper","2","Filler","",""
"","","","","","fixation","26268","html-keyboard-response","213","379193","0.0-6.0-2.44","106","2","2022-11-17 12:31:41","fd252370c17a9971d68c1d4354a03c2e","","Mozilla/5.0 (Windows NT 10.0; Win64; x64) AppleWebKit/537.36 (KHTML, like Gecko) Chrome/107.0.0.0 Safari/537.36 Edg/107.0.1418.42","WebKit","Edge","107.0.1418.42","Windows","10.0","null","null","","<p style=""font-size: 48px;"">+</p>","2","Filler","",""
"","","","","","picture","26268","image-keyboard-response","214","380377","0.0-6.0-3.44","106","2","2022-11-17 12:31:41","fd252370c17a9971d68c1d4354a03c2e","","Mozilla/5.0 (Windows NT 10.0; Win64; x64) AppleWebKit/537.36 (KHTML, like Gecko) Chrome/107.0.0.0 Safari/537.36 Edg/107.0.1418.42","WebKit","Edge","107.0.1418.42","Windows","10.0","1154","n","","cat.jpg","2","Filler","true",""
"","","","","","fixation","26268","html-keyboard-response","215","381410","0.0-6.0-0.45","106","2","2022-11-17 12:31:41","fd252370c17a9971d68c1d4354a03c2e","","Mozilla/5.0 (Windows NT 10.0; Win64; x64) AppleWebKit/537.36 (KHTML, like Gecko) Chrome/107.0.0.0 Safari/537.36 Edg/107.0.1418.42","WebKit","Edge","107.0.1418.42","Windows","10.0","null","null","","<p style=""font-size: 48px;"">+</p>","2","Filler","",""
"","","","","","sentence","26268","html-keyboard-response","216","383208","0.0-6.0-1.45","106","2","2022-11-17 12:31:41","fd252370c17a9971d68c1d4354a03c2e","","Mozilla/5.0 (Windows NT 10.0; Win64; x64) AppleWebKit/537.36 (KHTML, like Gecko) Chrome/107.0.0.0 Safari/537.36 Edg/107.0.1418.42","WebKit","Edge","107.0.1418.42","Windows","10.0","1768"," ","","A doctor is taking a stethoscope","2","Filler","",""
"","","","","","fixation","26268","html-keyboard-response","217","384291","0.0-6.0-2.45","106","2","2022-11-17 12:31:41","fd252370c17a9971d68c1d4354a03c2e","","Mozilla/5.0 (Windows NT 10.0; Win64; x64) AppleWebKit/537.36 (KHTML, like Gecko) Chrome/107.0.0.0 Safari/537.36 Edg/107.0.1418.42","WebKit","Edge","107.0.1418.42","Windows","10.0","null","null","","<p style=""font-size: 48px;"">+</p>","2","Filler","",""
"","","","","","picture","26268","image-keyboard-response","218","385845","0.0-6.0-3.45","106","2","2022-11-17 12:31:41","fd252370c17a9971d68c1d4354a03c2e","","Mozilla/5.0 (Windows NT 10.0; Win64; x64) AppleWebKit/537.36 (KHTML, like Gecko) Chrome/107.0.0.0 Safari/537.36 Edg/107.0.1418.42","WebKit","Edge","107.0.1418.42","Windows","10.0","1522","n","","matchesbox.jpg","2","Filler","true",""
"","","","","","fixation","26268","html-keyboard-response","219","386882","0.0-6.0-0.46","106","2","2022-11-17 12:31:41","fd252370c17a9971d68c1d4354a03c2e","","Mozilla/5.0 (Windows NT 10.0; Win64; x64) AppleWebKit/537.36 (KHTML, like Gecko) Chrome/107.0.0.0 Safari/537.36 Edg/107.0.1418.42","WebKit","Edge","107.0.1418.42","Windows","10.0","null","null","","<p style=""font-size: 48px;"">+</p>","2","Heavy_Matched","",""
"","","","","","sentence","26268","html-keyboard-response","220","388945","0.0-6.0-1.46","106","2","2022-11-17 12:31:41","fd252370c17a9971d68c1d4354a03c2e","","Mozilla/5.0 (Windows NT 10.0; Win64; x64) AppleWebKit/537.36 (KHTML, like Gecko) Chrome/107.0.0.0 Safari/537.36 Edg/107.0.1418.42","WebKit","Edge","107.0.1418.42","Windows","10.0","2036"," ","","A bowling ball dropped and smashed an iPAD","2","Heavy_Matched","",""
"","","","","","fixation","26268","html-keyboard-response","221","389491","0.0-6.0-2.46","106","2","2022-11-17 12:31:41","fd252370c17a9971d68c1d4354a03c2e","","Mozilla/5.0 (Windows NT 10.0; Win64; x64) AppleWebKit/537.36 (KHTML, like Gecko) Chrome/107.0.0.0 Safari/537.36 Edg/107.0.1418.42","WebKit","Edge","107.0.1418.42","Windows","10.0","null","null","","<p style=""font-size: 48px;"">+</p>","2","Heavy_Matched","",""
"","","","","","picture","26268","image-keyboard-response","222","390637","0.0-6.0-3.46","106","2","2022-11-17 12:31:41","fd252370c17a9971d68c1d4354a03c2e","","Mozilla/5.0 (Windows NT 10.0; Win64; x64) AppleWebKit/537.36 (KHTML, like Gecko) Chrome/107.0.0.0 Safari/537.36 Edg/107.0.1418.42","WebKit","Edge","107.0.1418.42","Windows","10.0","1115","s","","iPadS.jpg","2","Heavy_Matched","true",""
"","","","","","fixation","26268","html-keyboard-response","223","392291","0.0-6.0-0.47","106","2","2022-11-17 12:31:41","fd252370c17a9971d68c1d4354a03c2e","","Mozilla/5.0 (Windows NT 10.0; Win64; x64) AppleWebKit/537.36 (KHTML, like Gecko) Chrome/107.0.0.0 Safari/537.36 Edg/107.0.1418.42","WebKit","Edge","107.0.1418.42","Windows","10.0","null","null","","<p style=""font-size: 48px;"">+</p>","2","Filler","",""
"","","","","","sentence","26268","html-keyboard-response","224","394064","0.0-6.0-1.47","106","2","2022-11-17 12:31:41","fd252370c17a9971d68c1d4354a03c2e","","Mozilla/5.0 (Windows NT 10.0; Win64; x64) AppleWebKit/537.36 (KHTML, like Gecko) Chrome/107.0.0.0 Safari/537.36 Edg/107.0.1418.42","WebKit","Edge","107.0.1418.42","Windows","10.0","1744"," ","","A woman is paying with a debit card","2","Filler","",""
"","","","","","fixation","26268","html-keyboard-response","225","394611","0.0-6.0-2.47","106","2","2022-11-17 12:31:41","fd252370c17a9971d68c1d4354a03c2e","","Mozilla/5.0 (Windows NT 10.0; Win64; x64) AppleWebKit/537.36 (KHTML, like Gecko) Chrome/107.0.0.0 Safari/537.36 Edg/107.0.1418.42","WebKit","Edge","107.0.1418.42","Windows","10.0","null","null","","<p style=""font-size: 48px;"">+</p>","2","Filler","",""
"","","","","","picture","26268","image-keyboard-response","226","395794","0.0-6.0-3.47","106","2","2022-11-17 12:31:41","fd252370c17a9971d68c1d4354a03c2e","","Mozilla/5.0 (Windows NT 10.0; Win64; x64) AppleWebKit/537.36 (KHTML, like Gecko) Chrome/107.0.0.0 Safari/537.36 Edg/107.0.1418.42","WebKit","Edge","107.0.1418.42","Windows","10.0","1152","n","","papercup.jpg","2","Filler","true",""
"","","","","","fixation","26268","html-keyboard-response","227","396842","0.0-6.0-0.48","106","2","2022-11-17 12:31:41","fd252370c17a9971d68c1d4354a03c2e","","Mozilla/5.0 (Windows NT 10.0; Win64; x64) AppleWebKit/537.36 (KHTML, like Gecko) Chrome/107.0.0.0 Safari/537.36 Edg/107.0.1418.42","WebKit","Edge","107.0.1418.42","Windows","10.0","null","null","","<p style=""font-size: 48px;"">+</p>","2","Filler","",""
"","","","","","sentence","26268","html-keyboard-response","228","398381","0.0-6.0-1.48","106","2","2022-11-17 12:31:41","fd252370c17a9971d68c1d4354a03c2e","","Mozilla/5.0 (Windows NT 10.0; Win64; x64) AppleWebKit/537.36 (KHTML, like Gecko) Chrome/107.0.0.0 Safari/537.36 Edg/107.0.1418.42","WebKit","Edge","107.0.1418.42","Windows","10.0","1512"," ","","A watch was placed on the laptop","2","Filler","",""
"","","","","","fixation","26268","html-keyboard-response","229","398923","0.0-6.0-2.48","106","2","2022-11-17 12:31:41","fd252370c17a9971d68c1d4354a03c2e","","Mozilla/5.0 (Windows NT 10.0; Win64; x64) AppleWebKit/537.36 (KHTML, like Gecko) Chrome/107.0.0.0 Safari/537.36 Edg/107.0.1418.42","WebKit","Edge","107.0.1418.42","Windows","10.0","null","null","","<p style=""font-size: 48px;"">+</p>","2","Filler","",""
"","","","","","picture","26268","image-keyboard-response","230","400078","0.0-6.0-3.48","106","2","2022-11-17 12:31:41","fd252370c17a9971d68c1d4354a03c2e","","Mozilla/5.0 (Windows NT 10.0; Win64; x64) AppleWebKit/537.36 (KHTML, like Gecko) Chrome/107.0.0.0 Safari/537.36 Edg/107.0.1418.42","WebKit","Edge","107.0.1418.42","Windows","10.0","1124","n","","bow.jpg","2","Filler","true",""
"","","","","","fixation","26268","html-keyboard-response","231","401112","0.0-6.0-0.49","106","2","2022-11-17 12:31:41","fd252370c17a9971d68c1d4354a03c2e","","Mozilla/5.0 (Windows NT 10.0; Win64; x64) AppleWebKit/537.36 (KHTML, like Gecko) Chrome/107.0.0.0 Safari/537.36 Edg/107.0.1418.42","WebKit","Edge","107.0.1418.42","Windows","10.0","null","null","","<p style=""font-size: 48px;"">+</p>","2","Filler","",""
"","","","","","sentence","26268","html-keyboard-response","232","403055","0.0-6.0-1.49","106","2","2022-11-17 12:31:41","fd252370c17a9971d68c1d4354a03c2e","","Mozilla/5.0 (Windows NT 10.0; Win64; x64) AppleWebKit/537.36 (KHTML, like Gecko) Chrome/107.0.0.0 Safari/537.36 Edg/107.0.1418.42","WebKit","Edge","107.0.1418.42","Windows","10.0","1913"," ","","An elephant is eating a watermelon","2","Filler","",""
"","","","","","fixation","26268","html-keyboard-response","233","403598","0.0-6.0-2.49","106","2","2022-11-17 12:31:41","fd252370c17a9971d68c1d4354a03c2e","","Mozilla/5.0 (Windows NT 10.0; Win64; x64) AppleWebKit/537.36 (KHTML, like Gecko) Chrome/107.0.0.0 Safari/537.36 Edg/107.0.1418.42","WebKit","Edge","107.0.1418.42","Windows","10.0","null","null","","<p style=""font-size: 48px;"">+</p>","2","Filler","",""
"","","","","","picture","26268","image-keyboard-response","234","404797","0.0-6.0-3.49","106","2","2022-11-17 12:31:41","fd252370c17a9971d68c1d4354a03c2e","","Mozilla/5.0 (Windows NT 10.0; Win64; x64) AppleWebKit/537.36 (KHTML, like Gecko) Chrome/107.0.0.0 Safari/537.36 Edg/107.0.1418.42","WebKit","Edge","107.0.1418.42","Windows","10.0","1170","s","","watermelon.jpg","2","Filler","true",""
"","","","","","fixation","26268","html-keyboard-response","235","406293","0.0-6.0-0.50","106","2","2022-11-17 12:31:41","fd252370c17a9971d68c1d4354a03c2e","","Mozilla/5.0 (Windows NT 10.0; Win64; x64) AppleWebKit/537.36 (KHTML, like Gecko) Chrome/107.0.0.0 Safari/537.36 Edg/107.0.1418.42","WebKit","Edge","107.0.1418.42","Windows","10.0","null","null","","<p style=""font-size: 48px;"">+</p>","2","Light_Contradictory","",""
