"success","timeout","failed_images","failed_audio","failed_video","typeoftrial","subject","trial_type","trial_index","time_elapsed","internal_node_id","run_id","condition","recorded_at","source_code_version","ip","user_agent","device","browser","browser_version","platform","platform_version","rt","response","Experiment","stimulus","list_number","trialcondition","correct","question_order"
"true","false","[]","[]","[]","preload","45713","preload","0","7","0.0-0.0","64","2","2022-11-17 12:23:11","fd252370c17a9971d68c1d4354a03c2e","","Mozilla/5.0 (Macintosh; Intel Mac OS X 10_15_7) AppleWebKit/605.1.15 (KHTML, like Gecko) Version/15.5 Safari/605.1.15","Macintosh","Safari","15.5","OS X","10_15_7","","","","","","","",""
"","","","","","ID","45713","survey-text","1","2057","0.0-1.0","64","2","2022-11-17 12:23:11","fd252370c17a9971d68c1d4354a03c2e","","Mozilla/5.0 (Macintosh; Intel Mac OS X 10_15_7) AppleWebKit/605.1.15 (KHTML, like Gecko) Version/15.5 Safari/605.1.15","Macintosh","Safari","15.5","OS X","10_15_7","2035","{""ID"":""61023d86ff017d53fdb4970e""}","","","","","",""
"","","","","","instructions","45713","html-button-response","2","8315","0.0-2.0","64","2","2022-11-17 12:23:11","fd252370c17a9971d68c1d4354a03c2e","","Mozilla/5.0 (Macintosh; Intel Mac OS X 10_15_7) AppleWebKit/605.1.15 (KHTML, like Gecko) Version/15.5 Safari/605.1.15","Macintosh","Safari","15.5","OS X","10_15_7","6250","0","","
                    <p style=""font-size:20px;""> Welcome to the experiment! </p>
                    <p style=""font-size:20px;""> In this experiment, you will be asked to make judgments about the content of different sentences.</p>
                    <p style=""font-size:20px;""> On each trial, you will read a sentence, and will be shown a picture immediately following the sentence. </p>
                    <p style=""font-size:20px;""> Your task is to decide whether the object displayed in the picture was mentioned in the sentence or not </p>
                    <p style=""font-size:20px;""> and respond as quickly as possible by pressing <strong>S</strong> for yes or <strong>N</strong> for no. </p>
                    <p style=""font-size:20px;""> You will now do a practice session with feedback and instructions. </p>
                    <p style=""font-size:20px;""> Click the button below to continue.</p>
                    ","","","",""
"","","","","","instructions","45713","html-button-response","3","18991","0.0-3.0","64","2","2022-11-17 12:23:11","fd252370c17a9971d68c1d4354a03c2e","","Mozilla/5.0 (Macintosh; Intel Mac OS X 10_15_7) AppleWebKit/605.1.15 (KHTML, like Gecko) Version/15.5 Safari/605.1.15","Macintosh","Safari","15.5","OS X","10_15_7","10673","0","","
                    <p style=""font-size:20px;""> You are about to begin the practice test. </p>
                    <p style=""font-size:20px;""> On each trial, a sentence will appear on the screen. You should press SPACEBAR when you have read and understood the sentence.</p>
                    <p style=""font-size:20px;""> After you press SPACEBAR, a picture will appear on the screen. </p>
                    <p style=""font-size:20px;""> You need to indicate whether or not the pictured object was mentioned in the sentence. </p>
                    <p style=""font-size:20px;""> If the object WAS mentioned in the preceding sentence, you should press <strong>S</strong> </p>
                    <p style=""font-size:20px;""> If the object was NOT mentioned in the preceding sentence, you should press <strong>N</strong>. </p>
                    <p style=""font-size:20px;""> Click the button below to continue to the practice session.</p>
                    ","","","",""
"","","","","","fixation","45713","html-keyboard-response","4","19993","0.0-4.0-0.0","64","2","2022-11-17 12:23:11","fd252370c17a9971d68c1d4354a03c2e","","Mozilla/5.0 (Macintosh; Intel Mac OS X 10_15_7) AppleWebKit/605.1.15 (KHTML, like Gecko) Version/15.5 Safari/605.1.15","Macintosh","Safari","15.5","OS X","10_15_7","null","null","","<p style=""font-size: 48px;"">+</p>","practice","practice_s","",""
"","","","","","sentence","45713","html-keyboard-response","5","21953","0.0-4.0-1.0","64","2","2022-11-17 12:23:11","fd252370c17a9971d68c1d4354a03c2e","","Mozilla/5.0 (Macintosh; Intel Mac OS X 10_15_7) AppleWebKit/605.1.15 (KHTML, like Gecko) Version/15.5 Safari/605.1.15","Macintosh","Safari","15.5","OS X","10_15_7","1957"," ","","A bowling ball dropped and smashed a teacup","practice","practice_s","",""
"","","","","","fixation","45713","html-keyboard-response","6","22455","0.0-4.0-2.0","64","2","2022-11-17 12:23:11","fd252370c17a9971d68c1d4354a03c2e","","Mozilla/5.0 (Macintosh; Intel Mac OS X 10_15_7) AppleWebKit/605.1.15 (KHTML, like Gecko) Version/15.5 Safari/605.1.15","Macintosh","Safari","15.5","OS X","10_15_7","null","null","","<p style=""font-size: 48px;"">+</p>","practice","practice_s","",""
"","","","","","picture","45713","image-keyboard-response","7","23960","0.0-4.0-3.0","64","2","2022-11-17 12:23:11","fd252370c17a9971d68c1d4354a03c2e","","Mozilla/5.0 (Macintosh; Intel Mac OS X 10_15_7) AppleWebKit/605.1.15 (KHTML, like Gecko) Version/15.5 Safari/605.1.15","Macintosh","Safari","15.5","OS X","10_15_7","1496","s","","cupB.jpg","practice","practice_s","true",""
"","","","","","","","html-keyboard-response","8","25963","0.0-4.0-4.0","64","2","2022-11-17 12:23:11","fd252370c17a9971d68c1d4354a03c2e","","Mozilla/5.0 (Macintosh; Intel Mac OS X 10_15_7) AppleWebKit/605.1.15 (KHTML, like Gecko) Version/15.5 Safari/605.1.15","Macintosh","Safari","15.5","OS X","10_15_7","null","null","","CORRECT!","","","",""
"","","","","","fixation","45713","html-keyboard-response","9","26967","0.0-4.0-0.1","64","2","2022-11-17 12:23:11","fd252370c17a9971d68c1d4354a03c2e","","Mozilla/5.0 (Macintosh; Intel Mac OS X 10_15_7) AppleWebKit/605.1.15 (KHTML, like Gecko) Version/15.5 Safari/605.1.15","Macintosh","Safari","15.5","OS X","10_15_7","null","null","","<p style=""font-size: 48px;"">+</p>","practice","practice_n","",""
"","","","","","sentence","45713","html-keyboard-response","10","28132","0.0-4.0-1.1","64","2","2022-11-17 12:23:11","fd252370c17a9971d68c1d4354a03c2e","","Mozilla/5.0 (Macintosh; Intel Mac OS X 10_15_7) AppleWebKit/605.1.15 (KHTML, like Gecko) Version/15.5 Safari/605.1.15","Macintosh","Safari","15.5","OS X","10_15_7","1163"," ","","A balloon dropped and smashed a cup","practice","practice_n","",""
"","","","","","fixation","45713","html-keyboard-response","11","28635","0.0-4.0-2.1","64","2","2022-11-17 12:23:11","fd252370c17a9971d68c1d4354a03c2e","","Mozilla/5.0 (Macintosh; Intel Mac OS X 10_15_7) AppleWebKit/605.1.15 (KHTML, like Gecko) Version/15.5 Safari/605.1.15","Macintosh","Safari","15.5","OS X","10_15_7","null","null","","<p style=""font-size: 48px;"">+</p>","practice","practice_n","",""
"","","","","","picture","45713","image-keyboard-response","12","29445","0.0-4.0-3.1","64","2","2022-11-17 12:23:11","fd252370c17a9971d68c1d4354a03c2e","","Mozilla/5.0 (Macintosh; Intel Mac OS X 10_15_7) AppleWebKit/605.1.15 (KHTML, like Gecko) Version/15.5 Safari/605.1.15","Macintosh","Safari","15.5","OS X","10_15_7","800","n","","bananaB.jpg","practice","practice_n","true",""
"","","","","","","","html-keyboard-response","13","31448","0.0-4.0-4.1","64","2","2022-11-17 12:23:11","fd252370c17a9971d68c1d4354a03c2e","","Mozilla/5.0 (Macintosh; Intel Mac OS X 10_15_7) AppleWebKit/605.1.15 (KHTML, like Gecko) Version/15.5 Safari/605.1.15","Macintosh","Safari","15.5","OS X","10_15_7","null","null","","CORRECT!","","","",""
"","","","","","fixation","45713","html-keyboard-response","14","32451","0.0-4.0-0.2","64","2","2022-11-17 12:23:11","fd252370c17a9971d68c1d4354a03c2e","","Mozilla/5.0 (Macintosh; Intel Mac OS X 10_15_7) AppleWebKit/605.1.15 (KHTML, like Gecko) Version/15.5 Safari/605.1.15","Macintosh","Safari","15.5","OS X","10_15_7","null","null","","<p style=""font-size: 48px;"">+</p>","practice","practice_s","",""
"","","","","","sentence","45713","html-keyboard-response","15","33875","0.0-4.0-1.2","64","2","2022-11-17 12:23:11","fd252370c17a9971d68c1d4354a03c2e","","Mozilla/5.0 (Macintosh; Intel Mac OS X 10_15_7) AppleWebKit/605.1.15 (KHTML, like Gecko) Version/15.5 Safari/605.1.15","Macintosh","Safari","15.5","OS X","10_15_7","1421"," ","","A knife was placed on a hammer","practice","practice_s","",""
"","","","","","fixation","45713","html-keyboard-response","16","34378","0.0-4.0-2.2","64","2","2022-11-17 12:23:11","fd252370c17a9971d68c1d4354a03c2e","","Mozilla/5.0 (Macintosh; Intel Mac OS X 10_15_7) AppleWebKit/605.1.15 (KHTML, like Gecko) Version/15.5 Safari/605.1.15","Macintosh","Safari","15.5","OS X","10_15_7","null","null","","<p style=""font-size: 48px;"">+</p>","practice","practice_s","",""
"","","","","","picture","45713","image-keyboard-response","17","36611","0.0-4.0-3.2","64","2","2022-11-17 12:23:11","fd252370c17a9971d68c1d4354a03c2e","","Mozilla/5.0 (Macintosh; Intel Mac OS X 10_15_7) AppleWebKit/605.1.15 (KHTML, like Gecko) Version/15.5 Safari/605.1.15","Macintosh","Safari","15.5","OS X","10_15_7","2224","s","","hammerB.jpg","practice","practice_s","true",""
"","","","","","","","html-keyboard-response","18","38614","0.0-4.0-4.2","64","2","2022-11-17 12:23:11","fd252370c17a9971d68c1d4354a03c2e","","Mozilla/5.0 (Macintosh; Intel Mac OS X 10_15_7) AppleWebKit/605.1.15 (KHTML, like Gecko) Version/15.5 Safari/605.1.15","Macintosh","Safari","15.5","OS X","10_15_7","null","null","","CORRECT!","","","",""
"","","","","","fixation","45713","html-keyboard-response","19","39617","0.0-4.0-0.3","64","2","2022-11-17 12:23:11","fd252370c17a9971d68c1d4354a03c2e","","Mozilla/5.0 (Macintosh; Intel Mac OS X 10_15_7) AppleWebKit/605.1.15 (KHTML, like Gecko) Version/15.5 Safari/605.1.15","Macintosh","Safari","15.5","OS X","10_15_7","null","null","","<p style=""font-size: 48px;"">+</p>","practice","practice_n","",""
"","","","","","sentence","45713","html-keyboard-response","20","40877","0.0-4.0-1.3","64","2","2022-11-17 12:23:11","fd252370c17a9971d68c1d4354a03c2e","","Mozilla/5.0 (Macintosh; Intel Mac OS X 10_15_7) AppleWebKit/605.1.15 (KHTML, like Gecko) Version/15.5 Safari/605.1.15","Macintosh","Safari","15.5","OS X","10_15_7","1257"," ","","A fork was placed on a stool","practice","practice_n","",""
"","","","","","fixation","45713","html-keyboard-response","21","41380","0.0-4.0-2.3","64","2","2022-11-17 12:23:11","fd252370c17a9971d68c1d4354a03c2e","","Mozilla/5.0 (Macintosh; Intel Mac OS X 10_15_7) AppleWebKit/605.1.15 (KHTML, like Gecko) Version/15.5 Safari/605.1.15","Macintosh","Safari","15.5","OS X","10_15_7","null","null","","<p style=""font-size: 48px;"">+</p>","practice","practice_n","",""
"","","","","","picture","45713","image-keyboard-response","22","42486","0.0-4.0-3.3","64","2","2022-11-17 12:23:11","fd252370c17a9971d68c1d4354a03c2e","","Mozilla/5.0 (Macintosh; Intel Mac OS X 10_15_7) AppleWebKit/605.1.15 (KHTML, like Gecko) Version/15.5 Safari/605.1.15","Macintosh","Safari","15.5","OS X","10_15_7","1096","n","","tableB.jpg","practice","practice_n","true",""
"","","","","","","","html-keyboard-response","23","44489","0.0-4.0-4.3","64","2","2022-11-17 12:23:11","fd252370c17a9971d68c1d4354a03c2e","","Mozilla/5.0 (Macintosh; Intel Mac OS X 10_15_7) AppleWebKit/605.1.15 (KHTML, like Gecko) Version/15.5 Safari/605.1.15","Macintosh","Safari","15.5","OS X","10_15_7","null","null","","CORRECT!","","","",""
"","","","","","fixation","45713","html-keyboard-response","24","45492","0.0-4.0-0.4","64","2","2022-11-17 12:23:11","fd252370c17a9971d68c1d4354a03c2e","","Mozilla/5.0 (Macintosh; Intel Mac OS X 10_15_7) AppleWebKit/605.1.15 (KHTML, like Gecko) Version/15.5 Safari/605.1.15","Macintosh","Safari","15.5","OS X","10_15_7","null","null","","<p style=""font-size: 48px;"">+</p>","practice","practice_n","",""
"","","","","","sentence","45713","html-keyboard-response","25","49509","0.0-4.0-1.4","64","2","2022-11-17 12:23:11","fd252370c17a9971d68c1d4354a03c2e","","Mozilla/5.0 (Macintosh; Intel Mac OS X 10_15_7) AppleWebKit/605.1.15 (KHTML, like Gecko) Version/15.5 Safari/605.1.15","Macintosh","Safari","15.5","OS X","10_15_7","4014"," ","","A bowling ball dropped and touched a bottle","practice","practice_n","",""
"","","","","","fixation","45713","html-keyboard-response","26","50012","0.0-4.0-2.4","64","2","2022-11-17 12:23:11","fd252370c17a9971d68c1d4354a03c2e","","Mozilla/5.0 (Macintosh; Intel Mac OS X 10_15_7) AppleWebKit/605.1.15 (KHTML, like Gecko) Version/15.5 Safari/605.1.15","Macintosh","Safari","15.5","OS X","10_15_7","null","null","","<p style=""font-size: 48px;"">+</p>","practice","practice_n","",""
"","","","","","picture","45713","image-keyboard-response","27","50639","0.0-4.0-3.4","64","2","2022-11-17 12:23:11","fd252370c17a9971d68c1d4354a03c2e","","Mozilla/5.0 (Macintosh; Intel Mac OS X 10_15_7) AppleWebKit/605.1.15 (KHTML, like Gecko) Version/15.5 Safari/605.1.15","Macintosh","Safari","15.5","OS X","10_15_7","619","n","","bookB.jpg","practice","practice_n","true",""
"","","","","","","","html-keyboard-response","28","52643","0.0-4.0-4.4","64","2","2022-11-17 12:23:11","fd252370c17a9971d68c1d4354a03c2e","","Mozilla/5.0 (Macintosh; Intel Mac OS X 10_15_7) AppleWebKit/605.1.15 (KHTML, like Gecko) Version/15.5 Safari/605.1.15","Macintosh","Safari","15.5","OS X","10_15_7","null","null","","CORRECT!","","","",""
"","","","","","fixation","45713","html-keyboard-response","29","53646","0.0-4.0-0.5","64","2","2022-11-17 12:23:11","fd252370c17a9971d68c1d4354a03c2e","","Mozilla/5.0 (Macintosh; Intel Mac OS X 10_15_7) AppleWebKit/605.1.15 (KHTML, like Gecko) Version/15.5 Safari/605.1.15","Macintosh","Safari","15.5","OS X","10_15_7","null","null","","<p style=""font-size: 48px;"">+</p>","practice","practice_s","",""
"","","","","","sentence","45713","html-keyboard-response","30","55115","0.0-4.0-1.5","64","2","2022-11-17 12:23:11","fd252370c17a9971d68c1d4354a03c2e","","Mozilla/5.0 (Macintosh; Intel Mac OS X 10_15_7) AppleWebKit/605.1.15 (KHTML, like Gecko) Version/15.5 Safari/605.1.15","Macintosh","Safari","15.5","OS X","10_15_7","1466"," ","","A balloon dropped and touched a cigarette","practice","practice_s","",""
"","","","","","fixation","45713","html-keyboard-response","31","55618","0.0-4.0-2.5","64","2","2022-11-17 12:23:11","fd252370c17a9971d68c1d4354a03c2e","","Mozilla/5.0 (Macintosh; Intel Mac OS X 10_15_7) AppleWebKit/605.1.15 (KHTML, like Gecko) Version/15.5 Safari/605.1.15","Macintosh","Safari","15.5","OS X","10_15_7","null","null","","<p style=""font-size: 48px;"">+</p>","practice","practice_s","",""
"","","","","","picture","45713","image-keyboard-response","32","56430","0.0-4.0-3.5","64","2","2022-11-17 12:23:11","fd252370c17a9971d68c1d4354a03c2e","","Mozilla/5.0 (Macintosh; Intel Mac OS X 10_15_7) AppleWebKit/605.1.15 (KHTML, like Gecko) Version/15.5 Safari/605.1.15","Macintosh","Safari","15.5","OS X","10_15_7","804","s","","cigaretteB.jpg","practice","practice_s","true",""
"","","","","","","","html-keyboard-response","33","58433","0.0-4.0-4.5","64","2","2022-11-17 12:23:11","fd252370c17a9971d68c1d4354a03c2e","","Mozilla/5.0 (Macintosh; Intel Mac OS X 10_15_7) AppleWebKit/605.1.15 (KHTML, like Gecko) Version/15.5 Safari/605.1.15","Macintosh","Safari","15.5","OS X","10_15_7","null","null","","CORRECT!","","","",""
"","","","","","movetoexp","45713","html-button-response","34","68385","0.0-5.0","64","2","2022-11-17 12:23:11","fd252370c17a9971d68c1d4354a03c2e","","Mozilla/5.0 (Macintosh; Intel Mac OS X 10_15_7) AppleWebKit/605.1.15 (KHTML, like Gecko) Version/15.5 Safari/605.1.15","Macintosh","Safari","15.5","OS X","10_15_7","9949","0","","<p style=""font-size:20px;"">You have now completed the practice session! </p>
                    <p style=""font-size:20px;"">You will now move on to the main experiment, where you will not be provided any feedback. </p>
                    <p style=""font-size:20px;"">Remember, you should press <strong>S</strong> if the pictured object was mentioned in the preceding sentence<br> and <strong>N</strong> if the pictured object was not mentioned in the preceding sentence.</p>
                    <p style=""font-size:20px;"">Please click the button below to continue to the main experiment. </p>","","","",""
"","","","","","fixation","45713","html-keyboard-response","35","69391","0.0-6.0-0.0","64","2","2022-11-17 12:23:11","fd252370c17a9971d68c1d4354a03c2e","","Mozilla/5.0 (Macintosh; Intel Mac OS X 10_15_7) AppleWebKit/605.1.15 (KHTML, like Gecko) Version/15.5 Safari/605.1.15","Macintosh","Safari","15.5","OS X","10_15_7","null","null","","<p style=""font-size: 48px;"">+</p>","2","Filler","",""
"","","","","","sentence","45713","html-keyboard-response","36","71400","0.0-6.0-1.0","64","2","2022-11-17 12:23:11","fd252370c17a9971d68c1d4354a03c2e","","Mozilla/5.0 (Macintosh; Intel Mac OS X 10_15_7) AppleWebKit/605.1.15 (KHTML, like Gecko) Version/15.5 Safari/605.1.15","Macintosh","Safari","15.5","OS X","10_15_7","2006"," ","","An elephant is eating a watermelon","2","Filler","",""
"","","","","","fixation","45713","html-keyboard-response","37","71903","0.0-6.0-2.0","64","2","2022-11-17 12:23:11","fd252370c17a9971d68c1d4354a03c2e","","Mozilla/5.0 (Macintosh; Intel Mac OS X 10_15_7) AppleWebKit/605.1.15 (KHTML, like Gecko) Version/15.5 Safari/605.1.15","Macintosh","Safari","15.5","OS X","10_15_7","null","null","","<p style=""font-size: 48px;"">+</p>","2","Filler","",""
"","","","","","picture","45713","image-keyboard-response","38","73191","0.0-6.0-3.0","64","2","2022-11-17 12:23:11","fd252370c17a9971d68c1d4354a03c2e","","Mozilla/5.0 (Macintosh; Intel Mac OS X 10_15_7) AppleWebKit/605.1.15 (KHTML, like Gecko) Version/15.5 Safari/605.1.15","Macintosh","Safari","15.5","OS X","10_15_7","1277","s","","watermelon.jpg","2","Filler","true",""
"","","","","","fixation","45713","html-keyboard-response","39","74194","0.0-6.0-0.1","64","2","2022-11-17 12:23:11","fd252370c17a9971d68c1d4354a03c2e","","Mozilla/5.0 (Macintosh; Intel Mac OS X 10_15_7) AppleWebKit/605.1.15 (KHTML, like Gecko) Version/15.5 Safari/605.1.15","Macintosh","Safari","15.5","OS X","10_15_7","null","null","","<p style=""font-size: 48px;"">+</p>","2","Heavy_Contradictory","",""
"","","","","","sentence","45713","html-keyboard-response","40","75880","0.0-6.0-1.1","64","2","2022-11-17 12:23:11","fd252370c17a9971d68c1d4354a03c2e","","Mozilla/5.0 (Macintosh; Intel Mac OS X 10_15_7) AppleWebKit/605.1.15 (KHTML, like Gecko) Version/15.5 Safari/605.1.15","Macintosh","Safari","15.5","OS X","10_15_7","1684"," ","","A bowling ball dropped and touched a light bulb","2","Heavy_Contradictory","",""
"","","","","","fixation","45713","html-keyboard-response","41","76384","0.0-6.0-2.1","64","2","2022-11-17 12:23:11","fd252370c17a9971d68c1d4354a03c2e","","Mozilla/5.0 (Macintosh; Intel Mac OS X 10_15_7) AppleWebKit/605.1.15 (KHTML, like Gecko) Version/15.5 Safari/605.1.15","Macintosh","Safari","15.5","OS X","10_15_7","null","null","","<p style=""font-size: 48px;"">+</p>","2","Heavy_Contradictory","",""
"","","","","","picture","45713","image-keyboard-response","42","77381","0.0-6.0-3.1","64","2","2022-11-17 12:23:11","fd252370c17a9971d68c1d4354a03c2e","","Mozilla/5.0 (Macintosh; Intel Mac OS X 10_15_7) AppleWebKit/605.1.15 (KHTML, like Gecko) Version/15.5 Safari/605.1.15","Macintosh","Safari","15.5","OS X","10_15_7","988","s","","lampS.jpg","2","Heavy_Contradictory","true",""
"","","","","","fixation","45713","html-keyboard-response","43","78385","0.0-6.0-0.2","64","2","2022-11-17 12:23:11","fd252370c17a9971d68c1d4354a03c2e","","Mozilla/5.0 (Macintosh; Intel Mac OS X 10_15_7) AppleWebKit/605.1.15 (KHTML, like Gecko) Version/15.5 Safari/605.1.15","Macintosh","Safari","15.5","OS X","10_15_7","null","null","","<p style=""font-size: 48px;"">+</p>","2","Filler","",""
"","","","","","sentence","45713","html-keyboard-response","44","79559","0.0-6.0-1.2","64","2","2022-11-17 12:23:11","fd252370c17a9971d68c1d4354a03c2e","","Mozilla/5.0 (Macintosh; Intel Mac OS X 10_15_7) AppleWebKit/605.1.15 (KHTML, like Gecko) Version/15.5 Safari/605.1.15","Macintosh","Safari","15.5","OS X","10_15_7","1171"," ","","A postman is driving a car","2","Filler","",""
"","","","","","fixation","45713","html-keyboard-response","45","80062","0.0-6.0-2.2","64","2","2022-11-17 12:23:11","fd252370c17a9971d68c1d4354a03c2e","","Mozilla/5.0 (Macintosh; Intel Mac OS X 10_15_7) AppleWebKit/605.1.15 (KHTML, like Gecko) Version/15.5 Safari/605.1.15","Macintosh","Safari","15.5","OS X","10_15_7","null","null","","<p style=""font-size: 48px;"">+</p>","2","Filler","",""
"","","","","","picture","45713","image-keyboard-response","46","81832","0.0-6.0-3.2","64","2","2022-11-17 12:23:11","fd252370c17a9971d68c1d4354a03c2e","","Mozilla/5.0 (Macintosh; Intel Mac OS X 10_15_7) AppleWebKit/605.1.15 (KHTML, like Gecko) Version/15.5 Safari/605.1.15","Macintosh","Safari","15.5","OS X","10_15_7","1759","s","","car.jpg","2","Filler","true",""
"","","","","","fixation","45713","html-keyboard-response","47","82836","0.0-6.0-0.3","64","2","2022-11-17 12:23:11","fd252370c17a9971d68c1d4354a03c2e","","Mozilla/5.0 (Macintosh; Intel Mac OS X 10_15_7) AppleWebKit/605.1.15 (KHTML, like Gecko) Version/15.5 Safari/605.1.15","Macintosh","Safari","15.5","OS X","10_15_7","null","null","","<p style=""font-size: 48px;"">+</p>","2","Filler","",""
"","","","","","sentence","45713","html-keyboard-response","48","84579","0.0-6.0-1.3","64","2","2022-11-17 12:23:11","fd252370c17a9971d68c1d4354a03c2e","","Mozilla/5.0 (Macintosh; Intel Mac OS X 10_15_7) AppleWebKit/605.1.15 (KHTML, like Gecko) Version/15.5 Safari/605.1.15","Macintosh","Safari","15.5","OS X","10_15_7","1740"," ","","A president is writing in the notebook","2","Filler","",""
"","","","","","fixation","45713","html-keyboard-response","49","85083","0.0-6.0-2.3","64","2","2022-11-17 12:23:11","fd252370c17a9971d68c1d4354a03c2e","","Mozilla/5.0 (Macintosh; Intel Mac OS X 10_15_7) AppleWebKit/605.1.15 (KHTML, like Gecko) Version/15.5 Safari/605.1.15","Macintosh","Safari","15.5","OS X","10_15_7","null","null","","<p style=""font-size: 48px;"">+</p>","2","Filler","",""
"","","","","","picture","45713","image-keyboard-response","50","85808","0.0-6.0-3.3","64","2","2022-11-17 12:23:11","fd252370c17a9971d68c1d4354a03c2e","","Mozilla/5.0 (Macintosh; Intel Mac OS X 10_15_7) AppleWebKit/605.1.15 (KHTML, like Gecko) Version/15.5 Safari/605.1.15","Macintosh","Safari","15.5","OS X","10_15_7","714","n","","can.jpg","2","Filler","true",""
"","","","","","fixation","45713","html-keyboard-response","51","86812","0.0-6.0-0.4","64","2","2022-11-17 12:23:11","fd252370c17a9971d68c1d4354a03c2e","","Mozilla/5.0 (Macintosh; Intel Mac OS X 10_15_7) AppleWebKit/605.1.15 (KHTML, like Gecko) Version/15.5 Safari/605.1.15","Macintosh","Safari","15.5","OS X","10_15_7","null","null","","<p style=""font-size: 48px;"">+</p>","2","Heavy_Contradictory","",""
"","","","","","sentence","45713","html-keyboard-response","52","88540","0.0-6.0-1.4","64","2","2022-11-17 12:23:11","fd252370c17a9971d68c1d4354a03c2e","","Mozilla/5.0 (Macintosh; Intel Mac OS X 10_15_7) AppleWebKit/605.1.15 (KHTML, like Gecko) Version/15.5 Safari/605.1.15","Macintosh","Safari","15.5","OS X","10_15_7","1725"," ","","A bowling ball dropped and touched a chocolate muffin","2","Heavy_Contradictory","",""
"","","","","","fixation","45713","html-keyboard-response","53","89043","0.0-6.0-2.4","64","2","2022-11-17 12:23:11","fd252370c17a9971d68c1d4354a03c2e","","Mozilla/5.0 (Macintosh; Intel Mac OS X 10_15_7) AppleWebKit/605.1.15 (KHTML, like Gecko) Version/15.5 Safari/605.1.15","Macintosh","Safari","15.5","OS X","10_15_7","null","null","","<p style=""font-size: 48px;"">+</p>","2","Heavy_Contradictory","",""
"","","","","","picture","45713","image-keyboard-response","54","90020","0.0-6.0-3.4","64","2","2022-11-17 12:23:11","fd252370c17a9971d68c1d4354a03c2e","","Mozilla/5.0 (Macintosh; Intel Mac OS X 10_15_7) AppleWebKit/605.1.15 (KHTML, like Gecko) Version/15.5 Safari/605.1.15","Macintosh","Safari","15.5","OS X","10_15_7","965","s","","muffinS.jpg","2","Heavy_Contradictory","true",""
"","","","","","fixation","45713","html-keyboard-response","55","91032","0.0-6.0-0.5","64","2","2022-11-17 12:23:11","fd252370c17a9971d68c1d4354a03c2e","","Mozilla/5.0 (Macintosh; Intel Mac OS X 10_15_7) AppleWebKit/605.1.15 (KHTML, like Gecko) Version/15.5 Safari/605.1.15","Macintosh","Safari","15.5","OS X","10_15_7","null","null","","<p style=""font-size: 48px;"">+</p>","2","Filler","",""
"","","","","","sentence","45713","html-keyboard-response","56","92471","0.0-6.0-1.5","64","2","2022-11-17 12:23:11","fd252370c17a9971d68c1d4354a03c2e","","Mozilla/5.0 (Macintosh; Intel Mac OS X 10_15_7) AppleWebKit/605.1.15 (KHTML, like Gecko) Version/15.5 Safari/605.1.15","Macintosh","Safari","15.5","OS X","10_15_7","1435"," ","","A student is writing on a board","2","Filler","",""
"","","","","","fixation","45713","html-keyboard-response","57","92973","0.0-6.0-2.5","64","2","2022-11-17 12:23:11","fd252370c17a9971d68c1d4354a03c2e","","Mozilla/5.0 (Macintosh; Intel Mac OS X 10_15_7) AppleWebKit/605.1.15 (KHTML, like Gecko) Version/15.5 Safari/605.1.15","Macintosh","Safari","15.5","OS X","10_15_7","null","null","","<p style=""font-size: 48px;"">+</p>","2","Filler","",""
"","","","","","picture","45713","image-keyboard-response","58","93551","0.0-6.0-3.5","64","2","2022-11-17 12:23:11","fd252370c17a9971d68c1d4354a03c2e","","Mozilla/5.0 (Macintosh; Intel Mac OS X 10_15_7) AppleWebKit/605.1.15 (KHTML, like Gecko) Version/15.5 Safari/605.1.15","Macintosh","Safari","15.5","OS X","10_15_7","565","n","","owl.jpg","2","Filler","true",""
"","","","","","fixation","45713","html-keyboard-response","59","94554","0.0-6.0-0.6","64","2","2022-11-17 12:23:11","fd252370c17a9971d68c1d4354a03c2e","","Mozilla/5.0 (Macintosh; Intel Mac OS X 10_15_7) AppleWebKit/605.1.15 (KHTML, like Gecko) Version/15.5 Safari/605.1.15","Macintosh","Safari","15.5","OS X","10_15_7","null","null","","<p style=""font-size: 48px;"">+</p>","2","Filler","",""
"","","","","","sentence","45713","html-keyboard-response","60","95572","0.0-6.0-1.6","64","2","2022-11-17 12:23:11","fd252370c17a9971d68c1d4354a03c2e","","Mozilla/5.0 (Macintosh; Intel Mac OS X 10_15_7) AppleWebKit/605.1.15 (KHTML, like Gecko) Version/15.5 Safari/605.1.15","Macintosh","Safari","15.5","OS X","10_15_7","1016"," ","","A zebra is playing with a horse","2","Filler","",""
"","","","","","fixation","45713","html-keyboard-response","61","96075","0.0-6.0-2.6","64","2","2022-11-17 12:23:11","fd252370c17a9971d68c1d4354a03c2e","","Mozilla/5.0 (Macintosh; Intel Mac OS X 10_15_7) AppleWebKit/605.1.15 (KHTML, like Gecko) Version/15.5 Safari/605.1.15","Macintosh","Safari","15.5","OS X","10_15_7","null","null","","<p style=""font-size: 48px;"">+</p>","2","Filler","",""
"","","","","","picture","45713","image-keyboard-response","62","96999","0.0-6.0-3.6","64","2","2022-11-17 12:23:11","fd252370c17a9971d68c1d4354a03c2e","","Mozilla/5.0 (Macintosh; Intel Mac OS X 10_15_7) AppleWebKit/605.1.15 (KHTML, like Gecko) Version/15.5 Safari/605.1.15","Macintosh","Safari","15.5","OS X","10_15_7","913","n","","watch.jpg","2","Filler","true",""
"","","","","","fixation","45713","html-keyboard-response","63","98002","0.0-6.0-0.7","64","2","2022-11-17 12:23:11","fd252370c17a9971d68c1d4354a03c2e","","Mozilla/5.0 (Macintosh; Intel Mac OS X 10_15_7) AppleWebKit/605.1.15 (KHTML, like Gecko) Version/15.5 Safari/605.1.15","Macintosh","Safari","15.5","OS X","10_15_7","null","null","","<p style=""font-size: 48px;"">+</p>","2","Filler","",""
"","","","","","sentence","45713","html-keyboard-response","64","98769","0.0-6.0-1.7","64","2","2022-11-17 12:23:11","fd252370c17a9971d68c1d4354a03c2e","","Mozilla/5.0 (Macintosh; Intel Mac OS X 10_15_7) AppleWebKit/605.1.15 (KHTML, like Gecko) Version/15.5 Safari/605.1.15","Macintosh","Safari","15.5","OS X","10_15_7","764"," ","","A butterfly is sitting on a flower","2","Filler","",""
"","","","","","fixation","45713","html-keyboard-response","65","99273","0.0-6.0-2.7","64","2","2022-11-17 12:23:11","fd252370c17a9971d68c1d4354a03c2e","","Mozilla/5.0 (Macintosh; Intel Mac OS X 10_15_7) AppleWebKit/605.1.15 (KHTML, like Gecko) Version/15.5 Safari/605.1.15","Macintosh","Safari","15.5","OS X","10_15_7","null","null","","<p style=""font-size: 48px;"">+</p>","2","Filler","",""
"","","","","","picture","45713","image-keyboard-response","66","99956","0.0-6.0-3.7","64","2","2022-11-17 12:23:11","fd252370c17a9971d68c1d4354a03c2e","","Mozilla/5.0 (Macintosh; Intel Mac OS X 10_15_7) AppleWebKit/605.1.15 (KHTML, like Gecko) Version/15.5 Safari/605.1.15","Macintosh","Safari","15.5","OS X","10_15_7","675","n","","soap.jpg","2","Filler","true",""
"","","","","","fixation","45713","html-keyboard-response","67","100960","0.0-6.0-0.8","64","2","2022-11-17 12:23:11","fd252370c17a9971d68c1d4354a03c2e","","Mozilla/5.0 (Macintosh; Intel Mac OS X 10_15_7) AppleWebKit/605.1.15 (KHTML, like Gecko) Version/15.5 Safari/605.1.15","Macintosh","Safari","15.5","OS X","10_15_7","null","null","","<p style=""font-size: 48px;"">+</p>","2","Filler","",""
"","","","","","sentence","45713","html-keyboard-response","68","102186","0.0-6.0-1.8","64","2","2022-11-17 12:23:11","fd252370c17a9971d68c1d4354a03c2e","","Mozilla/5.0 (Macintosh; Intel Mac OS X 10_15_7) AppleWebKit/605.1.15 (KHTML, like Gecko) Version/15.5 Safari/605.1.15","Macintosh","Safari","15.5","OS X","10_15_7","1223"," ","","A needle was placed on the mouse pad","2","Filler","",""
"","","","","","fixation","45713","html-keyboard-response","69","102690","0.0-6.0-2.8","64","2","2022-11-17 12:23:11","fd252370c17a9971d68c1d4354a03c2e","","Mozilla/5.0 (Macintosh; Intel Mac OS X 10_15_7) AppleWebKit/605.1.15 (KHTML, like Gecko) Version/15.5 Safari/605.1.15","Macintosh","Safari","15.5","OS X","10_15_7","null","null","","<p style=""font-size: 48px;"">+</p>","2","Filler","",""
"","","","","","picture","45713","image-keyboard-response","70","103303","0.0-6.0-3.8","64","2","2022-11-17 12:23:11","fd252370c17a9971d68c1d4354a03c2e","","Mozilla/5.0 (Macintosh; Intel Mac OS X 10_15_7) AppleWebKit/605.1.15 (KHTML, like Gecko) Version/15.5 Safari/605.1.15","Macintosh","Safari","15.5","OS X","10_15_7","603","n","","chocolate.jpg","2","Filler","true",""
"","","","","","fixation","45713","html-keyboard-response","71","104307","0.0-6.0-0.9","64","2","2022-11-17 12:23:11","fd252370c17a9971d68c1d4354a03c2e","","Mozilla/5.0 (Macintosh; Intel Mac OS X 10_15_7) AppleWebKit/605.1.15 (KHTML, like Gecko) Version/15.5 Safari/605.1.15","Macintosh","Safari","15.5","OS X","10_15_7","null","null","","<p style=""font-size: 48px;"">+</p>","2","Filler","",""
"","","","","","sentence","45713","html-keyboard-response","72","107168","0.0-6.0-1.9","64","2","2022-11-17 12:23:11","fd252370c17a9971d68c1d4354a03c2e","","Mozilla/5.0 (Macintosh; Intel Mac OS X 10_15_7) AppleWebKit/605.1.15 (KHTML, like Gecko) Version/15.5 Safari/605.1.15","Macintosh","Safari","15.5","OS X","10_15_7","2859"," ","","A doctor is taking a stethoscope","2","Filler","",""
"","","","","","fixation","45713","html-keyboard-response","73","107672","0.0-6.0-2.9","64","2","2022-11-17 12:23:11","fd252370c17a9971d68c1d4354a03c2e","","Mozilla/5.0 (Macintosh; Intel Mac OS X 10_15_7) AppleWebKit/605.1.15 (KHTML, like Gecko) Version/15.5 Safari/605.1.15","Macintosh","Safari","15.5","OS X","10_15_7","null","null","","<p style=""font-size: 48px;"">+</p>","2","Filler","",""
"","","","","","picture","45713","image-keyboard-response","74","108324","0.0-6.0-3.9","64","2","2022-11-17 12:23:11","fd252370c17a9971d68c1d4354a03c2e","","Mozilla/5.0 (Macintosh; Intel Mac OS X 10_15_7) AppleWebKit/605.1.15 (KHTML, like Gecko) Version/15.5 Safari/605.1.15","Macintosh","Safari","15.5","OS X","10_15_7","641","n","","matchesbox.jpg","2","Filler","true",""
"","","","","","fixation","45713","html-keyboard-response","75","109328","0.0-6.0-0.10","64","2","2022-11-17 12:23:11","fd252370c17a9971d68c1d4354a03c2e","","Mozilla/5.0 (Macintosh; Intel Mac OS X 10_15_7) AppleWebKit/605.1.15 (KHTML, like Gecko) Version/15.5 Safari/605.1.15","Macintosh","Safari","15.5","OS X","10_15_7","null","null","","<p style=""font-size: 48px;"">+</p>","2","Filler","",""
"","","","","","sentence","45713","html-keyboard-response","76","110671","0.0-6.0-1.10","64","2","2022-11-17 12:23:11","fd252370c17a9971d68c1d4354a03c2e","","Mozilla/5.0 (Macintosh; Intel Mac OS X 10_15_7) AppleWebKit/605.1.15 (KHTML, like Gecko) Version/15.5 Safari/605.1.15","Macintosh","Safari","15.5","OS X","10_15_7","1339"," ","","A cabbage was placed on the table","2","Filler","",""
"","","","","","fixation","45713","html-keyboard-response","77","111174","0.0-6.0-2.10","64","2","2022-11-17 12:23:11","fd252370c17a9971d68c1d4354a03c2e","","Mozilla/5.0 (Macintosh; Intel Mac OS X 10_15_7) AppleWebKit/605.1.15 (KHTML, like Gecko) Version/15.5 Safari/605.1.15","Macintosh","Safari","15.5","OS X","10_15_7","null","null","","<p style=""font-size: 48px;"">+</p>","2","Filler","",""
"","","","","","picture","45713","image-keyboard-response","78","111742","0.0-6.0-3.10","64","2","2022-11-17 12:23:11","fd252370c17a9971d68c1d4354a03c2e","","Mozilla/5.0 (Macintosh; Intel Mac OS X 10_15_7) AppleWebKit/605.1.15 (KHTML, like Gecko) Version/15.5 Safari/605.1.15","Macintosh","Safari","15.5","OS X","10_15_7","558","n","","ladder.jpg","2","Filler","true",""
"","","","","","fixation","45713","html-keyboard-response","79","112746","0.0-6.0-0.11","64","2","2022-11-17 12:23:11","fd252370c17a9971d68c1d4354a03c2e","","Mozilla/5.0 (Macintosh; Intel Mac OS X 10_15_7) AppleWebKit/605.1.15 (KHTML, like Gecko) Version/15.5 Safari/605.1.15","Macintosh","Safari","15.5","OS X","10_15_7","null","null","","<p style=""font-size: 48px;"">+</p>","2","Filler","",""
"","","","","","sentence","45713","html-keyboard-response","80","113626","0.0-6.0-1.11","64","2","2022-11-17 12:23:11","fd252370c17a9971d68c1d4354a03c2e","","Mozilla/5.0 (Macintosh; Intel Mac OS X 10_15_7) AppleWebKit/605.1.15 (KHTML, like Gecko) Version/15.5 Safari/605.1.15","Macintosh","Safari","15.5","OS X","10_15_7","878"," ","","A man is boiling potatoes.","2","Filler","",""
"","","","","","fixation","45713","html-keyboard-response","81","114131","0.0-6.0-2.11","64","2","2022-11-17 12:23:11","fd252370c17a9971d68c1d4354a03c2e","","Mozilla/5.0 (Macintosh; Intel Mac OS X 10_15_7) AppleWebKit/605.1.15 (KHTML, like Gecko) Version/15.5 Safari/605.1.15","Macintosh","Safari","15.5","OS X","10_15_7","null","null","","<p style=""font-size: 48px;"">+</p>","2","Filler","",""
"","","","","","picture","45713","image-keyboard-response","82","114692","0.0-6.0-3.11","64","2","2022-11-17 12:23:11","fd252370c17a9971d68c1d4354a03c2e","","Mozilla/5.0 (Macintosh; Intel Mac OS X 10_15_7) AppleWebKit/605.1.15 (KHTML, like Gecko) Version/15.5 Safari/605.1.15","Macintosh","Safari","15.5","OS X","10_15_7","551","n","","cup.jpg","2","Filler","true",""
"","","","","","fixation","45713","html-keyboard-response","83","115697","0.0-6.0-0.12","64","2","2022-11-17 12:23:11","fd252370c17a9971d68c1d4354a03c2e","","Mozilla/5.0 (Macintosh; Intel Mac OS X 10_15_7) AppleWebKit/605.1.15 (KHTML, like Gecko) Version/15.5 Safari/605.1.15","Macintosh","Safari","15.5","OS X","10_15_7","null","null","","<p style=""font-size: 48px;"">+</p>","2","Heavy_Matched","",""
"","","","","","sentence","45713","html-keyboard-response","84","117088","0.0-6.0-1.12","64","2","2022-11-17 12:23:11","fd252370c17a9971d68c1d4354a03c2e","","Mozilla/5.0 (Macintosh; Intel Mac OS X 10_15_7) AppleWebKit/605.1.15 (KHTML, like Gecko) Version/15.5 Safari/605.1.15","Macintosh","Safari","15.5","OS X","10_15_7","1387"," ","","A bowling ball dropped and smashed a banana","2","Heavy_Matched","",""
"","","","","","fixation","45713","html-keyboard-response","85","117592","0.0-6.0-2.12","64","2","2022-11-17 12:23:11","fd252370c17a9971d68c1d4354a03c2e","","Mozilla/5.0 (Macintosh; Intel Mac OS X 10_15_7) AppleWebKit/605.1.15 (KHTML, like Gecko) Version/15.5 Safari/605.1.15","Macintosh","Safari","15.5","OS X","10_15_7","null","null","","<p style=""font-size: 48px;"">+</p>","2","Heavy_Matched","",""
"","","","","","picture","45713","image-keyboard-response","86","118125","0.0-6.0-3.12","64","2","2022-11-17 12:23:11","fd252370c17a9971d68c1d4354a03c2e","","Mozilla/5.0 (Macintosh; Intel Mac OS X 10_15_7) AppleWebKit/605.1.15 (KHTML, like Gecko) Version/15.5 Safari/605.1.15","Macintosh","Safari","15.5","OS X","10_15_7","517","s","","bananaS.jpg","2","Heavy_Matched","true",""
"","","","","","fixation","45713","html-keyboard-response","87","119129","0.0-6.0-0.13","64","2","2022-11-17 12:23:11","fd252370c17a9971d68c1d4354a03c2e","","Mozilla/5.0 (Macintosh; Intel Mac OS X 10_15_7) AppleWebKit/605.1.15 (KHTML, like Gecko) Version/15.5 Safari/605.1.15","Macintosh","Safari","15.5","OS X","10_15_7","null","null","","<p style=""font-size: 48px;"">+</p>","2","Filler","",""
"","","","","","sentence","45713","html-keyboard-response","88","120706","0.0-6.0-1.13","64","2","2022-11-17 12:23:11","fd252370c17a9971d68c1d4354a03c2e","","Mozilla/5.0 (Macintosh; Intel Mac OS X 10_15_7) AppleWebKit/605.1.15 (KHTML, like Gecko) Version/15.5 Safari/605.1.15","Macintosh","Safari","15.5","OS X","10_15_7","1573"," ","","A panda is resting on a tree","2","Filler","",""
"","","","","","fixation","45713","html-keyboard-response","89","121209","0.0-6.0-2.13","64","2","2022-11-17 12:23:11","fd252370c17a9971d68c1d4354a03c2e","","Mozilla/5.0 (Macintosh; Intel Mac OS X 10_15_7) AppleWebKit/605.1.15 (KHTML, like Gecko) Version/15.5 Safari/605.1.15","Macintosh","Safari","15.5","OS X","10_15_7","null","null","","<p style=""font-size: 48px;"">+</p>","2","Filler","",""
"","","","","","picture","45713","image-keyboard-response","90","121710","0.0-6.0-3.13","64","2","2022-11-17 12:23:11","fd252370c17a9971d68c1d4354a03c2e","","Mozilla/5.0 (Macintosh; Intel Mac OS X 10_15_7) AppleWebKit/605.1.15 (KHTML, like Gecko) Version/15.5 Safari/605.1.15","Macintosh","Safari","15.5","OS X","10_15_7","488","n","","dollar.jpg","2","Filler","true",""
"","","","","","fixation","45713","html-keyboard-response","91","122714","0.0-6.0-0.14","64","2","2022-11-17 12:23:11","fd252370c17a9971d68c1d4354a03c2e","","Mozilla/5.0 (Macintosh; Intel Mac OS X 10_15_7) AppleWebKit/605.1.15 (KHTML, like Gecko) Version/15.5 Safari/605.1.15","Macintosh","Safari","15.5","OS X","10_15_7","null","null","","<p style=""font-size: 48px;"">+</p>","2","Light_Matched","",""
"","","","","","sentence","45713","html-keyboard-response","92","123797","0.0-6.0-1.14","64","2","2022-11-17 12:23:11","fd252370c17a9971d68c1d4354a03c2e","","Mozilla/5.0 (Macintosh; Intel Mac OS X 10_15_7) AppleWebKit/605.1.15 (KHTML, like Gecko) Version/15.5 Safari/605.1.15","Macintosh","Safari","15.5","OS X","10_15_7","1079"," ","","A balloon dropped and touched a vase","2","Light_Matched","",""
"","","","","","fixation","45713","html-keyboard-response","93","124301","0.0-6.0-2.14","64","2","2022-11-17 12:23:11","fd252370c17a9971d68c1d4354a03c2e","","Mozilla/5.0 (Macintosh; Intel Mac OS X 10_15_7) AppleWebKit/605.1.15 (KHTML, like Gecko) Version/15.5 Safari/605.1.15","Macintosh","Safari","15.5","OS X","10_15_7","null","null","","<p style=""font-size: 48px;"">+</p>","2","Light_Matched","",""
"","","","","","picture","45713","image-keyboard-response","94","125167","0.0-6.0-3.14","64","2","2022-11-17 12:23:11","fd252370c17a9971d68c1d4354a03c2e","","Mozilla/5.0 (Macintosh; Intel Mac OS X 10_15_7) AppleWebKit/605.1.15 (KHTML, like Gecko) Version/15.5 Safari/605.1.15","Macintosh","Safari","15.5","OS X","10_15_7","854","s","","vaseS.jpg","2","Light_Matched","true",""
"","","","","","fixation","45713","html-keyboard-response","95","126171","0.0-6.0-0.15","64","2","2022-11-17 12:23:11","fd252370c17a9971d68c1d4354a03c2e","","Mozilla/5.0 (Macintosh; Intel Mac OS X 10_15_7) AppleWebKit/605.1.15 (KHTML, like Gecko) Version/15.5 Safari/605.1.15","Macintosh","Safari","15.5","OS X","10_15_7","null","null","","<p style=""font-size: 48px;"">+</p>","2","Filler","",""
"","","","","","sentence","45713","html-keyboard-response","96","128901","0.0-6.0-1.15","64","2","2022-11-17 12:23:11","fd252370c17a9971d68c1d4354a03c2e","","Mozilla/5.0 (Macintosh; Intel Mac OS X 10_15_7) AppleWebKit/605.1.15 (KHTML, like Gecko) Version/15.5 Safari/605.1.15","Macintosh","Safari","15.5","OS X","10_15_7","2726"," ","","A cat is drinking water from a bowl","2","Filler","",""
"","","","","","fixation","45713","html-keyboard-response","97","129404","0.0-6.0-2.15","64","2","2022-11-17 12:23:11","fd252370c17a9971d68c1d4354a03c2e","","Mozilla/5.0 (Macintosh; Intel Mac OS X 10_15_7) AppleWebKit/605.1.15 (KHTML, like Gecko) Version/15.5 Safari/605.1.15","Macintosh","Safari","15.5","OS X","10_15_7","null","null","","<p style=""font-size: 48px;"">+</p>","2","Filler","",""
"","","","","","picture","45713","image-keyboard-response","98","130238","0.0-6.0-3.15","64","2","2022-11-17 12:23:11","fd252370c17a9971d68c1d4354a03c2e","","Mozilla/5.0 (Macintosh; Intel Mac OS X 10_15_7) AppleWebKit/605.1.15 (KHTML, like Gecko) Version/15.5 Safari/605.1.15","Macintosh","Safari","15.5","OS X","10_15_7","825","s","","bowl.jpg","2","Filler","true",""
"","","","","","fixation","45713","html-keyboard-response","99","131242","0.0-6.0-0.16","64","2","2022-11-17 12:23:11","fd252370c17a9971d68c1d4354a03c2e","","Mozilla/5.0 (Macintosh; Intel Mac OS X 10_15_7) AppleWebKit/605.1.15 (KHTML, like Gecko) Version/15.5 Safari/605.1.15","Macintosh","Safari","15.5","OS X","10_15_7","null","null","","<p style=""font-size: 48px;"">+</p>","2","Filler","",""
"","","","","","sentence","45713","html-keyboard-response","100","132124","0.0-6.0-1.16","64","2","2022-11-17 12:23:11","fd252370c17a9971d68c1d4354a03c2e","","Mozilla/5.0 (Macintosh; Intel Mac OS X 10_15_7) AppleWebKit/605.1.15 (KHTML, like Gecko) Version/15.5 Safari/605.1.15","Macintosh","Safari","15.5","OS X","10_15_7","874"," ","","A thief is stealing a wallet","2","Filler","",""
"","","","","","fixation","45713","html-keyboard-response","101","132628","0.0-6.0-2.16","64","2","2022-11-17 12:23:11","fd252370c17a9971d68c1d4354a03c2e","","Mozilla/5.0 (Macintosh; Intel Mac OS X 10_15_7) AppleWebKit/605.1.15 (KHTML, like Gecko) Version/15.5 Safari/605.1.15","Macintosh","Safari","15.5","OS X","10_15_7","null","null","","<p style=""font-size: 48px;"">+</p>","2","Filler","",""
"","","","","","picture","45713","image-keyboard-response","102","133195","0.0-6.0-3.16","64","2","2022-11-17 12:23:11","fd252370c17a9971d68c1d4354a03c2e","","Mozilla/5.0 (Macintosh; Intel Mac OS X 10_15_7) AppleWebKit/605.1.15 (KHTML, like Gecko) Version/15.5 Safari/605.1.15","Macintosh","Safari","15.5","OS X","10_15_7","557","n","","teddybear.jpg","2","Filler","true",""
"","","","","","fixation","45713","html-keyboard-response","103","134200","0.0-6.0-0.17","64","2","2022-11-17 12:23:11","fd252370c17a9971d68c1d4354a03c2e","","Mozilla/5.0 (Macintosh; Intel Mac OS X 10_15_7) AppleWebKit/605.1.15 (KHTML, like Gecko) Version/15.5 Safari/605.1.15","Macintosh","Safari","15.5","OS X","10_15_7","null","null","","<p style=""font-size: 48px;"">+</p>","2","Filler","",""
"","","","","","sentence","45713","html-keyboard-response","104","135297","0.0-6.0-1.17","64","2","2022-11-17 12:23:11","fd252370c17a9971d68c1d4354a03c2e","","Mozilla/5.0 (Macintosh; Intel Mac OS X 10_15_7) AppleWebKit/605.1.15 (KHTML, like Gecko) Version/15.5 Safari/605.1.15","Macintosh","Safari","15.5","OS X","10_15_7","1093"," ","","A woman is taking money out of a wallet","2","Filler","",""
"","","","","","fixation","45713","html-keyboard-response","105","135801","0.0-6.0-2.17","64","2","2022-11-17 12:23:11","fd252370c17a9971d68c1d4354a03c2e","","Mozilla/5.0 (Macintosh; Intel Mac OS X 10_15_7) AppleWebKit/605.1.15 (KHTML, like Gecko) Version/15.5 Safari/605.1.15","Macintosh","Safari","15.5","OS X","10_15_7","null","null","","<p style=""font-size: 48px;"">+</p>","2","Filler","",""
"","","","","","picture","45713","image-keyboard-response","106","136415","0.0-6.0-3.17","64","2","2022-11-17 12:23:11","fd252370c17a9971d68c1d4354a03c2e","","Mozilla/5.0 (Macintosh; Intel Mac OS X 10_15_7) AppleWebKit/605.1.15 (KHTML, like Gecko) Version/15.5 Safari/605.1.15","Macintosh","Safari","15.5","OS X","10_15_7","600","n","","coconut.jpg","2","Filler","true",""
"","","","","","fixation","45713","html-keyboard-response","107","137419","0.0-6.0-0.18","64","2","2022-11-17 12:23:11","fd252370c17a9971d68c1d4354a03c2e","","Mozilla/5.0 (Macintosh; Intel Mac OS X 10_15_7) AppleWebKit/605.1.15 (KHTML, like Gecko) Version/15.5 Safari/605.1.15","Macintosh","Safari","15.5","OS X","10_15_7","null","null","","<p style=""font-size: 48px;"">+</p>","2","Filler","",""
"","","","","","sentence","45713","html-keyboard-response","108","138440","0.0-6.0-1.18","64","2","2022-11-17 12:23:11","fd252370c17a9971d68c1d4354a03c2e","","Mozilla/5.0 (Macintosh; Intel Mac OS X 10_15_7) AppleWebKit/605.1.15 (KHTML, like Gecko) Version/15.5 Safari/605.1.15","Macintosh","Safari","15.5","OS X","10_15_7","1016"," ","","A thermometer was placed on the box","2","Filler","",""
"","","","","","fixation","45713","html-keyboard-response","109","138944","0.0-6.0-2.18","64","2","2022-11-17 12:23:11","fd252370c17a9971d68c1d4354a03c2e","","Mozilla/5.0 (Macintosh; Intel Mac OS X 10_15_7) AppleWebKit/605.1.15 (KHTML, like Gecko) Version/15.5 Safari/605.1.15","Macintosh","Safari","15.5","OS X","10_15_7","null","null","","<p style=""font-size: 48px;"">+</p>","2","Filler","",""
"","","","","","picture","45713","image-keyboard-response","110","139663","0.0-6.0-3.18","64","2","2022-11-17 12:23:11","fd252370c17a9971d68c1d4354a03c2e","","Mozilla/5.0 (Macintosh; Intel Mac OS X 10_15_7) AppleWebKit/605.1.15 (KHTML, like Gecko) Version/15.5 Safari/605.1.15","Macintosh","Safari","15.5","OS X","10_15_7","708","n","","button.jpg","2","Filler","true",""
"","","","","","fixation","45713","html-keyboard-response","111","140667","0.0-6.0-0.19","64","2","2022-11-17 12:23:11","fd252370c17a9971d68c1d4354a03c2e","","Mozilla/5.0 (Macintosh; Intel Mac OS X 10_15_7) AppleWebKit/605.1.15 (KHTML, like Gecko) Version/15.5 Safari/605.1.15","Macintosh","Safari","15.5","OS X","10_15_7","null","null","","<p style=""font-size: 48px;"">+</p>","2","Filler","",""
"","","","","","sentence","45713","html-keyboard-response","112","141347","0.0-6.0-1.19","64","2","2022-11-17 12:23:11","fd252370c17a9971d68c1d4354a03c2e","","Mozilla/5.0 (Macintosh; Intel Mac OS X 10_15_7) AppleWebKit/605.1.15 (KHTML, like Gecko) Version/15.5 Safari/605.1.15","Macintosh","Safari","15.5","OS X","10_15_7","676"," ","","A boy is wearing a hat","2","Filler","",""
"","","","","","fixation","45713","html-keyboard-response","113","141850","0.0-6.0-2.19","64","2","2022-11-17 12:23:11","fd252370c17a9971d68c1d4354a03c2e","","Mozilla/5.0 (Macintosh; Intel Mac OS X 10_15_7) AppleWebKit/605.1.15 (KHTML, like Gecko) Version/15.5 Safari/605.1.15","Macintosh","Safari","15.5","OS X","10_15_7","null","null","","<p style=""font-size: 48px;"">+</p>","2","Filler","",""
"","","","","","picture","45713","image-keyboard-response","114","142625","0.0-6.0-3.19","64","2","2022-11-17 12:23:11","fd252370c17a9971d68c1d4354a03c2e","","Mozilla/5.0 (Macintosh; Intel Mac OS X 10_15_7) AppleWebKit/605.1.15 (KHTML, like Gecko) Version/15.5 Safari/605.1.15","Macintosh","Safari","15.5","OS X","10_15_7","761","s","","hat.jpg","2","Filler","true",""
"","","","","","fixation","45713","html-keyboard-response","115","143629","0.0-6.0-0.20","64","2","2022-11-17 12:23:11","fd252370c17a9971d68c1d4354a03c2e","","Mozilla/5.0 (Macintosh; Intel Mac OS X 10_15_7) AppleWebKit/605.1.15 (KHTML, like Gecko) Version/15.5 Safari/605.1.15","Macintosh","Safari","15.5","OS X","10_15_7","null","null","","<p style=""font-size: 48px;"">+</p>","2","Heavy_Contradictory","",""
"","","","","","sentence","45713","html-keyboard-response","116","146125","0.0-6.0-1.20","64","2","2022-11-17 12:23:11","fd252370c17a9971d68c1d4354a03c2e","","Mozilla/5.0 (Macintosh; Intel Mac OS X 10_15_7) AppleWebKit/605.1.15 (KHTML, like Gecko) Version/15.5 Safari/605.1.15","Macintosh","Safari","15.5","OS X","10_15_7","2494"," ","","A bowling ball dropped and touched a rice cake","2","Heavy_Contradictory","",""
"","","","","","fixation","45713","html-keyboard-response","117","146629","0.0-6.0-2.20","64","2","2022-11-17 12:23:11","fd252370c17a9971d68c1d4354a03c2e","","Mozilla/5.0 (Macintosh; Intel Mac OS X 10_15_7) AppleWebKit/605.1.15 (KHTML, like Gecko) Version/15.5 Safari/605.1.15","Macintosh","Safari","15.5","OS X","10_15_7","null","null","","<p style=""font-size: 48px;"">+</p>","2","Heavy_Contradictory","",""
"","","","","","picture","45713","image-keyboard-response","118","147295","0.0-6.0-3.20","64","2","2022-11-17 12:23:11","fd252370c17a9971d68c1d4354a03c2e","","Mozilla/5.0 (Macintosh; Intel Mac OS X 10_15_7) AppleWebKit/605.1.15 (KHTML, like Gecko) Version/15.5 Safari/605.1.15","Macintosh","Safari","15.5","OS X","10_15_7","655","s","","tortitaS.jpg","2","Heavy_Contradictory","true",""
"","","","","","fixation","45713","html-keyboard-response","119","148299","0.0-6.0-0.21","64","2","2022-11-17 12:23:11","fd252370c17a9971d68c1d4354a03c2e","","Mozilla/5.0 (Macintosh; Intel Mac OS X 10_15_7) AppleWebKit/605.1.15 (KHTML, like Gecko) Version/15.5 Safari/605.1.15","Macintosh","Safari","15.5","OS X","10_15_7","null","null","","<p style=""font-size: 48px;"">+</p>","2","Light_Matched","",""
"","","","","","sentence","45713","html-keyboard-response","120","149389","0.0-6.0-1.21","64","2","2022-11-17 12:23:11","fd252370c17a9971d68c1d4354a03c2e","","Mozilla/5.0 (Macintosh; Intel Mac OS X 10_15_7) AppleWebKit/605.1.15 (KHTML, like Gecko) Version/15.5 Safari/605.1.15","Macintosh","Safari","15.5","OS X","10_15_7","1086"," ","","A balloon dropped and touched a tomato","2","Light_Matched","",""
"","","","","","fixation","45713","html-keyboard-response","121","149893","0.0-6.0-2.21","64","2","2022-11-17 12:23:11","fd252370c17a9971d68c1d4354a03c2e","","Mozilla/5.0 (Macintosh; Intel Mac OS X 10_15_7) AppleWebKit/605.1.15 (KHTML, like Gecko) Version/15.5 Safari/605.1.15","Macintosh","Safari","15.5","OS X","10_15_7","null","null","","<p style=""font-size: 48px;"">+</p>","2","Light_Matched","",""
"","","","","","picture","45713","image-keyboard-response","122","151370","0.0-6.0-3.21","64","2","2022-11-17 12:23:11","fd252370c17a9971d68c1d4354a03c2e","","Mozilla/5.0 (Macintosh; Intel Mac OS X 10_15_7) AppleWebKit/605.1.15 (KHTML, like Gecko) Version/15.5 Safari/605.1.15","Macintosh","Safari","15.5","OS X","10_15_7","1465","s","","tomatoS.jpg","2","Light_Matched","true",""
"","","","","","fixation","45713","html-keyboard-response","123","152374","0.0-6.0-0.22","64","2","2022-11-17 12:23:11","fd252370c17a9971d68c1d4354a03c2e","","Mozilla/5.0 (Macintosh; Intel Mac OS X 10_15_7) AppleWebKit/605.1.15 (KHTML, like Gecko) Version/15.5 Safari/605.1.15","Macintosh","Safari","15.5","OS X","10_15_7","null","null","","<p style=""font-size: 48px;"">+</p>","2","Filler","",""
"","","","","","sentence","45713","html-keyboard-response","124","153097","0.0-6.0-1.22","64","2","2022-11-17 12:23:11","fd252370c17a9971d68c1d4354a03c2e","","Mozilla/5.0 (Macintosh; Intel Mac OS X 10_15_7) AppleWebKit/605.1.15 (KHTML, like Gecko) Version/15.5 Safari/605.1.15","Macintosh","Safari","15.5","OS X","10_15_7","720"," ","","A musician is playing a guitar","2","Filler","",""
"","","","","","fixation","45713","html-keyboard-response","125","153601","0.0-6.0-2.22","64","2","2022-11-17 12:23:11","fd252370c17a9971d68c1d4354a03c2e","","Mozilla/5.0 (Macintosh; Intel Mac OS X 10_15_7) AppleWebKit/605.1.15 (KHTML, like Gecko) Version/15.5 Safari/605.1.15","Macintosh","Safari","15.5","OS X","10_15_7","null","null","","<p style=""font-size: 48px;"">+</p>","2","Filler","",""
"","","","","","picture","45713","image-keyboard-response","126","154069","0.0-6.0-3.22","64","2","2022-11-17 12:23:11","fd252370c17a9971d68c1d4354a03c2e","","Mozilla/5.0 (Macintosh; Intel Mac OS X 10_15_7) AppleWebKit/605.1.15 (KHTML, like Gecko) Version/15.5 Safari/605.1.15","Macintosh","Safari","15.5","OS X","10_15_7","456","s","","guitar.jpg","2","Filler","true",""
"","","","","","fixation","45713","html-keyboard-response","127","155073","0.0-6.0-0.23","64","2","2022-11-17 12:23:11","fd252370c17a9971d68c1d4354a03c2e","","Mozilla/5.0 (Macintosh; Intel Mac OS X 10_15_7) AppleWebKit/605.1.15 (KHTML, like Gecko) Version/15.5 Safari/605.1.15","Macintosh","Safari","15.5","OS X","10_15_7","null","null","","<p style=""font-size: 48px;"">+</p>","2","Filler","",""
"","","","","","sentence","45713","html-keyboard-response","128","155952","0.0-6.0-1.23","64","2","2022-11-17 12:23:11","fd252370c17a9971d68c1d4354a03c2e","","Mozilla/5.0 (Macintosh; Intel Mac OS X 10_15_7) AppleWebKit/605.1.15 (KHTML, like Gecko) Version/15.5 Safari/605.1.15","Macintosh","Safari","15.5","OS X","10_15_7","875"," ","","A kitten is playing in the sandbox","2","Filler","",""
"","","","","","fixation","45713","html-keyboard-response","129","156456","0.0-6.0-2.23","64","2","2022-11-17 12:23:11","fd252370c17a9971d68c1d4354a03c2e","","Mozilla/5.0 (Macintosh; Intel Mac OS X 10_15_7) AppleWebKit/605.1.15 (KHTML, like Gecko) Version/15.5 Safari/605.1.15","Macintosh","Safari","15.5","OS X","10_15_7","null","null","","<p style=""font-size: 48px;"">+</p>","2","Filler","",""
"","","","","","picture","45713","image-keyboard-response","130","157101","0.0-6.0-3.23","64","2","2022-11-17 12:23:11","fd252370c17a9971d68c1d4354a03c2e","","Mozilla/5.0 (Macintosh; Intel Mac OS X 10_15_7) AppleWebKit/605.1.15 (KHTML, like Gecko) Version/15.5 Safari/605.1.15","Macintosh","Safari","15.5","OS X","10_15_7","634","n","","dustbin.jpg","2","Filler","true",""
"","","","","","fixation","45713","html-keyboard-response","131","158105","0.0-6.0-0.24","64","2","2022-11-17 12:23:11","fd252370c17a9971d68c1d4354a03c2e","","Mozilla/5.0 (Macintosh; Intel Mac OS X 10_15_7) AppleWebKit/605.1.15 (KHTML, like Gecko) Version/15.5 Safari/605.1.15","Macintosh","Safari","15.5","OS X","10_15_7","null","null","","<p style=""font-size: 48px;"">+</p>","2","Light_Contradictory","",""
"","","","","","sentence","45713","html-keyboard-response","132","159199","0.0-6.0-1.24","64","2","2022-11-17 12:23:11","fd252370c17a9971d68c1d4354a03c2e","","Mozilla/5.0 (Macintosh; Intel Mac OS X 10_15_7) AppleWebKit/605.1.15 (KHTML, like Gecko) Version/15.5 Safari/605.1.15","Macintosh","Safari","15.5","OS X","10_15_7","1089"," ","","A balloon dropped and smashed an egg","2","Light_Contradictory","",""
"","","","","","fixation","45713","html-keyboard-response","133","159703","0.0-6.0-2.24","64","2","2022-11-17 12:23:11","fd252370c17a9971d68c1d4354a03c2e","","Mozilla/5.0 (Macintosh; Intel Mac OS X 10_15_7) AppleWebKit/605.1.15 (KHTML, like Gecko) Version/15.5 Safari/605.1.15","Macintosh","Safari","15.5","OS X","10_15_7","null","null","","<p style=""font-size: 48px;"">+</p>","2","Light_Contradictory","",""
"","","","","","picture","45713","image-keyboard-response","134","160156","0.0-6.0-3.24","64","2","2022-11-17 12:23:11","fd252370c17a9971d68c1d4354a03c2e","","Mozilla/5.0 (Macintosh; Intel Mac OS X 10_15_7) AppleWebKit/605.1.15 (KHTML, like Gecko) Version/15.5 Safari/605.1.15","Macintosh","Safari","15.5","OS X","10_15_7","441","s","","eggS.jpg","2","Light_Contradictory","true",""
"","","","","","fixation","45713","html-keyboard-response","135","161160","0.0-6.0-0.25","64","2","2022-11-17 12:23:11","fd252370c17a9971d68c1d4354a03c2e","","Mozilla/5.0 (Macintosh; Intel Mac OS X 10_15_7) AppleWebKit/605.1.15 (KHTML, like Gecko) Version/15.5 Safari/605.1.15","Macintosh","Safari","15.5","OS X","10_15_7","null","null","","<p style=""font-size: 48px;"">+</p>","2","Filler","",""
"","","","","","sentence","45713","html-keyboard-response","136","164770","0.0-6.0-1.25","64","2","2022-11-17 12:23:11","fd252370c17a9971d68c1d4354a03c2e","","Mozilla/5.0 (Macintosh; Intel Mac OS X 10_15_7) AppleWebKit/605.1.15 (KHTML, like Gecko) Version/15.5 Safari/605.1.15","Macintosh","Safari","15.5","OS X","10_15_7","3606"," ","","An owl is sitting on the branch","2","Filler","",""
"","","","","","fixation","45713","html-keyboard-response","137","165274","0.0-6.0-2.25","64","2","2022-11-17 12:23:11","fd252370c17a9971d68c1d4354a03c2e","","Mozilla/5.0 (Macintosh; Intel Mac OS X 10_15_7) AppleWebKit/605.1.15 (KHTML, like Gecko) Version/15.5 Safari/605.1.15","Macintosh","Safari","15.5","OS X","10_15_7","null","null","","<p style=""font-size: 48px;"">+</p>","2","Filler","",""
"","","","","","picture","45713","image-keyboard-response","138","165800","0.0-6.0-3.25","64","2","2022-11-17 12:23:11","fd252370c17a9971d68c1d4354a03c2e","","Mozilla/5.0 (Macintosh; Intel Mac OS X 10_15_7) AppleWebKit/605.1.15 (KHTML, like Gecko) Version/15.5 Safari/605.1.15","Macintosh","Safari","15.5","OS X","10_15_7","515","n","","rubberduck.jpg","2","Filler","true",""
"","","","","","fixation","45713","html-keyboard-response","139","166805","0.0-6.0-0.26","64","2","2022-11-17 12:23:11","fd252370c17a9971d68c1d4354a03c2e","","Mozilla/5.0 (Macintosh; Intel Mac OS X 10_15_7) AppleWebKit/605.1.15 (KHTML, like Gecko) Version/15.5 Safari/605.1.15","Macintosh","Safari","15.5","OS X","10_15_7","null","null","","<p style=""font-size: 48px;"">+</p>","2","Filler","",""
"","","","","","sentence","45713","html-keyboard-response","140","168151","0.0-6.0-1.26","64","2","2022-11-17 12:23:11","fd252370c17a9971d68c1d4354a03c2e","","Mozilla/5.0 (Macintosh; Intel Mac OS X 10_15_7) AppleWebKit/605.1.15 (KHTML, like Gecko) Version/15.5 Safari/605.1.15","Macintosh","Safari","15.5","OS X","10_15_7","1342"," ","","A man is shaving his beard","2","Filler","",""
"","","","","","fixation","45713","html-keyboard-response","141","168656","0.0-6.0-2.26","64","2","2022-11-17 12:23:11","fd252370c17a9971d68c1d4354a03c2e","","Mozilla/5.0 (Macintosh; Intel Mac OS X 10_15_7) AppleWebKit/605.1.15 (KHTML, like Gecko) Version/15.5 Safari/605.1.15","Macintosh","Safari","15.5","OS X","10_15_7","null","null","","<p style=""font-size: 48px;"">+</p>","2","Filler","",""
"","","","","","picture","45713","image-keyboard-response","142","169155","0.0-6.0-3.26","64","2","2022-11-17 12:23:11","fd252370c17a9971d68c1d4354a03c2e","","Mozilla/5.0 (Macintosh; Intel Mac OS X 10_15_7) AppleWebKit/605.1.15 (KHTML, like Gecko) Version/15.5 Safari/605.1.15","Macintosh","Safari","15.5","OS X","10_15_7","487","n","","clock.jpg","2","Filler","true",""
"","","","","","fixation","45713","html-keyboard-response","143","170159","0.0-6.0-0.27","64","2","2022-11-17 12:23:11","fd252370c17a9971d68c1d4354a03c2e","","Mozilla/5.0 (Macintosh; Intel Mac OS X 10_15_7) AppleWebKit/605.1.15 (KHTML, like Gecko) Version/15.5 Safari/605.1.15","Macintosh","Safari","15.5","OS X","10_15_7","null","null","","<p style=""font-size: 48px;"">+</p>","2","Light_Contradictory","",""
"","","","","","sentence","45713","html-keyboard-response","144","171578","0.0-6.0-1.27","64","2","2022-11-17 12:23:11","fd252370c17a9971d68c1d4354a03c2e","","Mozilla/5.0 (Macintosh; Intel Mac OS X 10_15_7) AppleWebKit/605.1.15 (KHTML, like Gecko) Version/15.5 Safari/605.1.15","Macintosh","Safari","15.5","OS X","10_15_7","1412"," ","","A balloon dropped and smashed a piece of cake","2","Light_Contradictory","",""
"","","","","","fixation","45713","html-keyboard-response","145","172083","0.0-6.0-2.27","64","2","2022-11-17 12:23:11","fd252370c17a9971d68c1d4354a03c2e","","Mozilla/5.0 (Macintosh; Intel Mac OS X 10_15_7) AppleWebKit/605.1.15 (KHTML, like Gecko) Version/15.5 Safari/605.1.15","Macintosh","Safari","15.5","OS X","10_15_7","null","null","","<p style=""font-size: 48px;"">+</p>","2","Light_Contradictory","",""
"","","","","","picture","45713","image-keyboard-response","146","172522","0.0-6.0-3.27","64","2","2022-11-17 12:23:11","fd252370c17a9971d68c1d4354a03c2e","","Mozilla/5.0 (Macintosh; Intel Mac OS X 10_15_7) AppleWebKit/605.1.15 (KHTML, like Gecko) Version/15.5 Safari/605.1.15","Macintosh","Safari","15.5","OS X","10_15_7","427","s","","cakeS.jpg","2","Light_Contradictory","true",""
"","","","","","fixation","45713","html-keyboard-response","147","173526","0.0-6.0-0.28","64","2","2022-11-17 12:23:11","fd252370c17a9971d68c1d4354a03c2e","","Mozilla/5.0 (Macintosh; Intel Mac OS X 10_15_7) AppleWebKit/605.1.15 (KHTML, like Gecko) Version/15.5 Safari/605.1.15","Macintosh","Safari","15.5","OS X","10_15_7","null","null","","<p style=""font-size: 48px;"">+</p>","2","Filler","",""
"","","","","","sentence","45713","html-keyboard-response","148","174673","0.0-6.0-1.28","64","2","2022-11-17 12:23:11","fd252370c17a9971d68c1d4354a03c2e","","Mozilla/5.0 (Macintosh; Intel Mac OS X 10_15_7) AppleWebKit/605.1.15 (KHTML, like Gecko) Version/15.5 Safari/605.1.15","Macintosh","Safari","15.5","OS X","10_15_7","1142"," ","","A giraffe is playing with a zebra","2","Filler","",""
"","","","","","fixation","45713","html-keyboard-response","149","175178","0.0-6.0-2.28","64","2","2022-11-17 12:23:11","fd252370c17a9971d68c1d4354a03c2e","","Mozilla/5.0 (Macintosh; Intel Mac OS X 10_15_7) AppleWebKit/605.1.15 (KHTML, like Gecko) Version/15.5 Safari/605.1.15","Macintosh","Safari","15.5","OS X","10_15_7","null","null","","<p style=""font-size: 48px;"">+</p>","2","Filler","",""
"","","","","","picture","45713","image-keyboard-response","150","175610","0.0-6.0-3.28","64","2","2022-11-17 12:23:11","fd252370c17a9971d68c1d4354a03c2e","","Mozilla/5.0 (Macintosh; Intel Mac OS X 10_15_7) AppleWebKit/605.1.15 (KHTML, like Gecko) Version/15.5 Safari/605.1.15","Macintosh","Safari","15.5","OS X","10_15_7","421","n","","wallet.jpg","2","Filler","true",""
"","","","","","fixation","45713","html-keyboard-response","151","176614","0.0-6.0-0.29","64","2","2022-11-17 12:23:11","fd252370c17a9971d68c1d4354a03c2e","","Mozilla/5.0 (Macintosh; Intel Mac OS X 10_15_7) AppleWebKit/605.1.15 (KHTML, like Gecko) Version/15.5 Safari/605.1.15","Macintosh","Safari","15.5","OS X","10_15_7","null","null","","<p style=""font-size: 48px;"">+</p>","2","Filler","",""
"","","","","","sentence","45713","html-keyboard-response","152","178100","0.0-6.0-1.29","64","2","2022-11-17 12:23:11","fd252370c17a9971d68c1d4354a03c2e","","Mozilla/5.0 (Macintosh; Intel Mac OS X 10_15_7) AppleWebKit/605.1.15 (KHTML, like Gecko) Version/15.5 Safari/605.1.15","Macintosh","Safari","15.5","OS X","10_15_7","1480"," ","","A woman is paying with a debit card","2","Filler","",""
"","","","","","fixation","45713","html-keyboard-response","153","178605","0.0-6.0-2.29","64","2","2022-11-17 12:23:11","fd252370c17a9971d68c1d4354a03c2e","","Mozilla/5.0 (Macintosh; Intel Mac OS X 10_15_7) AppleWebKit/605.1.15 (KHTML, like Gecko) Version/15.5 Safari/605.1.15","Macintosh","Safari","15.5","OS X","10_15_7","null","null","","<p style=""font-size: 48px;"">+</p>","2","Filler","",""
"","","","","","picture","45713","image-keyboard-response","154","179176","0.0-6.0-3.29","64","2","2022-11-17 12:23:11","fd252370c17a9971d68c1d4354a03c2e","","Mozilla/5.0 (Macintosh; Intel Mac OS X 10_15_7) AppleWebKit/605.1.15 (KHTML, like Gecko) Version/15.5 Safari/605.1.15","Macintosh","Safari","15.5","OS X","10_15_7","557","n","","papercup.jpg","2","Filler","true",""
"","","","","","fixation","45713","html-keyboard-response","155","180181","0.0-6.0-0.30","64","2","2022-11-17 12:23:11","fd252370c17a9971d68c1d4354a03c2e","","Mozilla/5.0 (Macintosh; Intel Mac OS X 10_15_7) AppleWebKit/605.1.15 (KHTML, like Gecko) Version/15.5 Safari/605.1.15","Macintosh","Safari","15.5","OS X","10_15_7","null","null","","<p style=""font-size: 48px;"">+</p>","2","Light_Contradictory","",""
"","","","","","sentence","45713","html-keyboard-response","156","181499","0.0-6.0-1.30","64","2","2022-11-17 12:23:11","fd252370c17a9971d68c1d4354a03c2e","","Mozilla/5.0 (Macintosh; Intel Mac OS X 10_15_7) AppleWebKit/605.1.15 (KHTML, like Gecko) Version/15.5 Safari/605.1.15","Macintosh","Safari","15.5","OS X","10_15_7","1313"," ","","A balloon dropped and smashed a cracker","2","Light_Contradictory","",""
"","","","","","fixation","45713","html-keyboard-response","157","182004","0.0-6.0-2.30","64","2","2022-11-17 12:23:11","fd252370c17a9971d68c1d4354a03c2e","","Mozilla/5.0 (Macintosh; Intel Mac OS X 10_15_7) AppleWebKit/605.1.15 (KHTML, like Gecko) Version/15.5 Safari/605.1.15","Macintosh","Safari","15.5","OS X","10_15_7","null","null","","<p style=""font-size: 48px;"">+</p>","2","Light_Contradictory","",""
"","","","","","picture","45713","image-keyboard-response","158","182622","0.0-6.0-3.30","64","2","2022-11-17 12:23:11","fd252370c17a9971d68c1d4354a03c2e","","Mozilla/5.0 (Macintosh; Intel Mac OS X 10_15_7) AppleWebKit/605.1.15 (KHTML, like Gecko) Version/15.5 Safari/605.1.15","Macintosh","Safari","15.5","OS X","10_15_7","604","s","","crackerS.jpg","2","Light_Contradictory","true",""
"","","","","","fixation","45713","html-keyboard-response","159","183626","0.0-6.0-0.31","64","2","2022-11-17 12:23:11","fd252370c17a9971d68c1d4354a03c2e","","Mozilla/5.0 (Macintosh; Intel Mac OS X 10_15_7) AppleWebKit/605.1.15 (KHTML, like Gecko) Version/15.5 Safari/605.1.15","Macintosh","Safari","15.5","OS X","10_15_7","null","null","","<p style=""font-size: 48px;"">+</p>","2","Filler","",""
"","","","","","sentence","45713","html-keyboard-response","160","184430","0.0-6.0-1.31","64","2","2022-11-17 12:23:11","fd252370c17a9971d68c1d4354a03c2e","","Mozilla/5.0 (Macintosh; Intel Mac OS X 10_15_7) AppleWebKit/605.1.15 (KHTML, like Gecko) Version/15.5 Safari/605.1.15","Macintosh","Safari","15.5","OS X","10_15_7","799"," ","","A pilot is reading a book","2","Filler","",""
"","","","","","fixation","45713","html-keyboard-response","161","184935","0.0-6.0-2.31","64","2","2022-11-17 12:23:11","fd252370c17a9971d68c1d4354a03c2e","","Mozilla/5.0 (Macintosh; Intel Mac OS X 10_15_7) AppleWebKit/605.1.15 (KHTML, like Gecko) Version/15.5 Safari/605.1.15","Macintosh","Safari","15.5","OS X","10_15_7","null","null","","<p style=""font-size: 48px;"">+</p>","2","Filler","",""
"","","","","","picture","45713","image-keyboard-response","162","185450","0.0-6.0-3.31","64","2","2022-11-17 12:23:11","fd252370c17a9971d68c1d4354a03c2e","","Mozilla/5.0 (Macintosh; Intel Mac OS X 10_15_7) AppleWebKit/605.1.15 (KHTML, like Gecko) Version/15.5 Safari/605.1.15","Macintosh","Safari","15.5","OS X","10_15_7","504","n","","spoon.jpg","2","Filler","true",""
"","","","","","fixation","45713","html-keyboard-response","163","186455","0.0-6.0-0.32","64","2","2022-11-17 12:23:11","fd252370c17a9971d68c1d4354a03c2e","","Mozilla/5.0 (Macintosh; Intel Mac OS X 10_15_7) AppleWebKit/605.1.15 (KHTML, like Gecko) Version/15.5 Safari/605.1.15","Macintosh","Safari","15.5","OS X","10_15_7","null","null","","<p style=""font-size: 48px;"">+</p>","2","Light_Contradictory","",""
"","","","","","sentence","45713","html-keyboard-response","164","187730","0.0-6.0-1.32","64","2","2022-11-17 12:23:11","fd252370c17a9971d68c1d4354a03c2e","","Mozilla/5.0 (Macintosh; Intel Mac OS X 10_15_7) AppleWebKit/605.1.15 (KHTML, like Gecko) Version/15.5 Safari/605.1.15","Macintosh","Safari","15.5","OS X","10_15_7","1270"," ","","A balloon dropped and smashed a wineglass","2","Light_Contradictory","",""
"","","","","","fixation","45713","html-keyboard-response","165","188235","0.0-6.0-2.32","64","2","2022-11-17 12:23:11","fd252370c17a9971d68c1d4354a03c2e","","Mozilla/5.0 (Macintosh; Intel Mac OS X 10_15_7) AppleWebKit/605.1.15 (KHTML, like Gecko) Version/15.5 Safari/605.1.15","Macintosh","Safari","15.5","OS X","10_15_7","null","null","","<p style=""font-size: 48px;"">+</p>","2","Light_Contradictory","",""
"","","","","","picture","45713","image-keyboard-response","166","188699","0.0-6.0-3.32","64","2","2022-11-17 12:23:11","fd252370c17a9971d68c1d4354a03c2e","","Mozilla/5.0 (Macintosh; Intel Mac OS X 10_15_7) AppleWebKit/605.1.15 (KHTML, like Gecko) Version/15.5 Safari/605.1.15","Macintosh","Safari","15.5","OS X","10_15_7","441","s","","wineglassS.jpg","2","Light_Contradictory","true",""
"","","","","","fixation","45713","html-keyboard-response","167","189704","0.0-6.0-0.33","64","2","2022-11-17 12:23:11","fd252370c17a9971d68c1d4354a03c2e","","Mozilla/5.0 (Macintosh; Intel Mac OS X 10_15_7) AppleWebKit/605.1.15 (KHTML, like Gecko) Version/15.5 Safari/605.1.15","Macintosh","Safari","15.5","OS X","10_15_7","null","null","","<p style=""font-size: 48px;"">+</p>","2","Light_Contradictory","",""
"","","","","","sentence","45713","html-keyboard-response","168","191699","0.0-6.0-1.33","64","2","2022-11-17 12:23:11","fd252370c17a9971d68c1d4354a03c2e","","Mozilla/5.0 (Macintosh; Intel Mac OS X 10_15_7) AppleWebKit/605.1.15 (KHTML, like Gecko) Version/15.5 Safari/605.1.15","Macintosh","Safari","15.5","OS X","10_15_7","1990"," ","","A balloon dropped and smashed a porcelain figure","2","Light_Contradictory","",""
"","","","","","fixation","45713","html-keyboard-response","169","192204","0.0-6.0-2.33","64","2","2022-11-17 12:23:11","fd252370c17a9971d68c1d4354a03c2e","","Mozilla/5.0 (Macintosh; Intel Mac OS X 10_15_7) AppleWebKit/605.1.15 (KHTML, like Gecko) Version/15.5 Safari/605.1.15","Macintosh","Safari","15.5","OS X","10_15_7","null","null","","<p style=""font-size: 48px;"">+</p>","2","Light_Contradictory","",""
"","","","","","picture","45713","image-keyboard-response","170","192793","0.0-6.0-3.33","64","2","2022-11-17 12:23:11","fd252370c17a9971d68c1d4354a03c2e","","Mozilla/5.0 (Macintosh; Intel Mac OS X 10_15_7) AppleWebKit/605.1.15 (KHTML, like Gecko) Version/15.5 Safari/605.1.15","Macintosh","Safari","15.5","OS X","10_15_7","578","s","","figureS.jpg","2","Light_Contradictory","true",""
"","","","","","fixation","45713","html-keyboard-response","171","193798","0.0-6.0-0.34","64","2","2022-11-17 12:23:11","fd252370c17a9971d68c1d4354a03c2e","","Mozilla/5.0 (Macintosh; Intel Mac OS X 10_15_7) AppleWebKit/605.1.15 (KHTML, like Gecko) Version/15.5 Safari/605.1.15","Macintosh","Safari","15.5","OS X","10_15_7","null","null","","<p style=""font-size: 48px;"">+</p>","2","Filler","",""
"","","","","","sentence","45713","html-keyboard-response","172","194667","0.0-6.0-1.34","64","2","2022-11-17 12:23:11","fd252370c17a9971d68c1d4354a03c2e","","Mozilla/5.0 (Macintosh; Intel Mac OS X 10_15_7) AppleWebKit/605.1.15 (KHTML, like Gecko) Version/15.5 Safari/605.1.15","Macintosh","Safari","15.5","OS X","10_15_7","864"," ","","A mouse is eating cheese","2","Filler","",""
"","","","","","fixation","45713","html-keyboard-response","173","195172","0.0-6.0-2.34","64","2","2022-11-17 12:23:11","fd252370c17a9971d68c1d4354a03c2e","","Mozilla/5.0 (Macintosh; Intel Mac OS X 10_15_7) AppleWebKit/605.1.15 (KHTML, like Gecko) Version/15.5 Safari/605.1.15","Macintosh","Safari","15.5","OS X","10_15_7","null","null","","<p style=""font-size: 48px;"">+</p>","2","Filler","",""
"","","","","","picture","45713","image-keyboard-response","174","195656","0.0-6.0-3.34","64","2","2022-11-17 12:23:11","fd252370c17a9971d68c1d4354a03c2e","","Mozilla/5.0 (Macintosh; Intel Mac OS X 10_15_7) AppleWebKit/605.1.15 (KHTML, like Gecko) Version/15.5 Safari/605.1.15","Macintosh","Safari","15.5","OS X","10_15_7","472","n","","ring.jpg","2","Filler","true",""
"","","","","","fixation","45713","html-keyboard-response","175","196661","0.0-6.0-0.35","64","2","2022-11-17 12:23:11","fd252370c17a9971d68c1d4354a03c2e","","Mozilla/5.0 (Macintosh; Intel Mac OS X 10_15_7) AppleWebKit/605.1.15 (KHTML, like Gecko) Version/15.5 Safari/605.1.15","Macintosh","Safari","15.5","OS X","10_15_7","null","null","","<p style=""font-size: 48px;"">+</p>","2","Heavy_Contradictory","",""
"","","","","","sentence","45713","html-keyboard-response","176","198427","0.0-6.0-1.35","64","2","2022-11-17 12:23:11","fd252370c17a9971d68c1d4354a03c2e","","Mozilla/5.0 (Macintosh; Intel Mac OS X 10_15_7) AppleWebKit/605.1.15 (KHTML, like Gecko) Version/15.5 Safari/605.1.15","Macintosh","Safari","15.5","OS X","10_15_7","1760"," ","","A bowling ball dropped and touched a mirror","2","Heavy_Contradictory","",""
"","","","","","fixation","45713","html-keyboard-response","177","198932","0.0-6.0-2.35","64","2","2022-11-17 12:23:11","fd252370c17a9971d68c1d4354a03c2e","","Mozilla/5.0 (Macintosh; Intel Mac OS X 10_15_7) AppleWebKit/605.1.15 (KHTML, like Gecko) Version/15.5 Safari/605.1.15","Macintosh","Safari","15.5","OS X","10_15_7","null","null","","<p style=""font-size: 48px;"">+</p>","2","Heavy_Contradictory","",""
"","","","","","picture","45713","image-keyboard-response","178","199558","0.0-6.0-3.35","64","2","2022-11-17 12:23:11","fd252370c17a9971d68c1d4354a03c2e","","Mozilla/5.0 (Macintosh; Intel Mac OS X 10_15_7) AppleWebKit/605.1.15 (KHTML, like Gecko) Version/15.5 Safari/605.1.15","Macintosh","Safari","15.5","OS X","10_15_7","612","s","","mirrorS.jpg","2","Heavy_Contradictory","true",""
"","","","","","fixation","45713","html-keyboard-response","179","200563","0.0-6.0-0.36","64","2","2022-11-17 12:23:11","fd252370c17a9971d68c1d4354a03c2e","","Mozilla/5.0 (Macintosh; Intel Mac OS X 10_15_7) AppleWebKit/605.1.15 (KHTML, like Gecko) Version/15.5 Safari/605.1.15","Macintosh","Safari","15.5","OS X","10_15_7","null","null","","<p style=""font-size: 48px;"">+</p>","2","Filler","",""
"","","","","","sentence","45713","html-keyboard-response","180","201907","0.0-6.0-1.36","64","2","2022-11-17 12:23:11","fd252370c17a9971d68c1d4354a03c2e","","Mozilla/5.0 (Macintosh; Intel Mac OS X 10_15_7) AppleWebKit/605.1.15 (KHTML, like Gecko) Version/15.5 Safari/605.1.15","Macintosh","Safari","15.5","OS X","10_15_7","1338"," ","","A pencil was placed on the shoe","2","Filler","",""
"","","","","","fixation","45713","html-keyboard-response","181","202412","0.0-6.0-2.36","64","2","2022-11-17 12:23:11","fd252370c17a9971d68c1d4354a03c2e","","Mozilla/5.0 (Macintosh; Intel Mac OS X 10_15_7) AppleWebKit/605.1.15 (KHTML, like Gecko) Version/15.5 Safari/605.1.15","Macintosh","Safari","15.5","OS X","10_15_7","null","null","","<p style=""font-size: 48px;"">+</p>","2","Filler","",""
"","","","","","picture","45713","image-keyboard-response","182","203011","0.0-6.0-3.36","64","2","2022-11-17 12:23:11","fd252370c17a9971d68c1d4354a03c2e","","Mozilla/5.0 (Macintosh; Intel Mac OS X 10_15_7) AppleWebKit/605.1.15 (KHTML, like Gecko) Version/15.5 Safari/605.1.15","Macintosh","Safari","15.5","OS X","10_15_7","587","n","","perfume.jpg","2","Filler","true",""
"","","","","","fixation","45713","html-keyboard-response","183","204016","0.0-6.0-0.37","64","2","2022-11-17 12:23:11","fd252370c17a9971d68c1d4354a03c2e","","Mozilla/5.0 (Macintosh; Intel Mac OS X 10_15_7) AppleWebKit/605.1.15 (KHTML, like Gecko) Version/15.5 Safari/605.1.15","Macintosh","Safari","15.5","OS X","10_15_7","null","null","","<p style=""font-size: 48px;"">+</p>","2","Light_Matched","",""
"","","","","","sentence","45713","html-keyboard-response","184","205334","0.0-6.0-1.37","64","2","2022-11-17 12:23:11","fd252370c17a9971d68c1d4354a03c2e","","Mozilla/5.0 (Macintosh; Intel Mac OS X 10_15_7) AppleWebKit/605.1.15 (KHTML, like Gecko) Version/15.5 Safari/605.1.15","Macintosh","Safari","15.5","OS X","10_15_7","1311"," ","","A balloon dropped and touched a tile","2","Light_Matched","",""
"","","","","","fixation","45713","html-keyboard-response","185","205839","0.0-6.0-2.37","64","2","2022-11-17 12:23:11","fd252370c17a9971d68c1d4354a03c2e","","Mozilla/5.0 (Macintosh; Intel Mac OS X 10_15_7) AppleWebKit/605.1.15 (KHTML, like Gecko) Version/15.5 Safari/605.1.15","Macintosh","Safari","15.5","OS X","10_15_7","null","null","","<p style=""font-size: 48px;"">+</p>","2","Light_Matched","",""
"","","","","","picture","45713","image-keyboard-response","186","206402","0.0-6.0-3.37","64","2","2022-11-17 12:23:11","fd252370c17a9971d68c1d4354a03c2e","","Mozilla/5.0 (Macintosh; Intel Mac OS X 10_15_7) AppleWebKit/605.1.15 (KHTML, like Gecko) Version/15.5 Safari/605.1.15","Macintosh","Safari","15.5","OS X","10_15_7","548","s","","tileS.jpg","2","Light_Matched","true",""
"","","","","","fixation","45713","html-keyboard-response","187","207408","0.0-6.0-0.38","64","2","2022-11-17 12:23:11","fd252370c17a9971d68c1d4354a03c2e","","Mozilla/5.0 (Macintosh; Intel Mac OS X 10_15_7) AppleWebKit/605.1.15 (KHTML, like Gecko) Version/15.5 Safari/605.1.15","Macintosh","Safari","15.5","OS X","10_15_7","null","null","","<p style=""font-size: 48px;"">+</p>","2","Filler","",""
"","","","","","sentence","45713","html-keyboard-response","188","209109","0.0-6.0-1.38","64","2","2022-11-17 12:23:11","fd252370c17a9971d68c1d4354a03c2e","","Mozilla/5.0 (Macintosh; Intel Mac OS X 10_15_7) AppleWebKit/605.1.15 (KHTML, like Gecko) Version/15.5 Safari/605.1.15","Macintosh","Safari","15.5","OS X","10_15_7","1696"," ","","A parrot is eating an apple","2","Filler","",""
"","","","","","fixation","45713","html-keyboard-response","189","209613","0.0-6.0-2.38","64","2","2022-11-17 12:23:11","fd252370c17a9971d68c1d4354a03c2e","","Mozilla/5.0 (Macintosh; Intel Mac OS X 10_15_7) AppleWebKit/605.1.15 (KHTML, like Gecko) Version/15.5 Safari/605.1.15","Macintosh","Safari","15.5","OS X","10_15_7","null","null","","<p style=""font-size: 48px;"">+</p>","2","Filler","",""
"","","","","","picture","45713","image-keyboard-response","190","210138","0.0-6.0-3.38","64","2","2022-11-17 12:23:11","fd252370c17a9971d68c1d4354a03c2e","","Mozilla/5.0 (Macintosh; Intel Mac OS X 10_15_7) AppleWebKit/605.1.15 (KHTML, like Gecko) Version/15.5 Safari/605.1.15","Macintosh","Safari","15.5","OS X","10_15_7","510","n","","shirt.jpg","2","Filler","true",""
"","","","","","fixation","45713","html-keyboard-response","191","211144","0.0-6.0-0.39","64","2","2022-11-17 12:23:11","fd252370c17a9971d68c1d4354a03c2e","","Mozilla/5.0 (Macintosh; Intel Mac OS X 10_15_7) AppleWebKit/605.1.15 (KHTML, like Gecko) Version/15.5 Safari/605.1.15","Macintosh","Safari","15.5","OS X","10_15_7","null","null","","<p style=""font-size: 48px;"">+</p>","2","Filler","",""
"","","","","","sentence","45713","html-keyboard-response","192","212179","0.0-6.0-1.39","64","2","2022-11-17 12:23:11","fd252370c17a9971d68c1d4354a03c2e","","Mozilla/5.0 (Macintosh; Intel Mac OS X 10_15_7) AppleWebKit/605.1.15 (KHTML, like Gecko) Version/15.5 Safari/605.1.15","Macintosh","Safari","15.5","OS X","10_15_7","1026"," ","","A ring was placed on the newspaper","2","Filler","",""
"","","","","","fixation","45713","html-keyboard-response","193","212684","0.0-6.0-2.39","64","2","2022-11-17 12:23:11","fd252370c17a9971d68c1d4354a03c2e","","Mozilla/5.0 (Macintosh; Intel Mac OS X 10_15_7) AppleWebKit/605.1.15 (KHTML, like Gecko) Version/15.5 Safari/605.1.15","Macintosh","Safari","15.5","OS X","10_15_7","null","null","","<p style=""font-size: 48px;"">+</p>","2","Filler","",""
"","","","","","picture","45713","image-keyboard-response","194","213406","0.0-6.0-3.39","64","2","2022-11-17 12:23:11","fd252370c17a9971d68c1d4354a03c2e","","Mozilla/5.0 (Macintosh; Intel Mac OS X 10_15_7) AppleWebKit/605.1.15 (KHTML, like Gecko) Version/15.5 Safari/605.1.15","Macintosh","Safari","15.5","OS X","10_15_7","707","n","","cat.jpg","2","Filler","true",""
"","","","","","fixation","45713","html-keyboard-response","195","214411","0.0-6.0-0.40","64","2","2022-11-17 12:23:11","fd252370c17a9971d68c1d4354a03c2e","","Mozilla/5.0 (Macintosh; Intel Mac OS X 10_15_7) AppleWebKit/605.1.15 (KHTML, like Gecko) Version/15.5 Safari/605.1.15","Macintosh","Safari","15.5","OS X","10_15_7","null","null","","<p style=""font-size: 48px;"">+</p>","2","Heavy_Contradictory","",""
"","","","","","sentence","45713","html-keyboard-response","196","216248","0.0-6.0-1.40","64","2","2022-11-17 12:23:11","fd252370c17a9971d68c1d4354a03c2e","","Mozilla/5.0 (Macintosh; Intel Mac OS X 10_15_7) AppleWebKit/605.1.15 (KHTML, like Gecko) Version/15.5 Safari/605.1.15","Macintosh","Safari","15.5","OS X","10_15_7","1829"," ","","A bowling ball dropped and touched an iPhone","2","Heavy_Contradictory","",""
"","","","","","fixation","45713","html-keyboard-response","197","216757","0.0-6.0-2.40","64","2","2022-11-17 12:23:11","fd252370c17a9971d68c1d4354a03c2e","","Mozilla/5.0 (Macintosh; Intel Mac OS X 10_15_7) AppleWebKit/605.1.15 (KHTML, like Gecko) Version/15.5 Safari/605.1.15","Macintosh","Safari","15.5","OS X","10_15_7","null","null","","<p style=""font-size: 48px;"">+</p>","2","Heavy_Contradictory","",""
"","","","","","picture","45713","image-keyboard-response","198","217223","0.0-6.0-3.40","64","2","2022-11-17 12:23:11","fd252370c17a9971d68c1d4354a03c2e","","Mozilla/5.0 (Macintosh; Intel Mac OS X 10_15_7) AppleWebKit/605.1.15 (KHTML, like Gecko) Version/15.5 Safari/605.1.15","Macintosh","Safari","15.5","OS X","10_15_7","454","s","","iphoneS.png","2","Heavy_Contradictory","true",""
"","","","","","fixation","45713","html-keyboard-response","199","218229","0.0-6.0-0.41","64","2","2022-11-17 12:23:11","fd252370c17a9971d68c1d4354a03c2e","","Mozilla/5.0 (Macintosh; Intel Mac OS X 10_15_7) AppleWebKit/605.1.15 (KHTML, like Gecko) Version/15.5 Safari/605.1.15","Macintosh","Safari","15.5","OS X","10_15_7","null","null","","<p style=""font-size: 48px;"">+</p>","2","Filler","",""
"","","","","","sentence","45713","html-keyboard-response","200","219478","0.0-6.0-1.41","64","2","2022-11-17 12:23:11","fd252370c17a9971d68c1d4354a03c2e","","Mozilla/5.0 (Macintosh; Intel Mac OS X 10_15_7) AppleWebKit/605.1.15 (KHTML, like Gecko) Version/15.5 Safari/605.1.15","Macintosh","Safari","15.5","OS X","10_15_7","1242"," ","","A dentist is drinking a can of cola","2","Filler","",""
"","","","","","fixation","45713","html-keyboard-response","201","219983","0.0-6.0-2.41","64","2","2022-11-17 12:23:11","fd252370c17a9971d68c1d4354a03c2e","","Mozilla/5.0 (Macintosh; Intel Mac OS X 10_15_7) AppleWebKit/605.1.15 (KHTML, like Gecko) Version/15.5 Safari/605.1.15","Macintosh","Safari","15.5","OS X","10_15_7","null","null","","<p style=""font-size: 48px;"">+</p>","2","Filler","",""
"","","","","","picture","45713","image-keyboard-response","202","220475","0.0-6.0-3.41","64","2","2022-11-17 12:23:11","fd252370c17a9971d68c1d4354a03c2e","","Mozilla/5.0 (Macintosh; Intel Mac OS X 10_15_7) AppleWebKit/605.1.15 (KHTML, like Gecko) Version/15.5 Safari/605.1.15","Macintosh","Safari","15.5","OS X","10_15_7","477","n","","doll.jpg","2","Filler","true",""
"","","","","","fixation","45713","html-keyboard-response","203","221480","0.0-6.0-0.42","64","2","2022-11-17 12:23:11","fd252370c17a9971d68c1d4354a03c2e","","Mozilla/5.0 (Macintosh; Intel Mac OS X 10_15_7) AppleWebKit/605.1.15 (KHTML, like Gecko) Version/15.5 Safari/605.1.15","Macintosh","Safari","15.5","OS X","10_15_7","null","null","","<p style=""font-size: 48px;"">+</p>","2","Light_Matched","",""
"","","","","","sentence","45713","html-keyboard-response","204","222694","0.0-6.0-1.42","64","2","2022-11-17 12:23:11","fd252370c17a9971d68c1d4354a03c2e","","Mozilla/5.0 (Macintosh; Intel Mac OS X 10_15_7) AppleWebKit/605.1.15 (KHTML, like Gecko) Version/15.5 Safari/605.1.15","Macintosh","Safari","15.5","OS X","10_15_7","1204"," ","","A balloon dropped and touched a strawberry","2","Light_Matched","",""
"","","","","","fixation","45713","html-keyboard-response","205","223200","0.0-6.0-2.42","64","2","2022-11-17 12:23:11","fd252370c17a9971d68c1d4354a03c2e","","Mozilla/5.0 (Macintosh; Intel Mac OS X 10_15_7) AppleWebKit/605.1.15 (KHTML, like Gecko) Version/15.5 Safari/605.1.15","Macintosh","Safari","15.5","OS X","10_15_7","null","null","","<p style=""font-size: 48px;"">+</p>","2","Light_Matched","",""
"","","","","","picture","45713","image-keyboard-response","206","223685","0.0-6.0-3.42","64","2","2022-11-17 12:23:11","fd252370c17a9971d68c1d4354a03c2e","","Mozilla/5.0 (Macintosh; Intel Mac OS X 10_15_7) AppleWebKit/605.1.15 (KHTML, like Gecko) Version/15.5 Safari/605.1.15","Macintosh","Safari","15.5","OS X","10_15_7","473","s","","strawberryS.jpg","2","Light_Matched","true",""
"","","","","","fixation","45713","html-keyboard-response","207","224690","0.0-6.0-0.43","64","2","2022-11-17 12:23:11","fd252370c17a9971d68c1d4354a03c2e","","Mozilla/5.0 (Macintosh; Intel Mac OS X 10_15_7) AppleWebKit/605.1.15 (KHTML, like Gecko) Version/15.5 Safari/605.1.15","Macintosh","Safari","15.5","OS X","10_15_7","null","null","","<p style=""font-size: 48px;"">+</p>","2","Filler","",""
"","","","","","sentence","45713","html-keyboard-response","208","225437","0.0-6.0-1.43","64","2","2022-11-17 12:23:11","fd252370c17a9971d68c1d4354a03c2e","","Mozilla/5.0 (Macintosh; Intel Mac OS X 10_15_7) AppleWebKit/605.1.15 (KHTML, like Gecko) Version/15.5 Safari/605.1.15","Macintosh","Safari","15.5","OS X","10_15_7","740"," ","","A hairdresser is taking scissors","2","Filler","",""
"","","","","","fixation","45713","html-keyboard-response","209","225943","0.0-6.0-2.43","64","2","2022-11-17 12:23:11","fd252370c17a9971d68c1d4354a03c2e","","Mozilla/5.0 (Macintosh; Intel Mac OS X 10_15_7) AppleWebKit/605.1.15 (KHTML, like Gecko) Version/15.5 Safari/605.1.15","Macintosh","Safari","15.5","OS X","10_15_7","null","null","","<p style=""font-size: 48px;"">+</p>","2","Filler","",""
"","","","","","picture","45713","image-keyboard-response","210","226479","0.0-6.0-3.43","64","2","2022-11-17 12:23:11","fd252370c17a9971d68c1d4354a03c2e","","Mozilla/5.0 (Macintosh; Intel Mac OS X 10_15_7) AppleWebKit/605.1.15 (KHTML, like Gecko) Version/15.5 Safari/605.1.15","Macintosh","Safari","15.5","OS X","10_15_7","525","s","","sock.jpg","2","Filler","false",""
"","","","","","fixation","45713","html-keyboard-response","211","227485","0.0-6.0-0.44","64","2","2022-11-17 12:23:11","fd252370c17a9971d68c1d4354a03c2e","","Mozilla/5.0 (Macintosh; Intel Mac OS X 10_15_7) AppleWebKit/605.1.15 (KHTML, like Gecko) Version/15.5 Safari/605.1.15","Macintosh","Safari","15.5","OS X","10_15_7","null","null","","<p style=""font-size: 48px;"">+</p>","2","Filler","",""
"","","","","","sentence","45713","html-keyboard-response","212","229443","0.0-6.0-1.44","64","2","2022-11-17 12:23:11","fd252370c17a9971d68c1d4354a03c2e","","Mozilla/5.0 (Macintosh; Intel Mac OS X 10_15_7) AppleWebKit/605.1.15 (KHTML, like Gecko) Version/15.5 Safari/605.1.15","Macintosh","Safari","15.5","OS X","10_15_7","1951"," ","","A cook is taking a knife","2","Filler","",""
"","","","","","fixation","45713","html-keyboard-response","213","229949","0.0-6.0-2.44","64","2","2022-11-17 12:23:11","fd252370c17a9971d68c1d4354a03c2e","","Mozilla/5.0 (Macintosh; Intel Mac OS X 10_15_7) AppleWebKit/605.1.15 (KHTML, like Gecko) Version/15.5 Safari/605.1.15","Macintosh","Safari","15.5","OS X","10_15_7","null","null","","<p style=""font-size: 48px;"">+</p>","2","Filler","",""
"","","","","","picture","45713","image-keyboard-response","214","230680","0.0-6.0-3.44","64","2","2022-11-17 12:23:11","fd252370c17a9971d68c1d4354a03c2e","","Mozilla/5.0 (Macintosh; Intel Mac OS X 10_15_7) AppleWebKit/605.1.15 (KHTML, like Gecko) Version/15.5 Safari/605.1.15","Macintosh","Safari","15.5","OS X","10_15_7","718","s","","knife.jpg","2","Filler","true",""
"","","","","","fixation","45713","html-keyboard-response","215","231686","0.0-6.0-0.45","64","2","2022-11-17 12:23:11","fd252370c17a9971d68c1d4354a03c2e","","Mozilla/5.0 (Macintosh; Intel Mac OS X 10_15_7) AppleWebKit/605.1.15 (KHTML, like Gecko) Version/15.5 Safari/605.1.15","Macintosh","Safari","15.5","OS X","10_15_7","null","null","","<p style=""font-size: 48px;"">+</p>","2","Heavy_Matched","",""
"","","","","","sentence","45713","html-keyboard-response","216","233875","0.0-6.0-1.45","64","2","2022-11-17 12:23:11","fd252370c17a9971d68c1d4354a03c2e","","Mozilla/5.0 (Macintosh; Intel Mac OS X 10_15_7) AppleWebKit/605.1.15 (KHTML, like Gecko) Version/15.5 Safari/605.1.15","Macintosh","Safari","15.5","OS X","10_15_7","2184"," ","","A bowling ball dropped and smashed an egg flan","2","Heavy_Matched","",""
"","","","","","fixation","45713","html-keyboard-response","217","234381","0.0-6.0-2.45","64","2","2022-11-17 12:23:11","fd252370c17a9971d68c1d4354a03c2e","","Mozilla/5.0 (Macintosh; Intel Mac OS X 10_15_7) AppleWebKit/605.1.15 (KHTML, like Gecko) Version/15.5 Safari/605.1.15","Macintosh","Safari","15.5","OS X","10_15_7","null","null","","<p style=""font-size: 48px;"">+</p>","2","Heavy_Matched","",""
"","","","","","picture","45713","image-keyboard-response","218","235098","0.0-6.0-3.45","64","2","2022-11-17 12:23:11","fd252370c17a9971d68c1d4354a03c2e","","Mozilla/5.0 (Macintosh; Intel Mac OS X 10_15_7) AppleWebKit/605.1.15 (KHTML, like Gecko) Version/15.5 Safari/605.1.15","Macintosh","Safari","15.5","OS X","10_15_7","703","s","","eggflanS.jpg","2","Heavy_Matched","true",""
"","","","","","fixation","45713","html-keyboard-response","219","236104","0.0-6.0-0.46","64","2","2022-11-17 12:23:11","fd252370c17a9971d68c1d4354a03c2e","","Mozilla/5.0 (Macintosh; Intel Mac OS X 10_15_7) AppleWebKit/605.1.15 (KHTML, like Gecko) Version/15.5 Safari/605.1.15","Macintosh","Safari","15.5","OS X","10_15_7","null","null","","<p style=""font-size: 48px;"">+</p>","2","Light_Contradictory","",""
"","","","","","sentence","45713","html-keyboard-response","220","238362","0.0-6.0-1.46","64","2","2022-11-17 12:23:11","fd252370c17a9971d68c1d4354a03c2e","","Mozilla/5.0 (Macintosh; Intel Mac OS X 10_15_7) AppleWebKit/605.1.15 (KHTML, like Gecko) Version/15.5 Safari/605.1.15","Macintosh","Safari","15.5","OS X","10_15_7","2249"," ","","A balloon dropped and smashed a TV","2","Light_Contradictory","",""
"","","","","","fixation","45713","html-keyboard-response","221","238867","0.0-6.0-2.46","64","2","2022-11-17 12:23:11","fd252370c17a9971d68c1d4354a03c2e","","Mozilla/5.0 (Macintosh; Intel Mac OS X 10_15_7) AppleWebKit/605.1.15 (KHTML, like Gecko) Version/15.5 Safari/605.1.15","Macintosh","Safari","15.5","OS X","10_15_7","null","null","","<p style=""font-size: 48px;"">+</p>","2","Light_Contradictory","",""
"","","","","","picture","45713","image-keyboard-response","222","239330","0.0-6.0-3.46","64","2","2022-11-17 12:23:11","fd252370c17a9971d68c1d4354a03c2e","","Mozilla/5.0 (Macintosh; Intel Mac OS X 10_15_7) AppleWebKit/605.1.15 (KHTML, like Gecko) Version/15.5 Safari/605.1.15","Macintosh","Safari","15.5","OS X","10_15_7","451","s","","tvS.jpg","2","Light_Contradictory","true",""
"","","","","","fixation","45713","html-keyboard-response","223","240336","0.0-6.0-0.47","64","2","2022-11-17 12:23:11","fd252370c17a9971d68c1d4354a03c2e","","Mozilla/5.0 (Macintosh; Intel Mac OS X 10_15_7) AppleWebKit/605.1.15 (KHTML, like Gecko) Version/15.5 Safari/605.1.15","Macintosh","Safari","15.5","OS X","10_15_7","null","null","","<p style=""font-size: 48px;"">+</p>","2","Filler","",""
"","","","","","sentence","45713","html-keyboard-response","224","241161","0.0-6.0-1.47","64","2","2022-11-17 12:23:11","fd252370c17a9971d68c1d4354a03c2e","","Mozilla/5.0 (Macintosh; Intel Mac OS X 10_15_7) AppleWebKit/605.1.15 (KHTML, like Gecko) Version/15.5 Safari/605.1.15","Macintosh","Safari","15.5","OS X","10_15_7","814"," ","","A puppy is playing with a ball","2","Filler","",""
"","","","","","fixation","45713","html-keyboard-response","225","241667","0.0-6.0-2.47","64","2","2022-11-17 12:23:11","fd252370c17a9971d68c1d4354a03c2e","","Mozilla/5.0 (Macintosh; Intel Mac OS X 10_15_7) AppleWebKit/605.1.15 (KHTML, like Gecko) Version/15.5 Safari/605.1.15","Macintosh","Safari","15.5","OS X","10_15_7","null","null","","<p style=""font-size: 48px;"">+</p>","2","Filler","",""
"","","","","","picture","45713","image-keyboard-response","226","242474","0.0-6.0-3.47","64","2","2022-11-17 12:23:11","fd252370c17a9971d68c1d4354a03c2e","","Mozilla/5.0 (Macintosh; Intel Mac OS X 10_15_7) AppleWebKit/605.1.15 (KHTML, like Gecko) Version/15.5 Safari/605.1.15","Macintosh","Safari","15.5","OS X","10_15_7","795","s","","tennisball.jpg","2","Filler","true",""
"","","","","","fixation","45713","html-keyboard-response","227","243481","0.0-6.0-0.48","64","2","2022-11-17 12:23:11","fd252370c17a9971d68c1d4354a03c2e","","Mozilla/5.0 (Macintosh; Intel Mac OS X 10_15_7) AppleWebKit/605.1.15 (KHTML, like Gecko) Version/15.5 Safari/605.1.15","Macintosh","Safari","15.5","OS X","10_15_7","null","null","","<p style=""font-size: 48px;"">+</p>","2","Filler","",""
"","","","","","sentence","45713","html-keyboard-response","228","245663","0.0-6.0-1.48","64","2","2022-11-17 12:23:11","fd252370c17a9971d68c1d4354a03c2e","","Mozilla/5.0 (Macintosh; Intel Mac OS X 10_15_7) AppleWebKit/605.1.15 (KHTML, like Gecko) Version/15.5 Safari/605.1.15","Macintosh","Safari","15.5","OS X","10_15_7","2176"," ","","A toothbrush was placed on the sponge","2","Filler","",""
"","","","","","fixation","45713","html-keyboard-response","229","246169","0.0-6.0-2.48","64","2","2022-11-17 12:23:11","fd252370c17a9971d68c1d4354a03c2e","","Mozilla/5.0 (Macintosh; Intel Mac OS X 10_15_7) AppleWebKit/605.1.15 (KHTML, like Gecko) Version/15.5 Safari/605.1.15","Macintosh","Safari","15.5","OS X","10_15_7","null","null","","<p style=""font-size: 48px;"">+</p>","2","Filler","",""
"","","","","","picture","45713","image-keyboard-response","230","246992","0.0-6.0-3.48","64","2","2022-11-17 12:23:11","fd252370c17a9971d68c1d4354a03c2e","","Mozilla/5.0 (Macintosh; Intel Mac OS X 10_15_7) AppleWebKit/605.1.15 (KHTML, like Gecko) Version/15.5 Safari/605.1.15","Macintosh","Safari","15.5","OS X","10_15_7","811","s","","sponge.jpg","2","Filler","true",""
"","","","","","fixation","45713","html-keyboard-response","231","247999","0.0-6.0-0.49","64","2","2022-11-17 12:23:11","fd252370c17a9971d68c1d4354a03c2e","","Mozilla/5.0 (Macintosh; Intel Mac OS X 10_15_7) AppleWebKit/605.1.15 (KHTML, like Gecko) Version/15.5 Safari/605.1.15","Macintosh","Safari","15.5","OS X","10_15_7","null","null","","<p style=""font-size: 48px;"">+</p>","2","Filler","",""
"","","","","","sentence","45713","html-keyboard-response","232","249325","0.0-6.0-1.49","64","2","2022-11-17 12:23:11","fd252370c17a9971d68c1d4354a03c2e","","Mozilla/5.0 (Macintosh; Intel Mac OS X 10_15_7) AppleWebKit/605.1.15 (KHTML, like Gecko) Version/15.5 Safari/605.1.15","Macintosh","Safari","15.5","OS X","10_15_7","1320"," ","","A nurse is taking a syringe","2","Filler","",""
"","","","","","fixation","45713","html-keyboard-response","233","249832","0.0-6.0-2.49","64","2","2022-11-17 12:23:11","fd252370c17a9971d68c1d4354a03c2e","","Mozilla/5.0 (Macintosh; Intel Mac OS X 10_15_7) AppleWebKit/605.1.15 (KHTML, like Gecko) Version/15.5 Safari/605.1.15","Macintosh","Safari","15.5","OS X","10_15_7","null","null","","<p style=""font-size: 48px;"">+</p>","2","Filler","",""
"","","","","","picture","45713","image-keyboard-response","234","250597","0.0-6.0-3.49","64","2","2022-11-17 12:23:11","fd252370c17a9971d68c1d4354a03c2e","","Mozilla/5.0 (Macintosh; Intel Mac OS X 10_15_7) AppleWebKit/605.1.15 (KHTML, like Gecko) Version/15.5 Safari/605.1.15","Macintosh","Safari","15.5","OS X","10_15_7","753","n","","headphones.jpg","2","Filler","true",""
"","","","","","fixation","45713","html-keyboard-response","235","251608","0.0-6.0-0.50","64","2","2022-11-17 12:23:11","fd252370c17a9971d68c1d4354a03c2e","","Mozilla/5.0 (Macintosh; Intel Mac OS X 10_15_7) AppleWebKit/605.1.15 (KHTML, like Gecko) Version/15.5 Safari/605.1.15","Macintosh","Safari","15.5","OS X","10_15_7","null","null","","<p style=""font-size: 48px;"">+</p>","2","Heavy_Contradictory","",""
"","","","","","sentence","45713","html-keyboard-response","236","253071","0.0-6.0-1.50","64","2","2022-11-17 12:23:11","fd252370c17a9971d68c1d4354a03c2e","","Mozilla/5.0 (Macintosh; Intel Mac OS X 10_15_7) AppleWebKit/605.1.15 (KHTML, like Gecko) Version/15.5 Safari/605.1.15","Macintosh","Safari","15.5","OS X","10_15_7","1457"," ","","A bowling ball dropped and touched a donut","2","Heavy_Contradictory","",""
"","","","","","fixation","45713","html-keyboard-response","237","253577","0.0-6.0-2.50","64","2","2022-11-17 12:23:11","fd252370c17a9971d68c1d4354a03c2e","","Mozilla/5.0 (Macintosh; Intel Mac OS X 10_15_7) AppleWebKit/605.1.15 (KHTML, like Gecko) Version/15.5 Safari/605.1.15","Macintosh","Safari","15.5","OS X","10_15_7","null","null","","<p style=""font-size: 48px;"">+</p>","2","Heavy_Contradictory","",""
"","","","","","picture","45713","image-keyboard-response","238","254157","0.0-6.0-3.50","64","2","2022-11-17 12:23:11","fd252370c17a9971d68c1d4354a03c2e","","Mozilla/5.0 (Macintosh; Intel Mac OS X 10_15_7) AppleWebKit/605.1.15 (KHTML, like Gecko) Version/15.5 Safari/605.1.15","Macintosh","Safari","15.5","OS X","10_15_7","566","s","","donutS.jpg","2","Heavy_Contradictory","true",""
"","","","","","fixation","45713","html-keyboard-response","239","255163","0.0-6.0-0.51","64","2","2022-11-17 12:23:11","fd252370c17a9971d68c1d4354a03c2e","","Mozilla/5.0 (Macintosh; Intel Mac OS X 10_15_7) AppleWebKit/605.1.15 (KHTML, like Gecko) Version/15.5 Safari/605.1.15","Macintosh","Safari","15.5","OS X","10_15_7","null","null","","<p style=""font-size: 48px;"">+</p>","2","Light_Matched","",""
"","","","","","sentence","45713","html-keyboard-response","240","256192","0.0-6.0-1.51","64","2","2022-11-17 12:23:11","fd252370c17a9971d68c1d4354a03c2e","","Mozilla/5.0 (Macintosh; Intel Mac OS X 10_15_7) AppleWebKit/605.1.15 (KHTML, like Gecko) Version/15.5 Safari/605.1.15","Macintosh","Safari","15.5","OS X","10_15_7","1021"," ","","A balloon dropped and touched a ceramic plate","2","Light_Matched","",""
"","","","","","fixation","45713","html-keyboard-response","241","256698","0.0-6.0-2.51","64","2","2022-11-17 12:23:11","fd252370c17a9971d68c1d4354a03c2e","","Mozilla/5.0 (Macintosh; Intel Mac OS X 10_15_7) AppleWebKit/605.1.15 (KHTML, like Gecko) Version/15.5 Safari/605.1.15","Macintosh","Safari","15.5","OS X","10_15_7","null","null","","<p style=""font-size: 48px;"">+</p>","2","Light_Matched","",""
"","","","","","picture","45713","image-keyboard-response","242","257305","0.0-6.0-3.51","64","2","2022-11-17 12:23:11","fd252370c17a9971d68c1d4354a03c2e","","Mozilla/5.0 (Macintosh; Intel Mac OS X 10_15_7) AppleWebKit/605.1.15 (KHTML, like Gecko) Version/15.5 Safari/605.1.15","Macintosh","Safari","15.5","OS X","10_15_7","589","s","","plateS.jpg","2","Light_Matched","true",""
"","","","","","fixation","45713","html-keyboard-response","243","258312","0.0-6.0-0.52","64","2","2022-11-17 12:23:11","fd252370c17a9971d68c1d4354a03c2e","","Mozilla/5.0 (Macintosh; Intel Mac OS X 10_15_7) AppleWebKit/605.1.15 (KHTML, like Gecko) Version/15.5 Safari/605.1.15","Macintosh","Safari","15.5","OS X","10_15_7","null","null","","<p style=""font-size: 48px;"">+</p>","2","Heavy_Matched","",""
"","","","","","sentence","45713","html-keyboard-response","244","259529","0.0-6.0-1.52","64","2","2022-11-17 12:23:11","fd252370c17a9971d68c1d4354a03c2e","","Mozilla/5.0 (Macintosh; Intel Mac OS X 10_15_7) AppleWebKit/605.1.15 (KHTML, like Gecko) Version/15.5 Safari/605.1.15","Macintosh","Safari","15.5","OS X","10_15_7","1209"," ","","A bowling ball dropped and smashed a chocolate ice-cream","2","Heavy_Matched","",""
"","","","","","fixation","45713","html-keyboard-response","245","260035","0.0-6.0-2.52","64","2","2022-11-17 12:23:11","fd252370c17a9971d68c1d4354a03c2e","","Mozilla/5.0 (Macintosh; Intel Mac OS X 10_15_7) AppleWebKit/605.1.15 (KHTML, like Gecko) Version/15.5 Safari/605.1.15","Macintosh","Safari","15.5","OS X","10_15_7","null","null","","<p style=""font-size: 48px;"">+</p>","2","Heavy_Matched","",""
"","","","","","picture","45713","image-keyboard-response","246","260820","0.0-6.0-3.52","64","2","2022-11-17 12:23:11","fd252370c17a9971d68c1d4354a03c2e","","Mozilla/5.0 (Macintosh; Intel Mac OS X 10_15_7) AppleWebKit/605.1.15 (KHTML, like Gecko) Version/15.5 Safari/605.1.15","Macintosh","Safari","15.5","OS X","10_15_7","771","s","","icecreamS.jpg","2","Heavy_Matched","true",""
