"success","timeout","failed_images","failed_audio","failed_video","typeoftrial","subject","trial_type","trial_index","time_elapsed","internal_node_id","run_id","condition","recorded_at","source_code_version","ip","user_agent","device","browser","browser_version","platform","platform_version","rt","response","Experiment","stimulus","list_number","trialcondition","correct","question_order"
"true","false","[]","[]","[]","preload","26086","preload","0","3473","0.0-0.0","99","1","2022-11-17 12:30:34","fd252370c17a9971d68c1d4354a03c2e","","Mozilla/5.0 (Windows NT 10.0; Win64; x64) AppleWebKit/537.36 (KHTML, like Gecko) Chrome/107.0.0.0 Safari/537.36","WebKit","Chrome","107.0.0.0","Windows","10.0","","","","","","","",""
"","","","","","ID","26086","survey-text","1","16689","0.0-1.0","99","1","2022-11-17 12:30:34","fd252370c17a9971d68c1d4354a03c2e","","Mozilla/5.0 (Windows NT 10.0; Win64; x64) AppleWebKit/537.36 (KHTML, like Gecko) Chrome/107.0.0.0 Safari/537.36","WebKit","Chrome","107.0.0.0","Windows","10.0","13201","{""ID"":""636a3f4a55ca2ddd59722e0c""}","","","","","",""
"","","","","","instructions","26086","html-button-response","2","19317","0.0-2.0","99","1","2022-11-17 12:30:34","fd252370c17a9971d68c1d4354a03c2e","","Mozilla/5.0 (Windows NT 10.0; Win64; x64) AppleWebKit/537.36 (KHTML, like Gecko) Chrome/107.0.0.0 Safari/537.36","WebKit","Chrome","107.0.0.0","Windows","10.0","2625","0","","
                    <p style=""font-size:20px;""> Welcome to the experiment! </p>
                    <p style=""font-size:20px;""> In this experiment, you will be asked to make judgments about the content of different sentences.</p>
                    <p style=""font-size:20px;""> On each trial, you will read a sentence, and will be shown a picture immediately following the sentence. </p>
                    <p style=""font-size:20px;""> Your task is to decide whether the object displayed in the picture was mentioned in the sentence or not </p>
                    <p style=""font-size:20px;""> and respond as quickly as possible by pressing <strong>S</strong> for yes or <strong>N</strong> for no. </p>
                    <p style=""font-size:20px;""> You will now do a practice session with feedback and instructions. </p>
                    <p style=""font-size:20px;""> Click the button below to continue.</p>
                    ","","","",""
"","","","","","instructions","26086","html-button-response","3","20670","0.0-3.0","99","1","2022-11-17 12:30:34","fd252370c17a9971d68c1d4354a03c2e","","Mozilla/5.0 (Windows NT 10.0; Win64; x64) AppleWebKit/537.36 (KHTML, like Gecko) Chrome/107.0.0.0 Safari/537.36","WebKit","Chrome","107.0.0.0","Windows","10.0","1351","0","","
                    <p style=""font-size:20px;""> You are about to begin the practice test. </p>
                    <p style=""font-size:20px;""> On each trial, a sentence will appear on the screen. You should press SPACEBAR when you have read and understood the sentence.</p>
                    <p style=""font-size:20px;""> After you press SPACEBAR, a picture will appear on the screen. </p>
                    <p style=""font-size:20px;""> You need to indicate whether or not the pictured object was mentioned in the sentence. </p>
                    <p style=""font-size:20px;""> If the object WAS mentioned in the preceding sentence, you should press <strong>S</strong> </p>
                    <p style=""font-size:20px;""> If the object was NOT mentioned in the preceding sentence, you should press <strong>N</strong>. </p>
                    <p style=""font-size:20px;""> Click the button below to continue to the practice session.</p>
                    ","","","",""
"","","","","","fixation","26086","html-keyboard-response","4","21692","0.0-4.0-0.0","99","1","2022-11-17 12:30:34","fd252370c17a9971d68c1d4354a03c2e","","Mozilla/5.0 (Windows NT 10.0; Win64; x64) AppleWebKit/537.36 (KHTML, like Gecko) Chrome/107.0.0.0 Safari/537.36","WebKit","Chrome","107.0.0.0","Windows","10.0","null","null","","<p style=""font-size: 48px;"">+</p>","practice","practice_n","",""
"","","","","","sentence","26086","html-keyboard-response","5","23404","0.0-4.0-1.0","99","1","2022-11-17 12:30:34","fd252370c17a9971d68c1d4354a03c2e","","Mozilla/5.0 (Windows NT 10.0; Win64; x64) AppleWebKit/537.36 (KHTML, like Gecko) Chrome/107.0.0.0 Safari/537.36","WebKit","Chrome","107.0.0.0","Windows","10.0","1710"," ","","A balloon dropped and smashed a cup","practice","practice_n","",""
"","","","","","fixation","26086","html-keyboard-response","6","23920","0.0-4.0-2.0","99","1","2022-11-17 12:30:34","fd252370c17a9971d68c1d4354a03c2e","","Mozilla/5.0 (Windows NT 10.0; Win64; x64) AppleWebKit/537.36 (KHTML, like Gecko) Chrome/107.0.0.0 Safari/537.36","WebKit","Chrome","107.0.0.0","Windows","10.0","null","null","","<p style=""font-size: 48px;"">+</p>","practice","practice_n","",""
"","","","","","picture","26086","image-keyboard-response","7","27268","0.0-4.0-3.0","99","1","2022-11-17 12:30:34","fd252370c17a9971d68c1d4354a03c2e","","Mozilla/5.0 (Windows NT 10.0; Win64; x64) AppleWebKit/537.36 (KHTML, like Gecko) Chrome/107.0.0.0 Safari/537.36","WebKit","Chrome","107.0.0.0","Windows","10.0","3329","n","","bananaB.jpg","practice","practice_n","true",""
"","","","","","","","html-keyboard-response","8","29277","0.0-4.0-4.0","99","1","2022-11-17 12:30:34","fd252370c17a9971d68c1d4354a03c2e","","Mozilla/5.0 (Windows NT 10.0; Win64; x64) AppleWebKit/537.36 (KHTML, like Gecko) Chrome/107.0.0.0 Safari/537.36","WebKit","Chrome","107.0.0.0","Windows","10.0","null","null","","CORRECT!","","","",""
"","","","","","fixation","26086","html-keyboard-response","9","30298","0.0-4.0-0.1","99","1","2022-11-17 12:30:34","fd252370c17a9971d68c1d4354a03c2e","","Mozilla/5.0 (Windows NT 10.0; Win64; x64) AppleWebKit/537.36 (KHTML, like Gecko) Chrome/107.0.0.0 Safari/537.36","WebKit","Chrome","107.0.0.0","Windows","10.0","null","null","","<p style=""font-size: 48px;"">+</p>","practice","practice_s","",""
"","","","","","sentence","26086","html-keyboard-response","10","32951","0.0-4.0-1.1","99","1","2022-11-17 12:30:34","fd252370c17a9971d68c1d4354a03c2e","","Mozilla/5.0 (Windows NT 10.0; Win64; x64) AppleWebKit/537.36 (KHTML, like Gecko) Chrome/107.0.0.0 Safari/537.36","WebKit","Chrome","107.0.0.0","Windows","10.0","2649"," ","","A bowling ball dropped and smashed a teacup","practice","practice_s","",""
"","","","","","fixation","26086","html-keyboard-response","11","33461","0.0-4.0-2.1","99","1","2022-11-17 12:30:34","fd252370c17a9971d68c1d4354a03c2e","","Mozilla/5.0 (Windows NT 10.0; Win64; x64) AppleWebKit/537.36 (KHTML, like Gecko) Chrome/107.0.0.0 Safari/537.36","WebKit","Chrome","107.0.0.0","Windows","10.0","null","null","","<p style=""font-size: 48px;"">+</p>","practice","practice_s","",""
"","","","","","picture","26086","image-keyboard-response","12","35064","0.0-4.0-3.1","99","1","2022-11-17 12:30:34","fd252370c17a9971d68c1d4354a03c2e","","Mozilla/5.0 (Windows NT 10.0; Win64; x64) AppleWebKit/537.36 (KHTML, like Gecko) Chrome/107.0.0.0 Safari/537.36","WebKit","Chrome","107.0.0.0","Windows","10.0","1598","s","","cupB.jpg","practice","practice_s","true",""
"","","","","","","","html-keyboard-response","13","37079","0.0-4.0-4.1","99","1","2022-11-17 12:30:34","fd252370c17a9971d68c1d4354a03c2e","","Mozilla/5.0 (Windows NT 10.0; Win64; x64) AppleWebKit/537.36 (KHTML, like Gecko) Chrome/107.0.0.0 Safari/537.36","WebKit","Chrome","107.0.0.0","Windows","10.0","null","null","","CORRECT!","","","",""
"","","","","","fixation","26086","html-keyboard-response","14","38091","0.0-4.0-0.2","99","1","2022-11-17 12:30:34","fd252370c17a9971d68c1d4354a03c2e","","Mozilla/5.0 (Windows NT 10.0; Win64; x64) AppleWebKit/537.36 (KHTML, like Gecko) Chrome/107.0.0.0 Safari/537.36","WebKit","Chrome","107.0.0.0","Windows","10.0","null","null","","<p style=""font-size: 48px;"">+</p>","practice","practice_n","",""
"","","","","","sentence","26086","html-keyboard-response","15","42769","0.0-4.0-1.2","99","1","2022-11-17 12:30:34","fd252370c17a9971d68c1d4354a03c2e","","Mozilla/5.0 (Windows NT 10.0; Win64; x64) AppleWebKit/537.36 (KHTML, like Gecko) Chrome/107.0.0.0 Safari/537.36","WebKit","Chrome","107.0.0.0","Windows","10.0","4675"," ","","A bowling ball dropped and touched a bottle","practice","practice_n","",""
"","","","","","fixation","26086","html-keyboard-response","16","43274","0.0-4.0-2.2","99","1","2022-11-17 12:30:34","fd252370c17a9971d68c1d4354a03c2e","","Mozilla/5.0 (Windows NT 10.0; Win64; x64) AppleWebKit/537.36 (KHTML, like Gecko) Chrome/107.0.0.0 Safari/537.36","WebKit","Chrome","107.0.0.0","Windows","10.0","null","null","","<p style=""font-size: 48px;"">+</p>","practice","practice_n","",""
"","","","","","picture","26086","image-keyboard-response","17","44971","0.0-4.0-3.2","99","1","2022-11-17 12:30:34","fd252370c17a9971d68c1d4354a03c2e","","Mozilla/5.0 (Windows NT 10.0; Win64; x64) AppleWebKit/537.36 (KHTML, like Gecko) Chrome/107.0.0.0 Safari/537.36","WebKit","Chrome","107.0.0.0","Windows","10.0","1690","n","","bookB.jpg","practice","practice_n","true",""
"","","","","","","","html-keyboard-response","18","46979","0.0-4.0-4.2","99","1","2022-11-17 12:30:34","fd252370c17a9971d68c1d4354a03c2e","","Mozilla/5.0 (Windows NT 10.0; Win64; x64) AppleWebKit/537.36 (KHTML, like Gecko) Chrome/107.0.0.0 Safari/537.36","WebKit","Chrome","107.0.0.0","Windows","10.0","null","null","","CORRECT!","","","",""
"","","","","","fixation","26086","html-keyboard-response","19","47988","0.0-4.0-0.3","99","1","2022-11-17 12:30:34","fd252370c17a9971d68c1d4354a03c2e","","Mozilla/5.0 (Windows NT 10.0; Win64; x64) AppleWebKit/537.36 (KHTML, like Gecko) Chrome/107.0.0.0 Safari/537.36","WebKit","Chrome","107.0.0.0","Windows","10.0","null","null","","<p style=""font-size: 48px;"">+</p>","practice","practice_s","",""
"","","","","","sentence","26086","html-keyboard-response","20","50141","0.0-4.0-1.3","99","1","2022-11-17 12:30:34","fd252370c17a9971d68c1d4354a03c2e","","Mozilla/5.0 (Windows NT 10.0; Win64; x64) AppleWebKit/537.36 (KHTML, like Gecko) Chrome/107.0.0.0 Safari/537.36","WebKit","Chrome","107.0.0.0","Windows","10.0","2149"," ","","A balloon dropped and touched a cigarette","practice","practice_s","",""
"","","","","","fixation","26086","html-keyboard-response","21","50654","0.0-4.0-2.3","99","1","2022-11-17 12:30:34","fd252370c17a9971d68c1d4354a03c2e","","Mozilla/5.0 (Windows NT 10.0; Win64; x64) AppleWebKit/537.36 (KHTML, like Gecko) Chrome/107.0.0.0 Safari/537.36","WebKit","Chrome","107.0.0.0","Windows","10.0","null","null","","<p style=""font-size: 48px;"">+</p>","practice","practice_s","",""
"","","","","","picture","26086","image-keyboard-response","22","52003","0.0-4.0-3.3","99","1","2022-11-17 12:30:34","fd252370c17a9971d68c1d4354a03c2e","","Mozilla/5.0 (Windows NT 10.0; Win64; x64) AppleWebKit/537.36 (KHTML, like Gecko) Chrome/107.0.0.0 Safari/537.36","WebKit","Chrome","107.0.0.0","Windows","10.0","1343","s","","cigaretteB.jpg","practice","practice_s","true",""
"","","","","","","","html-keyboard-response","23","54019","0.0-4.0-4.3","99","1","2022-11-17 12:30:34","fd252370c17a9971d68c1d4354a03c2e","","Mozilla/5.0 (Windows NT 10.0; Win64; x64) AppleWebKit/537.36 (KHTML, like Gecko) Chrome/107.0.0.0 Safari/537.36","WebKit","Chrome","107.0.0.0","Windows","10.0","null","null","","CORRECT!","","","",""
"","","","","","fixation","26086","html-keyboard-response","24","55027","0.0-4.0-0.4","99","1","2022-11-17 12:30:34","fd252370c17a9971d68c1d4354a03c2e","","Mozilla/5.0 (Windows NT 10.0; Win64; x64) AppleWebKit/537.36 (KHTML, like Gecko) Chrome/107.0.0.0 Safari/537.36","WebKit","Chrome","107.0.0.0","Windows","10.0","null","null","","<p style=""font-size: 48px;"">+</p>","practice","practice_s","",""
"","","","","","sentence","26086","html-keyboard-response","25","56710","0.0-4.0-1.4","99","1","2022-11-17 12:30:34","fd252370c17a9971d68c1d4354a03c2e","","Mozilla/5.0 (Windows NT 10.0; Win64; x64) AppleWebKit/537.36 (KHTML, like Gecko) Chrome/107.0.0.0 Safari/537.36","WebKit","Chrome","107.0.0.0","Windows","10.0","1679"," ","","A knife was placed on a hammer","practice","practice_s","",""
"","","","","","fixation","26086","html-keyboard-response","26","57221","0.0-4.0-2.4","99","1","2022-11-17 12:30:34","fd252370c17a9971d68c1d4354a03c2e","","Mozilla/5.0 (Windows NT 10.0; Win64; x64) AppleWebKit/537.36 (KHTML, like Gecko) Chrome/107.0.0.0 Safari/537.36","WebKit","Chrome","107.0.0.0","Windows","10.0","null","null","","<p style=""font-size: 48px;"">+</p>","practice","practice_s","",""
"","","","","","picture","26086","image-keyboard-response","27","58850","0.0-4.0-3.4","99","1","2022-11-17 12:30:34","fd252370c17a9971d68c1d4354a03c2e","","Mozilla/5.0 (Windows NT 10.0; Win64; x64) AppleWebKit/537.36 (KHTML, like Gecko) Chrome/107.0.0.0 Safari/537.36","WebKit","Chrome","107.0.0.0","Windows","10.0","1623","s","","hammerB.jpg","practice","practice_s","true",""
"","","","","","","","html-keyboard-response","28","60870","0.0-4.0-4.4","99","1","2022-11-17 12:30:34","fd252370c17a9971d68c1d4354a03c2e","","Mozilla/5.0 (Windows NT 10.0; Win64; x64) AppleWebKit/537.36 (KHTML, like Gecko) Chrome/107.0.0.0 Safari/537.36","WebKit","Chrome","107.0.0.0","Windows","10.0","null","null","","CORRECT!","","","",""
"","","","","","fixation","26086","html-keyboard-response","29","61891","0.0-4.0-0.5","99","1","2022-11-17 12:30:34","fd252370c17a9971d68c1d4354a03c2e","","Mozilla/5.0 (Windows NT 10.0; Win64; x64) AppleWebKit/537.36 (KHTML, like Gecko) Chrome/107.0.0.0 Safari/537.36","WebKit","Chrome","107.0.0.0","Windows","10.0","null","null","","<p style=""font-size: 48px;"">+</p>","practice","practice_n","",""
"","","","","","sentence","26086","html-keyboard-response","30","62910","0.0-4.0-1.5","99","1","2022-11-17 12:30:34","fd252370c17a9971d68c1d4354a03c2e","","Mozilla/5.0 (Windows NT 10.0; Win64; x64) AppleWebKit/537.36 (KHTML, like Gecko) Chrome/107.0.0.0 Safari/537.36","WebKit","Chrome","107.0.0.0","Windows","10.0","1014"," ","","A fork was placed on a stool","practice","practice_n","",""
"","","","","","fixation","26086","html-keyboard-response","31","63423","0.0-4.0-2.5","99","1","2022-11-17 12:30:34","fd252370c17a9971d68c1d4354a03c2e","","Mozilla/5.0 (Windows NT 10.0; Win64; x64) AppleWebKit/537.36 (KHTML, like Gecko) Chrome/107.0.0.0 Safari/537.36","WebKit","Chrome","107.0.0.0","Windows","10.0","null","null","","<p style=""font-size: 48px;"">+</p>","practice","practice_n","",""
"","","","","","picture","26086","image-keyboard-response","32","65281","0.0-4.0-3.5","99","1","2022-11-17 12:30:34","fd252370c17a9971d68c1d4354a03c2e","","Mozilla/5.0 (Windows NT 10.0; Win64; x64) AppleWebKit/537.36 (KHTML, like Gecko) Chrome/107.0.0.0 Safari/537.36","WebKit","Chrome","107.0.0.0","Windows","10.0","1851","n","","tableB.jpg","practice","practice_n","true",""
"","","","","","","","html-keyboard-response","33","67294","0.0-4.0-4.5","99","1","2022-11-17 12:30:34","fd252370c17a9971d68c1d4354a03c2e","","Mozilla/5.0 (Windows NT 10.0; Win64; x64) AppleWebKit/537.36 (KHTML, like Gecko) Chrome/107.0.0.0 Safari/537.36","WebKit","Chrome","107.0.0.0","Windows","10.0","null","null","","CORRECT!","","","",""
"","","","","","movetoexp","26086","html-button-response","34","100910","0.0-5.0","99","1","2022-11-17 12:30:34","fd252370c17a9971d68c1d4354a03c2e","","Mozilla/5.0 (Windows NT 10.0; Win64; x64) AppleWebKit/537.36 (KHTML, like Gecko) Chrome/107.0.0.0 Safari/537.36","WebKit","Chrome","107.0.0.0","Windows","10.0","33610","0","","<p style=""font-size:20px;"">You have now completed the practice session! </p>
                    <p style=""font-size:20px;"">You will now move on to the main experiment, where you will not be provided any feedback. </p>
                    <p style=""font-size:20px;"">Remember, you should press <strong>S</strong> if the pictured object was mentioned in the preceding sentence<br> and <strong>N</strong> if the pictured object was not mentioned in the preceding sentence.</p>
                    <p style=""font-size:20px;"">Please click the button below to continue to the main experiment. </p>","","","",""
"","","","","","fixation","26086","html-keyboard-response","35","101928","0.0-6.0-0.0","99","1","2022-11-17 12:30:34","fd252370c17a9971d68c1d4354a03c2e","","Mozilla/5.0 (Windows NT 10.0; Win64; x64) AppleWebKit/537.36 (KHTML, like Gecko) Chrome/107.0.0.0 Safari/537.36","WebKit","Chrome","107.0.0.0","Windows","10.0","null","null","","<p style=""font-size: 48px;"">+</p>","1","Filler","",""
"","","","","","sentence","26086","html-keyboard-response","36","106483","0.0-6.0-1.0","99","1","2022-11-17 12:30:34","fd252370c17a9971d68c1d4354a03c2e","","Mozilla/5.0 (Windows NT 10.0; Win64; x64) AppleWebKit/537.36 (KHTML, like Gecko) Chrome/107.0.0.0 Safari/537.36","WebKit","Chrome","107.0.0.0","Windows","10.0","4548"," ","","A hairdresser is taking scissors","1","Filler","",""
"","","","","","fixation","26086","html-keyboard-response","37","106994","0.0-6.0-2.0","99","1","2022-11-17 12:30:34","fd252370c17a9971d68c1d4354a03c2e","","Mozilla/5.0 (Windows NT 10.0; Win64; x64) AppleWebKit/537.36 (KHTML, like Gecko) Chrome/107.0.0.0 Safari/537.36","WebKit","Chrome","107.0.0.0","Windows","10.0","null","null","","<p style=""font-size: 48px;"">+</p>","1","Filler","",""
"","","","","","picture","26086","image-keyboard-response","38","108332","0.0-6.0-3.0","99","1","2022-11-17 12:30:34","fd252370c17a9971d68c1d4354a03c2e","","Mozilla/5.0 (Windows NT 10.0; Win64; x64) AppleWebKit/537.36 (KHTML, like Gecko) Chrome/107.0.0.0 Safari/537.36","WebKit","Chrome","107.0.0.0","Windows","10.0","1331","n","","sock.jpg","1","Filler","true",""
"","","","","","fixation","26086","html-keyboard-response","39","109351","0.0-6.0-0.1","99","1","2022-11-17 12:30:34","fd252370c17a9971d68c1d4354a03c2e","","Mozilla/5.0 (Windows NT 10.0; Win64; x64) AppleWebKit/537.36 (KHTML, like Gecko) Chrome/107.0.0.0 Safari/537.36","WebKit","Chrome","107.0.0.0","Windows","10.0","null","null","","<p style=""font-size: 48px;"">+</p>","1","Filler","",""
"","","","","","sentence","26086","html-keyboard-response","40","111609","0.0-6.0-1.1","99","1","2022-11-17 12:30:34","fd252370c17a9971d68c1d4354a03c2e","","Mozilla/5.0 (Windows NT 10.0; Win64; x64) AppleWebKit/537.36 (KHTML, like Gecko) Chrome/107.0.0.0 Safari/537.36","WebKit","Chrome","107.0.0.0","Windows","10.0","2251"," ","","A zebra is playing with a horse","1","Filler","",""
"","","","","","fixation","26086","html-keyboard-response","41","112116","0.0-6.0-2.1","99","1","2022-11-17 12:30:34","fd252370c17a9971d68c1d4354a03c2e","","Mozilla/5.0 (Windows NT 10.0; Win64; x64) AppleWebKit/537.36 (KHTML, like Gecko) Chrome/107.0.0.0 Safari/537.36","WebKit","Chrome","107.0.0.0","Windows","10.0","null","null","","<p style=""font-size: 48px;"">+</p>","1","Filler","",""
"","","","","","picture","26086","image-keyboard-response","42","113216","0.0-6.0-3.1","99","1","2022-11-17 12:30:34","fd252370c17a9971d68c1d4354a03c2e","","Mozilla/5.0 (Windows NT 10.0; Win64; x64) AppleWebKit/537.36 (KHTML, like Gecko) Chrome/107.0.0.0 Safari/537.36","WebKit","Chrome","107.0.0.0","Windows","10.0","1093","n","","watch.jpg","1","Filler","true",""
"","","","","","fixation","26086","html-keyboard-response","43","114239","0.0-6.0-0.2","99","1","2022-11-17 12:30:34","fd252370c17a9971d68c1d4354a03c2e","","Mozilla/5.0 (Windows NT 10.0; Win64; x64) AppleWebKit/537.36 (KHTML, like Gecko) Chrome/107.0.0.0 Safari/537.36","WebKit","Chrome","107.0.0.0","Windows","10.0","null","null","","<p style=""font-size: 48px;"">+</p>","1","Filler","",""
"","","","","","sentence","26086","html-keyboard-response","44","115711","0.0-6.0-1.2","99","1","2022-11-17 12:30:34","fd252370c17a9971d68c1d4354a03c2e","","Mozilla/5.0 (Windows NT 10.0; Win64; x64) AppleWebKit/537.36 (KHTML, like Gecko) Chrome/107.0.0.0 Safari/537.36","WebKit","Chrome","107.0.0.0","Windows","10.0","1466"," ","","A man is shaving his beard","1","Filler","",""
"","","","","","fixation","26086","html-keyboard-response","45","116223","0.0-6.0-2.2","99","1","2022-11-17 12:30:34","fd252370c17a9971d68c1d4354a03c2e","","Mozilla/5.0 (Windows NT 10.0; Win64; x64) AppleWebKit/537.36 (KHTML, like Gecko) Chrome/107.0.0.0 Safari/537.36","WebKit","Chrome","107.0.0.0","Windows","10.0","null","null","","<p style=""font-size: 48px;"">+</p>","1","Filler","",""
"","","","","","picture","26086","image-keyboard-response","46","117306","0.0-6.0-3.2","99","1","2022-11-17 12:30:34","fd252370c17a9971d68c1d4354a03c2e","","Mozilla/5.0 (Windows NT 10.0; Win64; x64) AppleWebKit/537.36 (KHTML, like Gecko) Chrome/107.0.0.0 Safari/537.36","WebKit","Chrome","107.0.0.0","Windows","10.0","1075","n","","clock.jpg","1","Filler","true",""
"","","","","","fixation","26086","html-keyboard-response","47","118327","0.0-6.0-0.3","99","1","2022-11-17 12:30:34","fd252370c17a9971d68c1d4354a03c2e","","Mozilla/5.0 (Windows NT 10.0; Win64; x64) AppleWebKit/537.36 (KHTML, like Gecko) Chrome/107.0.0.0 Safari/537.36","WebKit","Chrome","107.0.0.0","Windows","10.0","null","null","","<p style=""font-size: 48px;"">+</p>","1","Heavy_Contradictory","",""
"","","","","","sentence","26086","html-keyboard-response","48","120643","0.0-6.0-1.3","99","1","2022-11-17 12:30:34","fd252370c17a9971d68c1d4354a03c2e","","Mozilla/5.0 (Windows NT 10.0; Win64; x64) AppleWebKit/537.36 (KHTML, like Gecko) Chrome/107.0.0.0 Safari/537.36","WebKit","Chrome","107.0.0.0","Windows","10.0","2309"," ","","A bowling ball dropped and touched a blackberry","1","Heavy_Contradictory","",""
"","","","","","fixation","26086","html-keyboard-response","49","121155","0.0-6.0-2.3","99","1","2022-11-17 12:30:34","fd252370c17a9971d68c1d4354a03c2e","","Mozilla/5.0 (Windows NT 10.0; Win64; x64) AppleWebKit/537.36 (KHTML, like Gecko) Chrome/107.0.0.0 Safari/537.36","WebKit","Chrome","107.0.0.0","Windows","10.0","null","null","","<p style=""font-size: 48px;"">+</p>","1","Heavy_Contradictory","",""
"","","","","","picture","26086","image-keyboard-response","50","123022","0.0-6.0-3.3","99","1","2022-11-17 12:30:34","fd252370c17a9971d68c1d4354a03c2e","","Mozilla/5.0 (Windows NT 10.0; Win64; x64) AppleWebKit/537.36 (KHTML, like Gecko) Chrome/107.0.0.0 Safari/537.36","WebKit","Chrome","107.0.0.0","Windows","10.0","1856","s","","blackberryS.jpg","1","Heavy_Contradictory","true",""
"","","","","","fixation","26086","html-keyboard-response","51","124040","0.0-6.0-0.4","99","1","2022-11-17 12:30:34","fd252370c17a9971d68c1d4354a03c2e","","Mozilla/5.0 (Windows NT 10.0; Win64; x64) AppleWebKit/537.36 (KHTML, like Gecko) Chrome/107.0.0.0 Safari/537.36","WebKit","Chrome","107.0.0.0","Windows","10.0","null","null","","<p style=""font-size: 48px;"">+</p>","1","Filler","",""
"","","","","","sentence","26086","html-keyboard-response","52","125136","0.0-6.0-1.4","99","1","2022-11-17 12:30:34","fd252370c17a9971d68c1d4354a03c2e","","Mozilla/5.0 (Windows NT 10.0; Win64; x64) AppleWebKit/537.36 (KHTML, like Gecko) Chrome/107.0.0.0 Safari/537.36","WebKit","Chrome","107.0.0.0","Windows","10.0","1087"," ","","A panda is resting on a tree","1","Filler","",""
"","","","","","fixation","26086","html-keyboard-response","53","125653","0.0-6.0-2.4","99","1","2022-11-17 12:30:34","fd252370c17a9971d68c1d4354a03c2e","","Mozilla/5.0 (Windows NT 10.0; Win64; x64) AppleWebKit/537.36 (KHTML, like Gecko) Chrome/107.0.0.0 Safari/537.36","WebKit","Chrome","107.0.0.0","Windows","10.0","null","null","","<p style=""font-size: 48px;"">+</p>","1","Filler","",""
"","","","","","picture","26086","image-keyboard-response","54","126669","0.0-6.0-3.4","99","1","2022-11-17 12:30:34","fd252370c17a9971d68c1d4354a03c2e","","Mozilla/5.0 (Windows NT 10.0; Win64; x64) AppleWebKit/537.36 (KHTML, like Gecko) Chrome/107.0.0.0 Safari/537.36","WebKit","Chrome","107.0.0.0","Windows","10.0","1002","n","","dollar.jpg","1","Filler","true",""
"","","","","","fixation","26086","html-keyboard-response","55","127689","0.0-6.0-0.5","99","1","2022-11-17 12:30:34","fd252370c17a9971d68c1d4354a03c2e","","Mozilla/5.0 (Windows NT 10.0; Win64; x64) AppleWebKit/537.36 (KHTML, like Gecko) Chrome/107.0.0.0 Safari/537.36","WebKit","Chrome","107.0.0.0","Windows","10.0","null","null","","<p style=""font-size: 48px;"">+</p>","1","Filler","",""
"","","","","","sentence","26086","html-keyboard-response","56","128876","0.0-6.0-1.5","99","1","2022-11-17 12:30:34","fd252370c17a9971d68c1d4354a03c2e","","Mozilla/5.0 (Windows NT 10.0; Win64; x64) AppleWebKit/537.36 (KHTML, like Gecko) Chrome/107.0.0.0 Safari/537.36","WebKit","Chrome","107.0.0.0","Windows","10.0","1180"," ","","A towel was placed on the TV","1","Filler","",""
"","","","","","fixation","26086","html-keyboard-response","57","129398","0.0-6.0-2.5","99","1","2022-11-17 12:30:34","fd252370c17a9971d68c1d4354a03c2e","","Mozilla/5.0 (Windows NT 10.0; Win64; x64) AppleWebKit/537.36 (KHTML, like Gecko) Chrome/107.0.0.0 Safari/537.36","WebKit","Chrome","107.0.0.0","Windows","10.0","null","null","","<p style=""font-size: 48px;"">+</p>","1","Filler","",""
"","","","","","picture","26086","image-keyboard-response","58","130371","0.0-6.0-3.5","99","1","2022-11-17 12:30:34","fd252370c17a9971d68c1d4354a03c2e","","Mozilla/5.0 (Windows NT 10.0; Win64; x64) AppleWebKit/537.36 (KHTML, like Gecko) Chrome/107.0.0.0 Safari/537.36","WebKit","Chrome","107.0.0.0","Windows","10.0","960","n","","pencil.jpg","1","Filler","true",""
"","","","","","fixation","26086","html-keyboard-response","59","131398","0.0-6.0-0.6","99","1","2022-11-17 12:30:34","fd252370c17a9971d68c1d4354a03c2e","","Mozilla/5.0 (Windows NT 10.0; Win64; x64) AppleWebKit/537.36 (KHTML, like Gecko) Chrome/107.0.0.0 Safari/537.36","WebKit","Chrome","107.0.0.0","Windows","10.0","null","null","","<p style=""font-size: 48px;"">+</p>","1","Filler","",""
"","","","","","sentence","26086","html-keyboard-response","60","133512","0.0-6.0-1.6","99","1","2022-11-17 12:30:34","fd252370c17a9971d68c1d4354a03c2e","","Mozilla/5.0 (Windows NT 10.0; Win64; x64) AppleWebKit/537.36 (KHTML, like Gecko) Chrome/107.0.0.0 Safari/537.36","WebKit","Chrome","107.0.0.0","Windows","10.0","2101"," ","","A keyboard was placed on the bed","1","Filler","",""
"","","","","","fixation","26086","html-keyboard-response","61","134038","0.0-6.0-2.6","99","1","2022-11-17 12:30:34","fd252370c17a9971d68c1d4354a03c2e","","Mozilla/5.0 (Windows NT 10.0; Win64; x64) AppleWebKit/537.36 (KHTML, like Gecko) Chrome/107.0.0.0 Safari/537.36","WebKit","Chrome","107.0.0.0","Windows","10.0","null","null","","<p style=""font-size: 48px;"">+</p>","1","Filler","",""
"","","","","","picture","26086","image-keyboard-response","62","135089","0.0-6.0-3.6","99","1","2022-11-17 12:30:34","fd252370c17a9971d68c1d4354a03c2e","","Mozilla/5.0 (Windows NT 10.0; Win64; x64) AppleWebKit/537.36 (KHTML, like Gecko) Chrome/107.0.0.0 Safari/537.36","WebKit","Chrome","107.0.0.0","Windows","10.0","1042","n","","bottlecap.jpg","1","Filler","true",""
"","","","","","fixation","26086","html-keyboard-response","63","136101","0.0-6.0-0.7","99","1","2022-11-17 12:30:34","fd252370c17a9971d68c1d4354a03c2e","","Mozilla/5.0 (Windows NT 10.0; Win64; x64) AppleWebKit/537.36 (KHTML, like Gecko) Chrome/107.0.0.0 Safari/537.36","WebKit","Chrome","107.0.0.0","Windows","10.0","null","null","","<p style=""font-size: 48px;"">+</p>","1","Filler","",""
"","","","","","sentence","26086","html-keyboard-response","64","138281","0.0-6.0-1.7","99","1","2022-11-17 12:30:34","fd252370c17a9971d68c1d4354a03c2e","","Mozilla/5.0 (Windows NT 10.0; Win64; x64) AppleWebKit/537.36 (KHTML, like Gecko) Chrome/107.0.0.0 Safari/537.36","WebKit","Chrome","107.0.0.0","Windows","10.0","2171"," ","","A butterfly is sitting on a flower","1","Filler","",""
"","","","","","fixation","26086","html-keyboard-response","65","138791","0.0-6.0-2.7","99","1","2022-11-17 12:30:34","fd252370c17a9971d68c1d4354a03c2e","","Mozilla/5.0 (Windows NT 10.0; Win64; x64) AppleWebKit/537.36 (KHTML, like Gecko) Chrome/107.0.0.0 Safari/537.36","WebKit","Chrome","107.0.0.0","Windows","10.0","null","null","","<p style=""font-size: 48px;"">+</p>","1","Filler","",""
"","","","","","picture","26086","image-keyboard-response","66","139806","0.0-6.0-3.7","99","1","2022-11-17 12:30:34","fd252370c17a9971d68c1d4354a03c2e","","Mozilla/5.0 (Windows NT 10.0; Win64; x64) AppleWebKit/537.36 (KHTML, like Gecko) Chrome/107.0.0.0 Safari/537.36","WebKit","Chrome","107.0.0.0","Windows","10.0","1001","n","","soap.jpg","1","Filler","true",""
"","","","","","fixation","26086","html-keyboard-response","67","140836","0.0-6.0-0.8","99","1","2022-11-17 12:30:34","fd252370c17a9971d68c1d4354a03c2e","","Mozilla/5.0 (Windows NT 10.0; Win64; x64) AppleWebKit/537.36 (KHTML, like Gecko) Chrome/107.0.0.0 Safari/537.36","WebKit","Chrome","107.0.0.0","Windows","10.0","null","null","","<p style=""font-size: 48px;"">+</p>","1","Filler","",""
"","","","","","sentence","26086","html-keyboard-response","68","142104","0.0-6.0-1.8","99","1","2022-11-17 12:30:34","fd252370c17a9971d68c1d4354a03c2e","","Mozilla/5.0 (Windows NT 10.0; Win64; x64) AppleWebKit/537.36 (KHTML, like Gecko) Chrome/107.0.0.0 Safari/537.36","WebKit","Chrome","107.0.0.0","Windows","10.0","1258"," ","","A thief is stealing a wallet","1","Filler","",""
"","","","","","fixation","26086","html-keyboard-response","69","142624","0.0-6.0-2.8","99","1","2022-11-17 12:30:34","fd252370c17a9971d68c1d4354a03c2e","","Mozilla/5.0 (Windows NT 10.0; Win64; x64) AppleWebKit/537.36 (KHTML, like Gecko) Chrome/107.0.0.0 Safari/537.36","WebKit","Chrome","107.0.0.0","Windows","10.0","null","null","","<p style=""font-size: 48px;"">+</p>","1","Filler","",""
"","","","","","picture","26086","image-keyboard-response","70","143480","0.0-6.0-3.8","99","1","2022-11-17 12:30:34","fd252370c17a9971d68c1d4354a03c2e","","Mozilla/5.0 (Windows NT 10.0; Win64; x64) AppleWebKit/537.36 (KHTML, like Gecko) Chrome/107.0.0.0 Safari/537.36","WebKit","Chrome","107.0.0.0","Windows","10.0","845","n","","teddybear.jpg","1","Filler","true",""
"","","","","","fixation","26086","html-keyboard-response","71","144496","0.0-6.0-0.9","99","1","2022-11-17 12:30:34","fd252370c17a9971d68c1d4354a03c2e","","Mozilla/5.0 (Windows NT 10.0; Win64; x64) AppleWebKit/537.36 (KHTML, like Gecko) Chrome/107.0.0.0 Safari/537.36","WebKit","Chrome","107.0.0.0","Windows","10.0","null","null","","<p style=""font-size: 48px;"">+</p>","1","Filler","",""
"","","","","","sentence","26086","html-keyboard-response","72","146051","0.0-6.0-1.9","99","1","2022-11-17 12:30:34","fd252370c17a9971d68c1d4354a03c2e","","Mozilla/5.0 (Windows NT 10.0; Win64; x64) AppleWebKit/537.36 (KHTML, like Gecko) Chrome/107.0.0.0 Safari/537.36","WebKit","Chrome","107.0.0.0","Windows","10.0","1546"," ","","An old man is hammering a nail","1","Filler","",""
"","","","","","fixation","26086","html-keyboard-response","73","146561","0.0-6.0-2.9","99","1","2022-11-17 12:30:34","fd252370c17a9971d68c1d4354a03c2e","","Mozilla/5.0 (Windows NT 10.0; Win64; x64) AppleWebKit/537.36 (KHTML, like Gecko) Chrome/107.0.0.0 Safari/537.36","WebKit","Chrome","107.0.0.0","Windows","10.0","null","null","","<p style=""font-size: 48px;"">+</p>","1","Filler","",""
"","","","","","picture","26086","image-keyboard-response","74","147814","0.0-6.0-3.9","99","1","2022-11-17 12:30:34","fd252370c17a9971d68c1d4354a03c2e","","Mozilla/5.0 (Windows NT 10.0; Win64; x64) AppleWebKit/537.36 (KHTML, like Gecko) Chrome/107.0.0.0 Safari/537.36","WebKit","Chrome","107.0.0.0","Windows","10.0","1242","s","","nail.jpg","1","Filler","true",""
"","","","","","fixation","26086","html-keyboard-response","75","148830","0.0-6.0-0.10","99","1","2022-11-17 12:30:34","fd252370c17a9971d68c1d4354a03c2e","","Mozilla/5.0 (Windows NT 10.0; Win64; x64) AppleWebKit/537.36 (KHTML, like Gecko) Chrome/107.0.0.0 Safari/537.36","WebKit","Chrome","107.0.0.0","Windows","10.0","null","null","","<p style=""font-size: 48px;"">+</p>","1","Heavy_Matched","",""
"","","","","","sentence","26086","html-keyboard-response","76","150214","0.0-6.0-1.10","99","1","2022-11-17 12:30:34","fd252370c17a9971d68c1d4354a03c2e","","Mozilla/5.0 (Windows NT 10.0; Win64; x64) AppleWebKit/537.36 (KHTML, like Gecko) Chrome/107.0.0.0 Safari/537.36","WebKit","Chrome","107.0.0.0","Windows","10.0","1372"," ","","A bowling ball dropped and smashed a TV","1","Heavy_Matched","",""
"","","","","","fixation","26086","html-keyboard-response","77","150739","0.0-6.0-2.10","99","1","2022-11-17 12:30:34","fd252370c17a9971d68c1d4354a03c2e","","Mozilla/5.0 (Windows NT 10.0; Win64; x64) AppleWebKit/537.36 (KHTML, like Gecko) Chrome/107.0.0.0 Safari/537.36","WebKit","Chrome","107.0.0.0","Windows","10.0","null","null","","<p style=""font-size: 48px;"">+</p>","1","Heavy_Matched","",""
"","","","","","picture","26086","image-keyboard-response","78","151469","0.0-6.0-3.10","99","1","2022-11-17 12:30:34","fd252370c17a9971d68c1d4354a03c2e","","Mozilla/5.0 (Windows NT 10.0; Win64; x64) AppleWebKit/537.36 (KHTML, like Gecko) Chrome/107.0.0.0 Safari/537.36","WebKit","Chrome","107.0.0.0","Windows","10.0","719","s","","tvS.jpg","1","Heavy_Matched","true",""
"","","","","","fixation","26086","html-keyboard-response","79","152490","0.0-6.0-0.11","99","1","2022-11-17 12:30:34","fd252370c17a9971d68c1d4354a03c2e","","Mozilla/5.0 (Windows NT 10.0; Win64; x64) AppleWebKit/537.36 (KHTML, like Gecko) Chrome/107.0.0.0 Safari/537.36","WebKit","Chrome","107.0.0.0","Windows","10.0","null","null","","<p style=""font-size: 48px;"">+</p>","1","Light_Contradictory","",""
"","","","","","sentence","26086","html-keyboard-response","80","156220","0.0-6.0-1.11","99","1","2022-11-17 12:30:34","fd252370c17a9971d68c1d4354a03c2e","","Mozilla/5.0 (Windows NT 10.0; Win64; x64) AppleWebKit/537.36 (KHTML, like Gecko) Chrome/107.0.0.0 Safari/537.36","WebKit","Chrome","107.0.0.0","Windows","10.0","3722"," ","","A balloon dropped and smashed a tile","1","Light_Contradictory","",""
"","","","","","fixation","26086","html-keyboard-response","81","156733","0.0-6.0-2.11","99","1","2022-11-17 12:30:34","fd252370c17a9971d68c1d4354a03c2e","","Mozilla/5.0 (Windows NT 10.0; Win64; x64) AppleWebKit/537.36 (KHTML, like Gecko) Chrome/107.0.0.0 Safari/537.36","WebKit","Chrome","107.0.0.0","Windows","10.0","null","null","","<p style=""font-size: 48px;"">+</p>","1","Light_Contradictory","",""
"","","","","","picture","26086","image-keyboard-response","82","158037","0.0-6.0-3.11","99","1","2022-11-17 12:30:34","fd252370c17a9971d68c1d4354a03c2e","","Mozilla/5.0 (Windows NT 10.0; Win64; x64) AppleWebKit/537.36 (KHTML, like Gecko) Chrome/107.0.0.0 Safari/537.36","WebKit","Chrome","107.0.0.0","Windows","10.0","1293","s","","tileS.jpg","1","Light_Contradictory","true",""
"","","","","","fixation","26086","html-keyboard-response","83","159064","0.0-6.0-0.12","99","1","2022-11-17 12:30:34","fd252370c17a9971d68c1d4354a03c2e","","Mozilla/5.0 (Windows NT 10.0; Win64; x64) AppleWebKit/537.36 (KHTML, like Gecko) Chrome/107.0.0.0 Safari/537.36","WebKit","Chrome","107.0.0.0","Windows","10.0","null","null","","<p style=""font-size: 48px;"">+</p>","1","Filler","",""
"","","","","","sentence","26086","html-keyboard-response","84","160411","0.0-6.0-1.12","99","1","2022-11-17 12:30:34","fd252370c17a9971d68c1d4354a03c2e","","Mozilla/5.0 (Windows NT 10.0; Win64; x64) AppleWebKit/537.36 (KHTML, like Gecko) Chrome/107.0.0.0 Safari/537.36","WebKit","Chrome","107.0.0.0","Windows","10.0","1337"," ","","A toothbrush was placed on the sponge","1","Filler","",""
"","","","","","fixation","26086","html-keyboard-response","85","160930","0.0-6.0-2.12","99","1","2022-11-17 12:30:34","fd252370c17a9971d68c1d4354a03c2e","","Mozilla/5.0 (Windows NT 10.0; Win64; x64) AppleWebKit/537.36 (KHTML, like Gecko) Chrome/107.0.0.0 Safari/537.36","WebKit","Chrome","107.0.0.0","Windows","10.0","null","null","","<p style=""font-size: 48px;"">+</p>","1","Filler","",""
"","","","","","picture","26086","image-keyboard-response","86","161864","0.0-6.0-3.12","99","1","2022-11-17 12:30:34","fd252370c17a9971d68c1d4354a03c2e","","Mozilla/5.0 (Windows NT 10.0; Win64; x64) AppleWebKit/537.36 (KHTML, like Gecko) Chrome/107.0.0.0 Safari/537.36","WebKit","Chrome","107.0.0.0","Windows","10.0","921","s","","sponge.jpg","1","Filler","true",""
"","","","","","fixation","26086","html-keyboard-response","87","162879","0.0-6.0-0.13","99","1","2022-11-17 12:30:34","fd252370c17a9971d68c1d4354a03c2e","","Mozilla/5.0 (Windows NT 10.0; Win64; x64) AppleWebKit/537.36 (KHTML, like Gecko) Chrome/107.0.0.0 Safari/537.36","WebKit","Chrome","107.0.0.0","Windows","10.0","null","null","","<p style=""font-size: 48px;"">+</p>","1","Filler","",""
"","","","","","sentence","26086","html-keyboard-response","88","163978","0.0-6.0-1.13","99","1","2022-11-17 12:30:34","fd252370c17a9971d68c1d4354a03c2e","","Mozilla/5.0 (Windows NT 10.0; Win64; x64) AppleWebKit/537.36 (KHTML, like Gecko) Chrome/107.0.0.0 Safari/537.36","WebKit","Chrome","107.0.0.0","Windows","10.0","1087"," ","","A pilot is reading a book","1","Filler","",""
"","","","","","fixation","26086","html-keyboard-response","89","164504","0.0-6.0-2.13","99","1","2022-11-17 12:30:34","fd252370c17a9971d68c1d4354a03c2e","","Mozilla/5.0 (Windows NT 10.0; Win64; x64) AppleWebKit/537.36 (KHTML, like Gecko) Chrome/107.0.0.0 Safari/537.36","WebKit","Chrome","107.0.0.0","Windows","10.0","null","null","","<p style=""font-size: 48px;"">+</p>","1","Filler","",""
"","","","","","picture","26086","image-keyboard-response","90","165654","0.0-6.0-3.13","99","1","2022-11-17 12:30:34","fd252370c17a9971d68c1d4354a03c2e","","Mozilla/5.0 (Windows NT 10.0; Win64; x64) AppleWebKit/537.36 (KHTML, like Gecko) Chrome/107.0.0.0 Safari/537.36","WebKit","Chrome","107.0.0.0","Windows","10.0","1132","n","","spoon.jpg","1","Filler","true",""
"","","","","","fixation","26086","html-keyboard-response","91","166672","0.0-6.0-0.14","99","1","2022-11-17 12:30:34","fd252370c17a9971d68c1d4354a03c2e","","Mozilla/5.0 (Windows NT 10.0; Win64; x64) AppleWebKit/537.36 (KHTML, like Gecko) Chrome/107.0.0.0 Safari/537.36","WebKit","Chrome","107.0.0.0","Windows","10.0","null","null","","<p style=""font-size: 48px;"">+</p>","1","Heavy_Contradictory","",""
"","","","","","sentence","26086","html-keyboard-response","92","168239","0.0-6.0-1.14","99","1","2022-11-17 12:30:34","fd252370c17a9971d68c1d4354a03c2e","","Mozilla/5.0 (Windows NT 10.0; Win64; x64) AppleWebKit/537.36 (KHTML, like Gecko) Chrome/107.0.0.0 Safari/537.36","WebKit","Chrome","107.0.0.0","Windows","10.0","1556"," ","","A bowling ball dropped and touched glasses","1","Heavy_Contradictory","",""
"","","","","","fixation","26086","html-keyboard-response","93","168759","0.0-6.0-2.14","99","1","2022-11-17 12:30:34","fd252370c17a9971d68c1d4354a03c2e","","Mozilla/5.0 (Windows NT 10.0; Win64; x64) AppleWebKit/537.36 (KHTML, like Gecko) Chrome/107.0.0.0 Safari/537.36","WebKit","Chrome","107.0.0.0","Windows","10.0","null","null","","<p style=""font-size: 48px;"">+</p>","1","Heavy_Contradictory","",""
"","","","","","picture","26086","image-keyboard-response","94","169611","0.0-6.0-3.14","99","1","2022-11-17 12:30:34","fd252370c17a9971d68c1d4354a03c2e","","Mozilla/5.0 (Windows NT 10.0; Win64; x64) AppleWebKit/537.36 (KHTML, like Gecko) Chrome/107.0.0.0 Safari/537.36","WebKit","Chrome","107.0.0.0","Windows","10.0","837","s","","glassesS.jpg","1","Heavy_Contradictory","true",""
"","","","","","fixation","26086","html-keyboard-response","95","170636","0.0-6.0-0.15","99","1","2022-11-17 12:30:34","fd252370c17a9971d68c1d4354a03c2e","","Mozilla/5.0 (Windows NT 10.0; Win64; x64) AppleWebKit/537.36 (KHTML, like Gecko) Chrome/107.0.0.0 Safari/537.36","WebKit","Chrome","107.0.0.0","Windows","10.0","null","null","","<p style=""font-size: 48px;"">+</p>","1","Heavy_Matched","",""
"","","","","","sentence","26086","html-keyboard-response","96","172121","0.0-6.0-1.15","99","1","2022-11-17 12:30:34","fd252370c17a9971d68c1d4354a03c2e","","Mozilla/5.0 (Windows NT 10.0; Win64; x64) AppleWebKit/537.36 (KHTML, like Gecko) Chrome/107.0.0.0 Safari/537.36","WebKit","Chrome","107.0.0.0","Windows","10.0","1474"," ","","A bowling ball dropped and smashed an egg","1","Heavy_Matched","",""
"","","","","","fixation","26086","html-keyboard-response","97","172638","0.0-6.0-2.15","99","1","2022-11-17 12:30:34","fd252370c17a9971d68c1d4354a03c2e","","Mozilla/5.0 (Windows NT 10.0; Win64; x64) AppleWebKit/537.36 (KHTML, like Gecko) Chrome/107.0.0.0 Safari/537.36","WebKit","Chrome","107.0.0.0","Windows","10.0","null","null","","<p style=""font-size: 48px;"">+</p>","1","Heavy_Matched","",""
"","","","","","picture","26086","image-keyboard-response","98","173680","0.0-6.0-3.15","99","1","2022-11-17 12:30:34","fd252370c17a9971d68c1d4354a03c2e","","Mozilla/5.0 (Windows NT 10.0; Win64; x64) AppleWebKit/537.36 (KHTML, like Gecko) Chrome/107.0.0.0 Safari/537.36","WebKit","Chrome","107.0.0.0","Windows","10.0","1027","s","","eggS.jpg","1","Heavy_Matched","true",""
"","","","","","fixation","26086","html-keyboard-response","99","174693","0.0-6.0-0.16","99","1","2022-11-17 12:30:34","fd252370c17a9971d68c1d4354a03c2e","","Mozilla/5.0 (Windows NT 10.0; Win64; x64) AppleWebKit/537.36 (KHTML, like Gecko) Chrome/107.0.0.0 Safari/537.36","WebKit","Chrome","107.0.0.0","Windows","10.0","null","null","","<p style=""font-size: 48px;"">+</p>","1","Filler","",""
"","","","","","sentence","26086","html-keyboard-response","100","175841","0.0-6.0-1.16","99","1","2022-11-17 12:30:34","fd252370c17a9971d68c1d4354a03c2e","","Mozilla/5.0 (Windows NT 10.0; Win64; x64) AppleWebKit/537.36 (KHTML, like Gecko) Chrome/107.0.0.0 Safari/537.36","WebKit","Chrome","107.0.0.0","Windows","10.0","1134"," ","","A pencil was placed on the shoe","1","Filler","",""
"","","","","","fixation","26086","html-keyboard-response","101","176354","0.0-6.0-2.16","99","1","2022-11-17 12:30:34","fd252370c17a9971d68c1d4354a03c2e","","Mozilla/5.0 (Windows NT 10.0; Win64; x64) AppleWebKit/537.36 (KHTML, like Gecko) Chrome/107.0.0.0 Safari/537.36","WebKit","Chrome","107.0.0.0","Windows","10.0","null","null","","<p style=""font-size: 48px;"">+</p>","1","Filler","",""
"","","","","","picture","26086","image-keyboard-response","102","177247","0.0-6.0-3.16","99","1","2022-11-17 12:30:34","fd252370c17a9971d68c1d4354a03c2e","","Mozilla/5.0 (Windows NT 10.0; Win64; x64) AppleWebKit/537.36 (KHTML, like Gecko) Chrome/107.0.0.0 Safari/537.36","WebKit","Chrome","107.0.0.0","Windows","10.0","873","n","","perfume.jpg","1","Filler","true",""
"","","","","","fixation","26086","html-keyboard-response","103","178266","0.0-6.0-0.17","99","1","2022-11-17 12:30:34","fd252370c17a9971d68c1d4354a03c2e","","Mozilla/5.0 (Windows NT 10.0; Win64; x64) AppleWebKit/537.36 (KHTML, like Gecko) Chrome/107.0.0.0 Safari/537.36","WebKit","Chrome","107.0.0.0","Windows","10.0","null","null","","<p style=""font-size: 48px;"">+</p>","1","Filler","",""
"","","","","","sentence","26086","html-keyboard-response","104","180472","0.0-6.0-1.17","99","1","2022-11-17 12:30:34","fd252370c17a9971d68c1d4354a03c2e","","Mozilla/5.0 (Windows NT 10.0; Win64; x64) AppleWebKit/537.36 (KHTML, like Gecko) Chrome/107.0.0.0 Safari/537.36","WebKit","Chrome","107.0.0.0","Windows","10.0","2193"," ","","A teenage girl is playing the piano","1","Filler","",""
"","","","","","fixation","26086","html-keyboard-response","105","180991","0.0-6.0-2.17","99","1","2022-11-17 12:30:34","fd252370c17a9971d68c1d4354a03c2e","","Mozilla/5.0 (Windows NT 10.0; Win64; x64) AppleWebKit/537.36 (KHTML, like Gecko) Chrome/107.0.0.0 Safari/537.36","WebKit","Chrome","107.0.0.0","Windows","10.0","null","null","","<p style=""font-size: 48px;"">+</p>","1","Filler","",""
"","","","","","picture","26086","image-keyboard-response","106","181831","0.0-6.0-3.17","99","1","2022-11-17 12:30:34","fd252370c17a9971d68c1d4354a03c2e","","Mozilla/5.0 (Windows NT 10.0; Win64; x64) AppleWebKit/537.36 (KHTML, like Gecko) Chrome/107.0.0.0 Safari/537.36","WebKit","Chrome","107.0.0.0","Windows","10.0","824","n","","pillow.jpg","1","Filler","true",""
"","","","","","fixation","26086","html-keyboard-response","107","182860","0.0-6.0-0.18","99","1","2022-11-17 12:30:34","fd252370c17a9971d68c1d4354a03c2e","","Mozilla/5.0 (Windows NT 10.0; Win64; x64) AppleWebKit/537.36 (KHTML, like Gecko) Chrome/107.0.0.0 Safari/537.36","WebKit","Chrome","107.0.0.0","Windows","10.0","null","null","","<p style=""font-size: 48px;"">+</p>","1","Filler","",""
"","","","","","sentence","26086","html-keyboard-response","108","184775","0.0-6.0-1.18","99","1","2022-11-17 12:30:34","fd252370c17a9971d68c1d4354a03c2e","","Mozilla/5.0 (Windows NT 10.0; Win64; x64) AppleWebKit/537.36 (KHTML, like Gecko) Chrome/107.0.0.0 Safari/537.36","WebKit","Chrome","107.0.0.0","Windows","10.0","1901"," ","","A man is playing with a cat","1","Filler","",""
"","","","","","fixation","26086","html-keyboard-response","109","185298","0.0-6.0-2.18","99","1","2022-11-17 12:30:34","fd252370c17a9971d68c1d4354a03c2e","","Mozilla/5.0 (Windows NT 10.0; Win64; x64) AppleWebKit/537.36 (KHTML, like Gecko) Chrome/107.0.0.0 Safari/537.36","WebKit","Chrome","107.0.0.0","Windows","10.0","null","null","","<p style=""font-size: 48px;"">+</p>","1","Filler","",""
"","","","","","picture","26086","image-keyboard-response","110","186567","0.0-6.0-3.18","99","1","2022-11-17 12:30:34","fd252370c17a9971d68c1d4354a03c2e","","Mozilla/5.0 (Windows NT 10.0; Win64; x64) AppleWebKit/537.36 (KHTML, like Gecko) Chrome/107.0.0.0 Safari/537.36","WebKit","Chrome","107.0.0.0","Windows","10.0","1255","n","","ceramicplate.jpg","1","Filler","true",""
"","","","","","fixation","26086","html-keyboard-response","111","187588","0.0-6.0-0.19","99","1","2022-11-17 12:30:34","fd252370c17a9971d68c1d4354a03c2e","","Mozilla/5.0 (Windows NT 10.0; Win64; x64) AppleWebKit/537.36 (KHTML, like Gecko) Chrome/107.0.0.0 Safari/537.36","WebKit","Chrome","107.0.0.0","Windows","10.0","null","null","","<p style=""font-size: 48px;"">+</p>","1","Filler","",""
"","","","","","sentence","26086","html-keyboard-response","112","189204","0.0-6.0-1.19","99","1","2022-11-17 12:30:34","fd252370c17a9971d68c1d4354a03c2e","","Mozilla/5.0 (Windows NT 10.0; Win64; x64) AppleWebKit/537.36 (KHTML, like Gecko) Chrome/107.0.0.0 Safari/537.36","WebKit","Chrome","107.0.0.0","Windows","10.0","1598"," ","","A remote was placed on the rug","1","Filler","",""
"","","","","","fixation","26086","html-keyboard-response","113","189731","0.0-6.0-2.19","99","1","2022-11-17 12:30:34","fd252370c17a9971d68c1d4354a03c2e","","Mozilla/5.0 (Windows NT 10.0; Win64; x64) AppleWebKit/537.36 (KHTML, like Gecko) Chrome/107.0.0.0 Safari/537.36","WebKit","Chrome","107.0.0.0","Windows","10.0","null","null","","<p style=""font-size: 48px;"">+</p>","1","Filler","",""
"","","","","","picture","26086","image-keyboard-response","114","190650","0.0-6.0-3.19","99","1","2022-11-17 12:30:34","fd252370c17a9971d68c1d4354a03c2e","","Mozilla/5.0 (Windows NT 10.0; Win64; x64) AppleWebKit/537.36 (KHTML, like Gecko) Chrome/107.0.0.0 Safari/537.36","WebKit","Chrome","107.0.0.0","Windows","10.0","904","n","","CD.jpg","1","Filler","true",""
"","","","","","fixation","26086","html-keyboard-response","115","191677","0.0-6.0-0.20","99","1","2022-11-17 12:30:34","fd252370c17a9971d68c1d4354a03c2e","","Mozilla/5.0 (Windows NT 10.0; Win64; x64) AppleWebKit/537.36 (KHTML, like Gecko) Chrome/107.0.0.0 Safari/537.36","WebKit","Chrome","107.0.0.0","Windows","10.0","null","null","","<p style=""font-size: 48px;"">+</p>","1","Heavy_Matched","",""
"","","","","","sentence","26086","html-keyboard-response","116","193261","0.0-6.0-1.20","99","1","2022-11-17 12:30:34","fd252370c17a9971d68c1d4354a03c2e","","Mozilla/5.0 (Windows NT 10.0; Win64; x64) AppleWebKit/537.36 (KHTML, like Gecko) Chrome/107.0.0.0 Safari/537.36","WebKit","Chrome","107.0.0.0","Windows","10.0","1570"," ","","A bowling ball dropped and smashed a wineglass","1","Heavy_Matched","",""
"","","","","","fixation","26086","html-keyboard-response","117","193781","0.0-6.0-2.20","99","1","2022-11-17 12:30:34","fd252370c17a9971d68c1d4354a03c2e","","Mozilla/5.0 (Windows NT 10.0; Win64; x64) AppleWebKit/537.36 (KHTML, like Gecko) Chrome/107.0.0.0 Safari/537.36","WebKit","Chrome","107.0.0.0","Windows","10.0","null","null","","<p style=""font-size: 48px;"">+</p>","1","Heavy_Matched","",""
"","","","","","picture","26086","image-keyboard-response","118","194916","0.0-6.0-3.20","99","1","2022-11-17 12:30:34","fd252370c17a9971d68c1d4354a03c2e","","Mozilla/5.0 (Windows NT 10.0; Win64; x64) AppleWebKit/537.36 (KHTML, like Gecko) Chrome/107.0.0.0 Safari/537.36","WebKit","Chrome","107.0.0.0","Windows","10.0","1119","s","","wineglassS.jpg","1","Heavy_Matched","true",""
"","","","","","fixation","26086","html-keyboard-response","119","195939","0.0-6.0-0.21","99","1","2022-11-17 12:30:34","fd252370c17a9971d68c1d4354a03c2e","","Mozilla/5.0 (Windows NT 10.0; Win64; x64) AppleWebKit/537.36 (KHTML, like Gecko) Chrome/107.0.0.0 Safari/537.36","WebKit","Chrome","107.0.0.0","Windows","10.0","null","null","","<p style=""font-size: 48px;"">+</p>","1","Light_Matched","",""
"","","","","","sentence","26086","html-keyboard-response","120","197076","0.0-6.0-1.21","99","1","2022-11-17 12:30:34","fd252370c17a9971d68c1d4354a03c2e","","Mozilla/5.0 (Windows NT 10.0; Win64; x64) AppleWebKit/537.36 (KHTML, like Gecko) Chrome/107.0.0.0 Safari/537.36","WebKit","Chrome","107.0.0.0","Windows","10.0","1118"," ","","A balloon dropped and touched a mirror","1","Light_Matched","",""
"","","","","","fixation","26086","html-keyboard-response","121","197598","0.0-6.0-2.21","99","1","2022-11-17 12:30:34","fd252370c17a9971d68c1d4354a03c2e","","Mozilla/5.0 (Windows NT 10.0; Win64; x64) AppleWebKit/537.36 (KHTML, like Gecko) Chrome/107.0.0.0 Safari/537.36","WebKit","Chrome","107.0.0.0","Windows","10.0","null","null","","<p style=""font-size: 48px;"">+</p>","1","Light_Matched","",""
"","","","","","picture","26086","image-keyboard-response","122","198609","0.0-6.0-3.21","99","1","2022-11-17 12:30:34","fd252370c17a9971d68c1d4354a03c2e","","Mozilla/5.0 (Windows NT 10.0; Win64; x64) AppleWebKit/537.36 (KHTML, like Gecko) Chrome/107.0.0.0 Safari/537.36","WebKit","Chrome","107.0.0.0","Windows","10.0","989","s","","mirrorS.jpg","1","Light_Matched","true",""
"","","","","","fixation","26086","html-keyboard-response","123","199631","0.0-6.0-0.22","99","1","2022-11-17 12:30:34","fd252370c17a9971d68c1d4354a03c2e","","Mozilla/5.0 (Windows NT 10.0; Win64; x64) AppleWebKit/537.36 (KHTML, like Gecko) Chrome/107.0.0.0 Safari/537.36","WebKit","Chrome","107.0.0.0","Windows","10.0","null","null","","<p style=""font-size: 48px;"">+</p>","1","Filler","",""
"","","","","","sentence","26086","html-keyboard-response","124","200673","0.0-6.0-1.22","99","1","2022-11-17 12:30:34","fd252370c17a9971d68c1d4354a03c2e","","Mozilla/5.0 (Windows NT 10.0; Win64; x64) AppleWebKit/537.36 (KHTML, like Gecko) Chrome/107.0.0.0 Safari/537.36","WebKit","Chrome","107.0.0.0","Windows","10.0","1028"," ","","A photographer is taking a photo of a lion","1","Filler","",""
"","","","","","fixation","26086","html-keyboard-response","125","201204","0.0-6.0-2.22","99","1","2022-11-17 12:30:34","fd252370c17a9971d68c1d4354a03c2e","","Mozilla/5.0 (Windows NT 10.0; Win64; x64) AppleWebKit/537.36 (KHTML, like Gecko) Chrome/107.0.0.0 Safari/537.36","WebKit","Chrome","107.0.0.0","Windows","10.0","null","null","","<p style=""font-size: 48px;"">+</p>","1","Filler","",""
"","","","","","picture","26086","image-keyboard-response","126","201874","0.0-6.0-3.22","99","1","2022-11-17 12:30:34","fd252370c17a9971d68c1d4354a03c2e","","Mozilla/5.0 (Windows NT 10.0; Win64; x64) AppleWebKit/537.36 (KHTML, like Gecko) Chrome/107.0.0.0 Safari/537.36","WebKit","Chrome","107.0.0.0","Windows","10.0","654","s","","lion.jpg","1","Filler","true",""
"","","","","","fixation","26086","html-keyboard-response","127","202891","0.0-6.0-0.23","99","1","2022-11-17 12:30:34","fd252370c17a9971d68c1d4354a03c2e","","Mozilla/5.0 (Windows NT 10.0; Win64; x64) AppleWebKit/537.36 (KHTML, like Gecko) Chrome/107.0.0.0 Safari/537.36","WebKit","Chrome","107.0.0.0","Windows","10.0","null","null","","<p style=""font-size: 48px;"">+</p>","1","Heavy_Matched","",""
"","","","","","sentence","26086","html-keyboard-response","128","204284","0.0-6.0-1.23","99","1","2022-11-17 12:30:34","fd252370c17a9971d68c1d4354a03c2e","","Mozilla/5.0 (Windows NT 10.0; Win64; x64) AppleWebKit/537.36 (KHTML, like Gecko) Chrome/107.0.0.0 Safari/537.36","WebKit","Chrome","107.0.0.0","Windows","10.0","1371"," ","","A bowling ball dropped and smashed a piece of cake","1","Heavy_Matched","",""
"","","","","","fixation","26086","html-keyboard-response","129","204806","0.0-6.0-2.23","99","1","2022-11-17 12:30:34","fd252370c17a9971d68c1d4354a03c2e","","Mozilla/5.0 (Windows NT 10.0; Win64; x64) AppleWebKit/537.36 (KHTML, like Gecko) Chrome/107.0.0.0 Safari/537.36","WebKit","Chrome","107.0.0.0","Windows","10.0","null","null","","<p style=""font-size: 48px;"">+</p>","1","Heavy_Matched","",""
"","","","","","picture","26086","image-keyboard-response","130","208428","0.0-6.0-3.23","99","1","2022-11-17 12:30:34","fd252370c17a9971d68c1d4354a03c2e","","Mozilla/5.0 (Windows NT 10.0; Win64; x64) AppleWebKit/537.36 (KHTML, like Gecko) Chrome/107.0.0.0 Safari/537.36","WebKit","Chrome","107.0.0.0","Windows","10.0","3601","s","","cakeS.jpg","1","Heavy_Matched","true",""
"","","","","","fixation","26086","html-keyboard-response","131","209449","0.0-6.0-0.24","99","1","2022-11-17 12:30:34","fd252370c17a9971d68c1d4354a03c2e","","Mozilla/5.0 (Windows NT 10.0; Win64; x64) AppleWebKit/537.36 (KHTML, like Gecko) Chrome/107.0.0.0 Safari/537.36","WebKit","Chrome","107.0.0.0","Windows","10.0","null","null","","<p style=""font-size: 48px;"">+</p>","1","Filler","",""
"","","","","","sentence","26086","html-keyboard-response","132","210637","0.0-6.0-1.24","99","1","2022-11-17 12:30:34","fd252370c17a9971d68c1d4354a03c2e","","Mozilla/5.0 (Windows NT 10.0; Win64; x64) AppleWebKit/537.36 (KHTML, like Gecko) Chrome/107.0.0.0 Safari/537.36","WebKit","Chrome","107.0.0.0","Windows","10.0","1173"," ","","A man is boiling potatoes.","1","Filler","",""
"","","","","","fixation","26086","html-keyboard-response","133","211161","0.0-6.0-2.24","99","1","2022-11-17 12:30:34","fd252370c17a9971d68c1d4354a03c2e","","Mozilla/5.0 (Windows NT 10.0; Win64; x64) AppleWebKit/537.36 (KHTML, like Gecko) Chrome/107.0.0.0 Safari/537.36","WebKit","Chrome","107.0.0.0","Windows","10.0","null","null","","<p style=""font-size: 48px;"">+</p>","1","Filler","",""
"","","","","","picture","26086","image-keyboard-response","134","212222","0.0-6.0-3.24","99","1","2022-11-17 12:30:34","fd252370c17a9971d68c1d4354a03c2e","","Mozilla/5.0 (Windows NT 10.0; Win64; x64) AppleWebKit/537.36 (KHTML, like Gecko) Chrome/107.0.0.0 Safari/537.36","WebKit","Chrome","107.0.0.0","Windows","10.0","1044","n","","cup.jpg","1","Filler","true",""
"","","","","","fixation","26086","html-keyboard-response","135","213248","0.0-6.0-0.25","99","1","2022-11-17 12:30:34","fd252370c17a9971d68c1d4354a03c2e","","Mozilla/5.0 (Windows NT 10.0; Win64; x64) AppleWebKit/537.36 (KHTML, like Gecko) Chrome/107.0.0.0 Safari/537.36","WebKit","Chrome","107.0.0.0","Windows","10.0","null","null","","<p style=""font-size: 48px;"">+</p>","1","Light_Contradictory","",""
"","","","","","sentence","26086","html-keyboard-response","136","214481","0.0-6.0-1.25","99","1","2022-11-17 12:30:34","fd252370c17a9971d68c1d4354a03c2e","","Mozilla/5.0 (Windows NT 10.0; Win64; x64) AppleWebKit/537.36 (KHTML, like Gecko) Chrome/107.0.0.0 Safari/537.36","WebKit","Chrome","107.0.0.0","Windows","10.0","1216"," ","","A balloon dropped and smashed a piece of sushi","1","Light_Contradictory","",""
"","","","","","fixation","26086","html-keyboard-response","137","215014","0.0-6.0-2.25","99","1","2022-11-17 12:30:34","fd252370c17a9971d68c1d4354a03c2e","","Mozilla/5.0 (Windows NT 10.0; Win64; x64) AppleWebKit/537.36 (KHTML, like Gecko) Chrome/107.0.0.0 Safari/537.36","WebKit","Chrome","107.0.0.0","Windows","10.0","null","null","","<p style=""font-size: 48px;"">+</p>","1","Light_Contradictory","",""
"","","","","","picture","26086","image-keyboard-response","138","216176","0.0-6.0-3.25","99","1","2022-11-17 12:30:34","fd252370c17a9971d68c1d4354a03c2e","","Mozilla/5.0 (Windows NT 10.0; Win64; x64) AppleWebKit/537.36 (KHTML, like Gecko) Chrome/107.0.0.0 Safari/537.36","WebKit","Chrome","107.0.0.0","Windows","10.0","1145","s","","sushiS.jpg","1","Light_Contradictory","true",""
"","","","","","fixation","26086","html-keyboard-response","139","217195","0.0-6.0-0.26","99","1","2022-11-17 12:30:34","fd252370c17a9971d68c1d4354a03c2e","","Mozilla/5.0 (Windows NT 10.0; Win64; x64) AppleWebKit/537.36 (KHTML, like Gecko) Chrome/107.0.0.0 Safari/537.36","WebKit","Chrome","107.0.0.0","Windows","10.0","null","null","","<p style=""font-size: 48px;"">+</p>","1","Filler","",""
"","","","","","sentence","26086","html-keyboard-response","140","218457","0.0-6.0-1.26","99","1","2022-11-17 12:30:34","fd252370c17a9971d68c1d4354a03c2e","","Mozilla/5.0 (Windows NT 10.0; Win64; x64) AppleWebKit/537.36 (KHTML, like Gecko) Chrome/107.0.0.0 Safari/537.36","WebKit","Chrome","107.0.0.0","Windows","10.0","1247"," ","","A cabbage was placed on the table","1","Filler","",""
"","","","","","fixation","26086","html-keyboard-response","141","218983","0.0-6.0-2.26","99","1","2022-11-17 12:30:34","fd252370c17a9971d68c1d4354a03c2e","","Mozilla/5.0 (Windows NT 10.0; Win64; x64) AppleWebKit/537.36 (KHTML, like Gecko) Chrome/107.0.0.0 Safari/537.36","WebKit","Chrome","107.0.0.0","Windows","10.0","null","null","","<p style=""font-size: 48px;"">+</p>","1","Filler","",""
"","","","","","picture","26086","image-keyboard-response","142","219999","0.0-6.0-3.26","99","1","2022-11-17 12:30:34","fd252370c17a9971d68c1d4354a03c2e","","Mozilla/5.0 (Windows NT 10.0; Win64; x64) AppleWebKit/537.36 (KHTML, like Gecko) Chrome/107.0.0.0 Safari/537.36","WebKit","Chrome","107.0.0.0","Windows","10.0","997","n","","ladder.jpg","1","Filler","true",""
"","","","","","fixation","26086","html-keyboard-response","143","221019","0.0-6.0-0.27","99","1","2022-11-17 12:30:34","fd252370c17a9971d68c1d4354a03c2e","","Mozilla/5.0 (Windows NT 10.0; Win64; x64) AppleWebKit/537.36 (KHTML, like Gecko) Chrome/107.0.0.0 Safari/537.36","WebKit","Chrome","107.0.0.0","Windows","10.0","null","null","","<p style=""font-size: 48px;"">+</p>","1","Filler","",""
"","","","","","sentence","26086","html-keyboard-response","144","222337","0.0-6.0-1.27","99","1","2022-11-17 12:30:34","fd252370c17a9971d68c1d4354a03c2e","","Mozilla/5.0 (Windows NT 10.0; Win64; x64) AppleWebKit/537.36 (KHTML, like Gecko) Chrome/107.0.0.0 Safari/537.36","WebKit","Chrome","107.0.0.0","Windows","10.0","1303"," ","","A president is writing in the notebook","1","Filler","",""
"","","","","","fixation","26086","html-keyboard-response","145","222858","0.0-6.0-2.27","99","1","2022-11-17 12:30:34","fd252370c17a9971d68c1d4354a03c2e","","Mozilla/5.0 (Windows NT 10.0; Win64; x64) AppleWebKit/537.36 (KHTML, like Gecko) Chrome/107.0.0.0 Safari/537.36","WebKit","Chrome","107.0.0.0","Windows","10.0","null","null","","<p style=""font-size: 48px;"">+</p>","1","Filler","",""
"","","","","","picture","26086","image-keyboard-response","146","224101","0.0-6.0-3.27","99","1","2022-11-17 12:30:34","fd252370c17a9971d68c1d4354a03c2e","","Mozilla/5.0 (Windows NT 10.0; Win64; x64) AppleWebKit/537.36 (KHTML, like Gecko) Chrome/107.0.0.0 Safari/537.36","WebKit","Chrome","107.0.0.0","Windows","10.0","1224","n","","can.jpg","1","Filler","true",""
"","","","","","fixation","26086","html-keyboard-response","147","225125","0.0-6.0-0.28","99","1","2022-11-17 12:30:34","fd252370c17a9971d68c1d4354a03c2e","","Mozilla/5.0 (Windows NT 10.0; Win64; x64) AppleWebKit/537.36 (KHTML, like Gecko) Chrome/107.0.0.0 Safari/537.36","WebKit","Chrome","107.0.0.0","Windows","10.0","null","null","","<p style=""font-size: 48px;"">+</p>","1","Filler","",""
"","","","","","sentence","26086","html-keyboard-response","148","226060","0.0-6.0-1.28","99","1","2022-11-17 12:30:34","fd252370c17a9971d68c1d4354a03c2e","","Mozilla/5.0 (Windows NT 10.0; Win64; x64) AppleWebKit/537.36 (KHTML, like Gecko) Chrome/107.0.0.0 Safari/537.36","WebKit","Chrome","107.0.0.0","Windows","10.0","918"," ","","A postman is driving a car","1","Filler","",""
"","","","","","fixation","26086","html-keyboard-response","149","226585","0.0-6.0-2.28","99","1","2022-11-17 12:30:34","fd252370c17a9971d68c1d4354a03c2e","","Mozilla/5.0 (Windows NT 10.0; Win64; x64) AppleWebKit/537.36 (KHTML, like Gecko) Chrome/107.0.0.0 Safari/537.36","WebKit","Chrome","107.0.0.0","Windows","10.0","null","null","","<p style=""font-size: 48px;"">+</p>","1","Filler","",""
"","","","","","picture","26086","image-keyboard-response","150","228097","0.0-6.0-3.28","99","1","2022-11-17 12:30:34","fd252370c17a9971d68c1d4354a03c2e","","Mozilla/5.0 (Windows NT 10.0; Win64; x64) AppleWebKit/537.36 (KHTML, like Gecko) Chrome/107.0.0.0 Safari/537.36","WebKit","Chrome","107.0.0.0","Windows","10.0","1495","s","","car.jpg","1","Filler","true",""
"","","","","","fixation","26086","html-keyboard-response","151","229123","0.0-6.0-0.29","99","1","2022-11-17 12:30:34","fd252370c17a9971d68c1d4354a03c2e","","Mozilla/5.0 (Windows NT 10.0; Win64; x64) AppleWebKit/537.36 (KHTML, like Gecko) Chrome/107.0.0.0 Safari/537.36","WebKit","Chrome","107.0.0.0","Windows","10.0","null","null","","<p style=""font-size: 48px;"">+</p>","1","Filler","",""
"","","","","","sentence","26086","html-keyboard-response","152","230831","0.0-6.0-1.29","99","1","2022-11-17 12:30:34","fd252370c17a9971d68c1d4354a03c2e","","Mozilla/5.0 (Windows NT 10.0; Win64; x64) AppleWebKit/537.36 (KHTML, like Gecko) Chrome/107.0.0.0 Safari/537.36","WebKit","Chrome","107.0.0.0","Windows","10.0","1683"," ","","A woman is taking money out of a wallet","1","Filler","",""
"","","","","","fixation","26086","html-keyboard-response","153","231363","0.0-6.0-2.29","99","1","2022-11-17 12:30:34","fd252370c17a9971d68c1d4354a03c2e","","Mozilla/5.0 (Windows NT 10.0; Win64; x64) AppleWebKit/537.36 (KHTML, like Gecko) Chrome/107.0.0.0 Safari/537.36","WebKit","Chrome","107.0.0.0","Windows","10.0","null","null","","<p style=""font-size: 48px;"">+</p>","1","Filler","",""
"","","","","","picture","26086","image-keyboard-response","154","232375","0.0-6.0-3.29","99","1","2022-11-17 12:30:34","fd252370c17a9971d68c1d4354a03c2e","","Mozilla/5.0 (Windows NT 10.0; Win64; x64) AppleWebKit/537.36 (KHTML, like Gecko) Chrome/107.0.0.0 Safari/537.36","WebKit","Chrome","107.0.0.0","Windows","10.0","995","n","","coconut.jpg","1","Filler","true",""
"","","","","","fixation","26086","html-keyboard-response","155","233404","0.0-6.0-0.30","99","1","2022-11-17 12:30:34","fd252370c17a9971d68c1d4354a03c2e","","Mozilla/5.0 (Windows NT 10.0; Win64; x64) AppleWebKit/537.36 (KHTML, like Gecko) Chrome/107.0.0.0 Safari/537.36","WebKit","Chrome","107.0.0.0","Windows","10.0","null","null","","<p style=""font-size: 48px;"">+</p>","1","Filler","",""
"","","","","","sentence","26086","html-keyboard-response","156","234375","0.0-6.0-1.30","99","1","2022-11-17 12:30:34","fd252370c17a9971d68c1d4354a03c2e","","Mozilla/5.0 (Windows NT 10.0; Win64; x64) AppleWebKit/537.36 (KHTML, like Gecko) Chrome/107.0.0.0 Safari/537.36","WebKit","Chrome","107.0.0.0","Windows","10.0","954"," ","","A puppy is playing with a ball","1","Filler","",""
"","","","","","fixation","26086","html-keyboard-response","157","234902","0.0-6.0-2.30","99","1","2022-11-17 12:30:34","fd252370c17a9971d68c1d4354a03c2e","","Mozilla/5.0 (Windows NT 10.0; Win64; x64) AppleWebKit/537.36 (KHTML, like Gecko) Chrome/107.0.0.0 Safari/537.36","WebKit","Chrome","107.0.0.0","Windows","10.0","null","null","","<p style=""font-size: 48px;"">+</p>","1","Filler","",""
"","","","","","picture","26086","image-keyboard-response","158","235857","0.0-6.0-3.30","99","1","2022-11-17 12:30:34","fd252370c17a9971d68c1d4354a03c2e","","Mozilla/5.0 (Windows NT 10.0; Win64; x64) AppleWebKit/537.36 (KHTML, like Gecko) Chrome/107.0.0.0 Safari/537.36","WebKit","Chrome","107.0.0.0","Windows","10.0","937","s","","tennisball.jpg","1","Filler","true",""
"","","","","","fixation","26086","html-keyboard-response","159","236884","0.0-6.0-0.31","99","1","2022-11-17 12:30:34","fd252370c17a9971d68c1d4354a03c2e","","Mozilla/5.0 (Windows NT 10.0; Win64; x64) AppleWebKit/537.36 (KHTML, like Gecko) Chrome/107.0.0.0 Safari/537.36","WebKit","Chrome","107.0.0.0","Windows","10.0","null","null","","<p style=""font-size: 48px;"">+</p>","1","Light_Matched","",""
"","","","","","sentence","26086","html-keyboard-response","160","237856","0.0-6.0-1.31","99","1","2022-11-17 12:30:34","fd252370c17a9971d68c1d4354a03c2e","","Mozilla/5.0 (Windows NT 10.0; Win64; x64) AppleWebKit/537.36 (KHTML, like Gecko) Chrome/107.0.0.0 Safari/537.36","WebKit","Chrome","107.0.0.0","Windows","10.0","954"," ","","A balloon dropped and touched an iPhone","1","Light_Matched","",""
"","","","","","fixation","26086","html-keyboard-response","161","238389","0.0-6.0-2.31","99","1","2022-11-17 12:30:34","fd252370c17a9971d68c1d4354a03c2e","","Mozilla/5.0 (Windows NT 10.0; Win64; x64) AppleWebKit/537.36 (KHTML, like Gecko) Chrome/107.0.0.0 Safari/537.36","WebKit","Chrome","107.0.0.0","Windows","10.0","null","null","","<p style=""font-size: 48px;"">+</p>","1","Light_Matched","",""
"","","","","","picture","26086","image-keyboard-response","162","239067","0.0-6.0-3.31","99","1","2022-11-17 12:30:34","fd252370c17a9971d68c1d4354a03c2e","","Mozilla/5.0 (Windows NT 10.0; Win64; x64) AppleWebKit/537.36 (KHTML, like Gecko) Chrome/107.0.0.0 Safari/537.36","WebKit","Chrome","107.0.0.0","Windows","10.0","660","s","","iphoneS.png","1","Light_Matched","true",""
"","","","","","fixation","26086","html-keyboard-response","163","240094","0.0-6.0-0.32","99","1","2022-11-17 12:30:34","fd252370c17a9971d68c1d4354a03c2e","","Mozilla/5.0 (Windows NT 10.0; Win64; x64) AppleWebKit/537.36 (KHTML, like Gecko) Chrome/107.0.0.0 Safari/537.36","WebKit","Chrome","107.0.0.0","Windows","10.0","null","null","","<p style=""font-size: 48px;"">+</p>","1","Filler","",""
"","","","","","sentence","26086","html-keyboard-response","164","241181","0.0-6.0-1.32","99","1","2022-11-17 12:30:34","fd252370c17a9971d68c1d4354a03c2e","","Mozilla/5.0 (Windows NT 10.0; Win64; x64) AppleWebKit/537.36 (KHTML, like Gecko) Chrome/107.0.0.0 Safari/537.36","WebKit","Chrome","107.0.0.0","Windows","10.0","1069"," ","","A needle was placed on the mouse pad","1","Filler","",""
"","","","","","fixation","26086","html-keyboard-response","165","241714","0.0-6.0-2.32","99","1","2022-11-17 12:30:34","fd252370c17a9971d68c1d4354a03c2e","","Mozilla/5.0 (Windows NT 10.0; Win64; x64) AppleWebKit/537.36 (KHTML, like Gecko) Chrome/107.0.0.0 Safari/537.36","WebKit","Chrome","107.0.0.0","Windows","10.0","null","null","","<p style=""font-size: 48px;"">+</p>","1","Filler","",""
"","","","","","picture","26086","image-keyboard-response","166","242738","0.0-6.0-3.32","99","1","2022-11-17 12:30:34","fd252370c17a9971d68c1d4354a03c2e","","Mozilla/5.0 (Windows NT 10.0; Win64; x64) AppleWebKit/537.36 (KHTML, like Gecko) Chrome/107.0.0.0 Safari/537.36","WebKit","Chrome","107.0.0.0","Windows","10.0","1005","n","","chocolate.jpg","1","Filler","true",""
"","","","","","fixation","26086","html-keyboard-response","167","243769","0.0-6.0-0.33","99","1","2022-11-17 12:30:34","fd252370c17a9971d68c1d4354a03c2e","","Mozilla/5.0 (Windows NT 10.0; Win64; x64) AppleWebKit/537.36 (KHTML, like Gecko) Chrome/107.0.0.0 Safari/537.36","WebKit","Chrome","107.0.0.0","Windows","10.0","null","null","","<p style=""font-size: 48px;"">+</p>","1","Filler","",""
"","","","","","sentence","26086","html-keyboard-response","168","245443","0.0-6.0-1.33","99","1","2022-11-17 12:30:34","fd252370c17a9971d68c1d4354a03c2e","","Mozilla/5.0 (Windows NT 10.0; Win64; x64) AppleWebKit/537.36 (KHTML, like Gecko) Chrome/107.0.0.0 Safari/537.36","WebKit","Chrome","107.0.0.0","Windows","10.0","1656"," ","","A musician is playing a guitar","1","Filler","",""
"","","","","","fixation","26086","html-keyboard-response","169","245982","0.0-6.0-2.33","99","1","2022-11-17 12:30:34","fd252370c17a9971d68c1d4354a03c2e","","Mozilla/5.0 (Windows NT 10.0; Win64; x64) AppleWebKit/537.36 (KHTML, like Gecko) Chrome/107.0.0.0 Safari/537.36","WebKit","Chrome","107.0.0.0","Windows","10.0","null","null","","<p style=""font-size: 48px;"">+</p>","1","Filler","",""
"","","","","","picture","26086","image-keyboard-response","170","247234","0.0-6.0-3.33","99","1","2022-11-17 12:30:34","fd252370c17a9971d68c1d4354a03c2e","","Mozilla/5.0 (Windows NT 10.0; Win64; x64) AppleWebKit/537.36 (KHTML, like Gecko) Chrome/107.0.0.0 Safari/537.36","WebKit","Chrome","107.0.0.0","Windows","10.0","1234","s","","guitar.jpg","1","Filler","true",""
"","","","","","fixation","26086","html-keyboard-response","171","248268","0.0-6.0-0.34","99","1","2022-11-17 12:30:34","fd252370c17a9971d68c1d4354a03c2e","","Mozilla/5.0 (Windows NT 10.0; Win64; x64) AppleWebKit/537.36 (KHTML, like Gecko) Chrome/107.0.0.0 Safari/537.36","WebKit","Chrome","107.0.0.0","Windows","10.0","null","null","","<p style=""font-size: 48px;"">+</p>","1","Light_Contradictory","",""
"","","","","","sentence","26086","html-keyboard-response","172","251082","0.0-6.0-1.34","99","1","2022-11-17 12:30:34","fd252370c17a9971d68c1d4354a03c2e","","Mozilla/5.0 (Windows NT 10.0; Win64; x64) AppleWebKit/537.36 (KHTML, like Gecko) Chrome/107.0.0.0 Safari/537.36","WebKit","Chrome","107.0.0.0","Windows","10.0","2793"," ","","A balloon dropped and smashed a tomato","1","Light_Contradictory","",""
"","","","","","fixation","26086","html-keyboard-response","173","251605","0.0-6.0-2.34","99","1","2022-11-17 12:30:34","fd252370c17a9971d68c1d4354a03c2e","","Mozilla/5.0 (Windows NT 10.0; Win64; x64) AppleWebKit/537.36 (KHTML, like Gecko) Chrome/107.0.0.0 Safari/537.36","WebKit","Chrome","107.0.0.0","Windows","10.0","null","null","","<p style=""font-size: 48px;"">+</p>","1","Light_Contradictory","",""
"","","","","","picture","26086","image-keyboard-response","174","254646","0.0-6.0-3.34","99","1","2022-11-17 12:30:34","fd252370c17a9971d68c1d4354a03c2e","","Mozilla/5.0 (Windows NT 10.0; Win64; x64) AppleWebKit/537.36 (KHTML, like Gecko) Chrome/107.0.0.0 Safari/537.36","WebKit","Chrome","107.0.0.0","Windows","10.0","3022","n","","tomatoS.jpg","1","Light_Contradictory","false",""
"","","","","","fixation","26086","html-keyboard-response","175","255674","0.0-6.0-0.35","99","1","2022-11-17 12:30:34","fd252370c17a9971d68c1d4354a03c2e","","Mozilla/5.0 (Windows NT 10.0; Win64; x64) AppleWebKit/537.36 (KHTML, like Gecko) Chrome/107.0.0.0 Safari/537.36","WebKit","Chrome","107.0.0.0","Windows","10.0","null","null","","<p style=""font-size: 48px;"">+</p>","1","Filler","",""
"","","","","","sentence","26086","html-keyboard-response","176","256879","0.0-6.0-1.35","99","1","2022-11-17 12:30:34","fd252370c17a9971d68c1d4354a03c2e","","Mozilla/5.0 (Windows NT 10.0; Win64; x64) AppleWebKit/537.36 (KHTML, like Gecko) Chrome/107.0.0.0 Safari/537.36","WebKit","Chrome","107.0.0.0","Windows","10.0","1185"," ","","A dentist is drinking a can of cola","1","Filler","",""
"","","","","","fixation","26086","html-keyboard-response","177","257405","0.0-6.0-2.35","99","1","2022-11-17 12:30:34","fd252370c17a9971d68c1d4354a03c2e","","Mozilla/5.0 (Windows NT 10.0; Win64; x64) AppleWebKit/537.36 (KHTML, like Gecko) Chrome/107.0.0.0 Safari/537.36","WebKit","Chrome","107.0.0.0","Windows","10.0","null","null","","<p style=""font-size: 48px;"">+</p>","1","Filler","",""
"","","","","","picture","26086","image-keyboard-response","178","258260","0.0-6.0-3.35","99","1","2022-11-17 12:30:34","fd252370c17a9971d68c1d4354a03c2e","","Mozilla/5.0 (Windows NT 10.0; Win64; x64) AppleWebKit/537.36 (KHTML, like Gecko) Chrome/107.0.0.0 Safari/537.36","WebKit","Chrome","107.0.0.0","Windows","10.0","826","n","","doll.jpg","1","Filler","true",""
"","","","","","fixation","26086","html-keyboard-response","179","259305","0.0-6.0-0.36","99","1","2022-11-17 12:30:34","fd252370c17a9971d68c1d4354a03c2e","","Mozilla/5.0 (Windows NT 10.0; Win64; x64) AppleWebKit/537.36 (KHTML, like Gecko) Chrome/107.0.0.0 Safari/537.36","WebKit","Chrome","107.0.0.0","Windows","10.0","null","null","","<p style=""font-size: 48px;"">+</p>","1","Filler","",""
"","","","","","sentence","26086","html-keyboard-response","180","260051","0.0-6.0-1.36","99","1","2022-11-17 12:30:34","fd252370c17a9971d68c1d4354a03c2e","","Mozilla/5.0 (Windows NT 10.0; Win64; x64) AppleWebKit/537.36 (KHTML, like Gecko) Chrome/107.0.0.0 Safari/537.36","WebKit","Chrome","107.0.0.0","Windows","10.0","723"," ","","An owl is sitting on the branch","1","Filler","",""
"","","","","","fixation","26086","html-keyboard-response","181","260588","0.0-6.0-2.36","99","1","2022-11-17 12:30:34","fd252370c17a9971d68c1d4354a03c2e","","Mozilla/5.0 (Windows NT 10.0; Win64; x64) AppleWebKit/537.36 (KHTML, like Gecko) Chrome/107.0.0.0 Safari/537.36","WebKit","Chrome","107.0.0.0","Windows","10.0","null","null","","<p style=""font-size: 48px;"">+</p>","1","Filler","",""
"","","","","","picture","26086","image-keyboard-response","182","262202","0.0-6.0-3.36","99","1","2022-11-17 12:30:34","fd252370c17a9971d68c1d4354a03c2e","","Mozilla/5.0 (Windows NT 10.0; Win64; x64) AppleWebKit/537.36 (KHTML, like Gecko) Chrome/107.0.0.0 Safari/537.36","WebKit","Chrome","107.0.0.0","Windows","10.0","1594","n","","rubberduck.jpg","1","Filler","true",""
"","","","","","fixation","26086","html-keyboard-response","183","263232","0.0-6.0-0.37","99","1","2022-11-17 12:30:34","fd252370c17a9971d68c1d4354a03c2e","","Mozilla/5.0 (Windows NT 10.0; Win64; x64) AppleWebKit/537.36 (KHTML, like Gecko) Chrome/107.0.0.0 Safari/537.36","WebKit","Chrome","107.0.0.0","Windows","10.0","null","null","","<p style=""font-size: 48px;"">+</p>","1","Filler","",""
"","","","","","sentence","26086","html-keyboard-response","184","264430","0.0-6.0-1.37","99","1","2022-11-17 12:30:34","fd252370c17a9971d68c1d4354a03c2e","","Mozilla/5.0 (Windows NT 10.0; Win64; x64) AppleWebKit/537.36 (KHTML, like Gecko) Chrome/107.0.0.0 Safari/537.36","WebKit","Chrome","107.0.0.0","Windows","10.0","1178"," ","","A woman is paying with a debit card","1","Filler","",""
"","","","","","fixation","26086","html-keyboard-response","185","264954","0.0-6.0-2.37","99","1","2022-11-17 12:30:34","fd252370c17a9971d68c1d4354a03c2e","","Mozilla/5.0 (Windows NT 10.0; Win64; x64) AppleWebKit/537.36 (KHTML, like Gecko) Chrome/107.0.0.0 Safari/537.36","WebKit","Chrome","107.0.0.0","Windows","10.0","null","null","","<p style=""font-size: 48px;"">+</p>","1","Filler","",""
"","","","","","picture","26086","image-keyboard-response","186","265815","0.0-6.0-3.37","99","1","2022-11-17 12:30:34","fd252370c17a9971d68c1d4354a03c2e","","Mozilla/5.0 (Windows NT 10.0; Win64; x64) AppleWebKit/537.36 (KHTML, like Gecko) Chrome/107.0.0.0 Safari/537.36","WebKit","Chrome","107.0.0.0","Windows","10.0","840","n","","papercup.jpg","1","Filler","true",""
"","","","","","fixation","26086","html-keyboard-response","187","266845","0.0-6.0-0.38","99","1","2022-11-17 12:30:34","fd252370c17a9971d68c1d4354a03c2e","","Mozilla/5.0 (Windows NT 10.0; Win64; x64) AppleWebKit/537.36 (KHTML, like Gecko) Chrome/107.0.0.0 Safari/537.36","WebKit","Chrome","107.0.0.0","Windows","10.0","null","null","","<p style=""font-size: 48px;"">+</p>","1","Heavy_Contradictory","",""
"","","","","","sentence","26086","html-keyboard-response","188","268512","0.0-6.0-1.38","99","1","2022-11-17 12:30:34","fd252370c17a9971d68c1d4354a03c2e","","Mozilla/5.0 (Windows NT 10.0; Win64; x64) AppleWebKit/537.36 (KHTML, like Gecko) Chrome/107.0.0.0 Safari/537.36","WebKit","Chrome","107.0.0.0","Windows","10.0","1645"," ","","A bowling ball dropped and touched an iPAD","1","Heavy_Contradictory","",""
"","","","","","fixation","26086","html-keyboard-response","189","269045","0.0-6.0-2.38","99","1","2022-11-17 12:30:34","fd252370c17a9971d68c1d4354a03c2e","","Mozilla/5.0 (Windows NT 10.0; Win64; x64) AppleWebKit/537.36 (KHTML, like Gecko) Chrome/107.0.0.0 Safari/537.36","WebKit","Chrome","107.0.0.0","Windows","10.0","null","null","","<p style=""font-size: 48px;"">+</p>","1","Heavy_Contradictory","",""
"","","","","","picture","26086","image-keyboard-response","190","269616","0.0-6.0-3.38","99","1","2022-11-17 12:30:34","fd252370c17a9971d68c1d4354a03c2e","","Mozilla/5.0 (Windows NT 10.0; Win64; x64) AppleWebKit/537.36 (KHTML, like Gecko) Chrome/107.0.0.0 Safari/537.36","WebKit","Chrome","107.0.0.0","Windows","10.0","550","s","","iPadS.jpg","1","Heavy_Contradictory","true",""
"","","","","","fixation","26086","html-keyboard-response","191","270643","0.0-6.0-0.39","99","1","2022-11-17 12:30:34","fd252370c17a9971d68c1d4354a03c2e","","Mozilla/5.0 (Windows NT 10.0; Win64; x64) AppleWebKit/537.36 (KHTML, like Gecko) Chrome/107.0.0.0 Safari/537.36","WebKit","Chrome","107.0.0.0","Windows","10.0","null","null","","<p style=""font-size: 48px;"">+</p>","1","Light_Matched","",""
"","","","","","sentence","26086","html-keyboard-response","192","272601","0.0-6.0-1.39","99","1","2022-11-17 12:30:34","fd252370c17a9971d68c1d4354a03c2e","","Mozilla/5.0 (Windows NT 10.0; Win64; x64) AppleWebKit/537.36 (KHTML, like Gecko) Chrome/107.0.0.0 Safari/537.36","WebKit","Chrome","107.0.0.0","Windows","10.0","1939"," ","","A balloon dropped and touched a light bulb","1","Light_Matched","",""
"","","","","","fixation","26086","html-keyboard-response","193","273129","0.0-6.0-2.39","99","1","2022-11-17 12:30:34","fd252370c17a9971d68c1d4354a03c2e","","Mozilla/5.0 (Windows NT 10.0; Win64; x64) AppleWebKit/537.36 (KHTML, like Gecko) Chrome/107.0.0.0 Safari/537.36","WebKit","Chrome","107.0.0.0","Windows","10.0","null","null","","<p style=""font-size: 48px;"">+</p>","1","Light_Matched","",""
"","","","","","picture","26086","image-keyboard-response","194","273909","0.0-6.0-3.39","99","1","2022-11-17 12:30:34","fd252370c17a9971d68c1d4354a03c2e","","Mozilla/5.0 (Windows NT 10.0; Win64; x64) AppleWebKit/537.36 (KHTML, like Gecko) Chrome/107.0.0.0 Safari/537.36","WebKit","Chrome","107.0.0.0","Windows","10.0","758","s","","lampS.jpg","1","Light_Matched","true",""
"","","","","","fixation","26086","html-keyboard-response","195","274950","0.0-6.0-0.40","99","1","2022-11-17 12:30:34","fd252370c17a9971d68c1d4354a03c2e","","Mozilla/5.0 (Windows NT 10.0; Win64; x64) AppleWebKit/537.36 (KHTML, like Gecko) Chrome/107.0.0.0 Safari/537.36","WebKit","Chrome","107.0.0.0","Windows","10.0","null","null","","<p style=""font-size: 48px;"">+</p>","1","Filler","",""
"","","","","","sentence","26086","html-keyboard-response","196","280349","0.0-6.0-1.40","99","1","2022-11-17 12:30:34","fd252370c17a9971d68c1d4354a03c2e","","Mozilla/5.0 (Windows NT 10.0; Win64; x64) AppleWebKit/537.36 (KHTML, like Gecko) Chrome/107.0.0.0 Safari/537.36","WebKit","Chrome","107.0.0.0","Windows","10.0","5379"," ","","A kitten is playing in the sandbox","1","Filler","",""
"","","","","","fixation","26086","html-keyboard-response","197","280877","0.0-6.0-2.40","99","1","2022-11-17 12:30:34","fd252370c17a9971d68c1d4354a03c2e","","Mozilla/5.0 (Windows NT 10.0; Win64; x64) AppleWebKit/537.36 (KHTML, like Gecko) Chrome/107.0.0.0 Safari/537.36","WebKit","Chrome","107.0.0.0","Windows","10.0","null","null","","<p style=""font-size: 48px;"">+</p>","1","Filler","",""
"","","","","","picture","26086","image-keyboard-response","198","282450","0.0-6.0-3.40","99","1","2022-11-17 12:30:34","fd252370c17a9971d68c1d4354a03c2e","","Mozilla/5.0 (Windows NT 10.0; Win64; x64) AppleWebKit/537.36 (KHTML, like Gecko) Chrome/107.0.0.0 Safari/537.36","WebKit","Chrome","107.0.0.0","Windows","10.0","1550","n","","dustbin.jpg","1","Filler","true",""
"","","","","","fixation","26086","html-keyboard-response","199","283483","0.0-6.0-0.41","99","1","2022-11-17 12:30:34","fd252370c17a9971d68c1d4354a03c2e","","Mozilla/5.0 (Windows NT 10.0; Win64; x64) AppleWebKit/537.36 (KHTML, like Gecko) Chrome/107.0.0.0 Safari/537.36","WebKit","Chrome","107.0.0.0","Windows","10.0","null","null","","<p style=""font-size: 48px;"">+</p>","1","Filler","",""
"","","","","","sentence","26086","html-keyboard-response","200","285452","0.0-6.0-1.41","99","1","2022-11-17 12:30:34","fd252370c17a9971d68c1d4354a03c2e","","Mozilla/5.0 (Windows NT 10.0; Win64; x64) AppleWebKit/537.36 (KHTML, like Gecko) Chrome/107.0.0.0 Safari/537.36","WebKit","Chrome","107.0.0.0","Windows","10.0","1945"," ","","A horse is chewing hay","1","Filler","",""
"","","","","","fixation","26086","html-keyboard-response","201","285979","0.0-6.0-2.41","99","1","2022-11-17 12:30:34","fd252370c17a9971d68c1d4354a03c2e","","Mozilla/5.0 (Windows NT 10.0; Win64; x64) AppleWebKit/537.36 (KHTML, like Gecko) Chrome/107.0.0.0 Safari/537.36","WebKit","Chrome","107.0.0.0","Windows","10.0","null","null","","<p style=""font-size: 48px;"">+</p>","1","Filler","",""
"","","","","","picture","26086","image-keyboard-response","202","286931","0.0-6.0-3.41","99","1","2022-11-17 12:30:34","fd252370c17a9971d68c1d4354a03c2e","","Mozilla/5.0 (Windows NT 10.0; Win64; x64) AppleWebKit/537.36 (KHTML, like Gecko) Chrome/107.0.0.0 Safari/537.36","WebKit","Chrome","107.0.0.0","Windows","10.0","929","n","","purse.jpg","1","Filler","true",""
"","","","","","fixation","26086","html-keyboard-response","203","287975","0.0-6.0-0.42","99","1","2022-11-17 12:30:34","fd252370c17a9971d68c1d4354a03c2e","","Mozilla/5.0 (Windows NT 10.0; Win64; x64) AppleWebKit/537.36 (KHTML, like Gecko) Chrome/107.0.0.0 Safari/537.36","WebKit","Chrome","107.0.0.0","Windows","10.0","null","null","","<p style=""font-size: 48px;"">+</p>","1","Heavy_Matched","",""
"","","","","","sentence","26086","html-keyboard-response","204","289588","0.0-6.0-1.42","99","1","2022-11-17 12:30:34","fd252370c17a9971d68c1d4354a03c2e","","Mozilla/5.0 (Windows NT 10.0; Win64; x64) AppleWebKit/537.36 (KHTML, like Gecko) Chrome/107.0.0.0 Safari/537.36","WebKit","Chrome","107.0.0.0","Windows","10.0","1590"," ","","A bowling ball dropped and smashed a porcelain figure","1","Heavy_Matched","",""
"","","","","","fixation","26086","html-keyboard-response","205","290115","0.0-6.0-2.42","99","1","2022-11-17 12:30:34","fd252370c17a9971d68c1d4354a03c2e","","Mozilla/5.0 (Windows NT 10.0; Win64; x64) AppleWebKit/537.36 (KHTML, like Gecko) Chrome/107.0.0.0 Safari/537.36","WebKit","Chrome","107.0.0.0","Windows","10.0","null","null","","<p style=""font-size: 48px;"">+</p>","1","Heavy_Matched","",""
"","","","","","picture","26086","image-keyboard-response","206","290835","0.0-6.0-3.42","99","1","2022-11-17 12:30:34","fd252370c17a9971d68c1d4354a03c2e","","Mozilla/5.0 (Windows NT 10.0; Win64; x64) AppleWebKit/537.36 (KHTML, like Gecko) Chrome/107.0.0.0 Safari/537.36","WebKit","Chrome","107.0.0.0","Windows","10.0","698","s","","figureS.jpg","1","Heavy_Matched","true",""
"","","","","","fixation","26086","html-keyboard-response","207","291861","0.0-6.0-0.43","99","1","2022-11-17 12:30:34","fd252370c17a9971d68c1d4354a03c2e","","Mozilla/5.0 (Windows NT 10.0; Win64; x64) AppleWebKit/537.36 (KHTML, like Gecko) Chrome/107.0.0.0 Safari/537.36","WebKit","Chrome","107.0.0.0","Windows","10.0","null","null","","<p style=""font-size: 48px;"">+</p>","1","Filler","",""
"","","","","","sentence","26086","html-keyboard-response","208","293457","0.0-6.0-1.43","99","1","2022-11-17 12:30:34","fd252370c17a9971d68c1d4354a03c2e","","Mozilla/5.0 (Windows NT 10.0; Win64; x64) AppleWebKit/537.36 (KHTML, like Gecko) Chrome/107.0.0.0 Safari/537.36","WebKit","Chrome","107.0.0.0","Windows","10.0","1576"," ","","A cat is drinking water from a bowl","1","Filler","",""
"","","","","","fixation","26086","html-keyboard-response","209","293997","0.0-6.0-2.43","99","1","2022-11-17 12:30:34","fd252370c17a9971d68c1d4354a03c2e","","Mozilla/5.0 (Windows NT 10.0; Win64; x64) AppleWebKit/537.36 (KHTML, like Gecko) Chrome/107.0.0.0 Safari/537.36","WebKit","Chrome","107.0.0.0","Windows","10.0","null","null","","<p style=""font-size: 48px;"">+</p>","1","Filler","",""
"","","","","","picture","26086","image-keyboard-response","210","296020","0.0-6.0-3.43","99","1","2022-11-17 12:30:34","fd252370c17a9971d68c1d4354a03c2e","","Mozilla/5.0 (Windows NT 10.0; Win64; x64) AppleWebKit/537.36 (KHTML, like Gecko) Chrome/107.0.0.0 Safari/537.36","WebKit","Chrome","107.0.0.0","Windows","10.0","1995","s","","bowl.jpg","1","Filler","true",""
"","","","","","fixation","26086","html-keyboard-response","211","297051","0.0-6.0-0.44","99","1","2022-11-17 12:30:34","fd252370c17a9971d68c1d4354a03c2e","","Mozilla/5.0 (Windows NT 10.0; Win64; x64) AppleWebKit/537.36 (KHTML, like Gecko) Chrome/107.0.0.0 Safari/537.36","WebKit","Chrome","107.0.0.0","Windows","10.0","null","null","","<p style=""font-size: 48px;"">+</p>","1","Filler","",""
"","","","","","sentence","26086","html-keyboard-response","212","297929","0.0-6.0-1.44","99","1","2022-11-17 12:30:34","fd252370c17a9971d68c1d4354a03c2e","","Mozilla/5.0 (Windows NT 10.0; Win64; x64) AppleWebKit/537.36 (KHTML, like Gecko) Chrome/107.0.0.0 Safari/537.36","WebKit","Chrome","107.0.0.0","Windows","10.0","848"," ","","A ring was placed on the newspaper","1","Filler","",""
"","","","","","fixation","26086","html-keyboard-response","213","298469","0.0-6.0-2.44","99","1","2022-11-17 12:30:34","fd252370c17a9971d68c1d4354a03c2e","","Mozilla/5.0 (Windows NT 10.0; Win64; x64) AppleWebKit/537.36 (KHTML, like Gecko) Chrome/107.0.0.0 Safari/537.36","WebKit","Chrome","107.0.0.0","Windows","10.0","null","null","","<p style=""font-size: 48px;"">+</p>","1","Filler","",""
"","","","","","picture","26086","image-keyboard-response","214","299637","0.0-6.0-3.44","99","1","2022-11-17 12:30:34","fd252370c17a9971d68c1d4354a03c2e","","Mozilla/5.0 (Windows NT 10.0; Win64; x64) AppleWebKit/537.36 (KHTML, like Gecko) Chrome/107.0.0.0 Safari/537.36","WebKit","Chrome","107.0.0.0","Windows","10.0","1145","n","","cat.jpg","1","Filler","true",""
"","","","","","fixation","26086","html-keyboard-response","215","300665","0.0-6.0-0.45","99","1","2022-11-17 12:30:34","fd252370c17a9971d68c1d4354a03c2e","","Mozilla/5.0 (Windows NT 10.0; Win64; x64) AppleWebKit/537.36 (KHTML, like Gecko) Chrome/107.0.0.0 Safari/537.36","WebKit","Chrome","107.0.0.0","Windows","10.0","null","null","","<p style=""font-size: 48px;"">+</p>","1","Heavy_Contradictory","",""
"","","","","","sentence","26086","html-keyboard-response","216","301759","0.0-6.0-1.45","99","1","2022-11-17 12:30:34","fd252370c17a9971d68c1d4354a03c2e","","Mozilla/5.0 (Windows NT 10.0; Win64; x64) AppleWebKit/537.36 (KHTML, like Gecko) Chrome/107.0.0.0 Safari/537.36","WebKit","Chrome","107.0.0.0","Windows","10.0","1066"," ","","A bowling ball dropped and touched an egg flan","1","Heavy_Contradictory","",""
"","","","","","fixation","26086","html-keyboard-response","217","302293","0.0-6.0-2.45","99","1","2022-11-17 12:30:34","fd252370c17a9971d68c1d4354a03c2e","","Mozilla/5.0 (Windows NT 10.0; Win64; x64) AppleWebKit/537.36 (KHTML, like Gecko) Chrome/107.0.0.0 Safari/537.36","WebKit","Chrome","107.0.0.0","Windows","10.0","null","null","","<p style=""font-size: 48px;"">+</p>","1","Heavy_Contradictory","",""
"","","","","","picture","26086","image-keyboard-response","218","304718","0.0-6.0-3.45","99","1","2022-11-17 12:30:34","fd252370c17a9971d68c1d4354a03c2e","","Mozilla/5.0 (Windows NT 10.0; Win64; x64) AppleWebKit/537.36 (KHTML, like Gecko) Chrome/107.0.0.0 Safari/537.36","WebKit","Chrome","107.0.0.0","Windows","10.0","2402","n","","eggflanS.jpg","1","Heavy_Contradictory","false",""
"","","","","","fixation","26086","html-keyboard-response","219","305750","0.0-6.0-0.46","99","1","2022-11-17 12:30:34","fd252370c17a9971d68c1d4354a03c2e","","Mozilla/5.0 (Windows NT 10.0; Win64; x64) AppleWebKit/537.36 (KHTML, like Gecko) Chrome/107.0.0.0 Safari/537.36","WebKit","Chrome","107.0.0.0","Windows","10.0","null","null","","<p style=""font-size: 48px;"">+</p>","1","Filler","",""
"","","","","","sentence","26086","html-keyboard-response","220","306820","0.0-6.0-1.46","99","1","2022-11-17 12:30:34","fd252370c17a9971d68c1d4354a03c2e","","Mozilla/5.0 (Windows NT 10.0; Win64; x64) AppleWebKit/537.36 (KHTML, like Gecko) Chrome/107.0.0.0 Safari/537.36","WebKit","Chrome","107.0.0.0","Windows","10.0","1047"," ","","A cook is taking a knife","1","Filler","",""
"","","","","","fixation","26086","html-keyboard-response","221","307352","0.0-6.0-2.46","99","1","2022-11-17 12:30:34","fd252370c17a9971d68c1d4354a03c2e","","Mozilla/5.0 (Windows NT 10.0; Win64; x64) AppleWebKit/537.36 (KHTML, like Gecko) Chrome/107.0.0.0 Safari/537.36","WebKit","Chrome","107.0.0.0","Windows","10.0","null","null","","<p style=""font-size: 48px;"">+</p>","1","Filler","",""
"","","","","","picture","26086","image-keyboard-response","222","308529","0.0-6.0-3.46","99","1","2022-11-17 12:30:34","fd252370c17a9971d68c1d4354a03c2e","","Mozilla/5.0 (Windows NT 10.0; Win64; x64) AppleWebKit/537.36 (KHTML, like Gecko) Chrome/107.0.0.0 Safari/537.36","WebKit","Chrome","107.0.0.0","Windows","10.0","1152","s","","knife.jpg","1","Filler","true",""
"","","","","","fixation","26086","html-keyboard-response","223","309556","0.0-6.0-0.47","99","1","2022-11-17 12:30:34","fd252370c17a9971d68c1d4354a03c2e","","Mozilla/5.0 (Windows NT 10.0; Win64; x64) AppleWebKit/537.36 (KHTML, like Gecko) Chrome/107.0.0.0 Safari/537.36","WebKit","Chrome","107.0.0.0","Windows","10.0","null","null","","<p style=""font-size: 48px;"">+</p>","1","Filler","",""
"","","","","","sentence","26086","html-keyboard-response","224","314288","0.0-6.0-1.47","99","1","2022-11-17 12:30:34","fd252370c17a9971d68c1d4354a03c2e","","Mozilla/5.0 (Windows NT 10.0; Win64; x64) AppleWebKit/537.36 (KHTML, like Gecko) Chrome/107.0.0.0 Safari/537.36","WebKit","Chrome","107.0.0.0","Windows","10.0","4709"," ","","A fork was placed on the plate","1","Filler","",""
"","","","","","fixation","26086","html-keyboard-response","225","314828","0.0-6.0-2.47","99","1","2022-11-17 12:30:34","fd252370c17a9971d68c1d4354a03c2e","","Mozilla/5.0 (Windows NT 10.0; Win64; x64) AppleWebKit/537.36 (KHTML, like Gecko) Chrome/107.0.0.0 Safari/537.36","WebKit","Chrome","107.0.0.0","Windows","10.0","null","null","","<p style=""font-size: 48px;"">+</p>","1","Filler","",""
"","","","","","picture","26086","image-keyboard-response","226","315888","0.0-6.0-3.47","99","1","2022-11-17 12:30:34","fd252370c17a9971d68c1d4354a03c2e","","Mozilla/5.0 (Windows NT 10.0; Win64; x64) AppleWebKit/537.36 (KHTML, like Gecko) Chrome/107.0.0.0 Safari/537.36","WebKit","Chrome","107.0.0.0","Windows","10.0","1029","s","","plate.jpg","1","Filler","true",""
"","","","","","fixation","26086","html-keyboard-response","227","316919","0.0-6.0-0.48","99","1","2022-11-17 12:30:34","fd252370c17a9971d68c1d4354a03c2e","","Mozilla/5.0 (Windows NT 10.0; Win64; x64) AppleWebKit/537.36 (KHTML, like Gecko) Chrome/107.0.0.0 Safari/537.36","WebKit","Chrome","107.0.0.0","Windows","10.0","null","null","","<p style=""font-size: 48px;"">+</p>","1","Filler","",""
"","","","","","sentence","26086","html-keyboard-response","228","317790","0.0-6.0-1.48","99","1","2022-11-17 12:30:34","fd252370c17a9971d68c1d4354a03c2e","","Mozilla/5.0 (Windows NT 10.0; Win64; x64) AppleWebKit/537.36 (KHTML, like Gecko) Chrome/107.0.0.0 Safari/537.36","WebKit","Chrome","107.0.0.0","Windows","10.0","846"," ","","A boy is wearing a hat","1","Filler","",""
"","","","","","fixation","26086","html-keyboard-response","229","318322","0.0-6.0-2.48","99","1","2022-11-17 12:30:34","fd252370c17a9971d68c1d4354a03c2e","","Mozilla/5.0 (Windows NT 10.0; Win64; x64) AppleWebKit/537.36 (KHTML, like Gecko) Chrome/107.0.0.0 Safari/537.36","WebKit","Chrome","107.0.0.0","Windows","10.0","null","null","","<p style=""font-size: 48px;"">+</p>","1","Filler","",""
"","","","","","picture","26086","image-keyboard-response","230","319825","0.0-6.0-3.48","99","1","2022-11-17 12:30:34","fd252370c17a9971d68c1d4354a03c2e","","Mozilla/5.0 (Windows NT 10.0; Win64; x64) AppleWebKit/537.36 (KHTML, like Gecko) Chrome/107.0.0.0 Safari/537.36","WebKit","Chrome","107.0.0.0","Windows","10.0","1476","s","","hat.jpg","1","Filler","true",""
"","","","","","fixation","26086","html-keyboard-response","231","320872","0.0-6.0-0.49","99","1","2022-11-17 12:30:34","fd252370c17a9971d68c1d4354a03c2e","","Mozilla/5.0 (Windows NT 10.0; Win64; x64) AppleWebKit/537.36 (KHTML, like Gecko) Chrome/107.0.0.0 Safari/537.36","WebKit","Chrome","107.0.0.0","Windows","10.0","null","null","","<p style=""font-size: 48px;"">+</p>","1","Heavy_Matched","",""
"","","","","","sentence","26086","html-keyboard-response","232","322583","0.0-6.0-1.49","99","1","2022-11-17 12:30:34","fd252370c17a9971d68c1d4354a03c2e","","Mozilla/5.0 (Windows NT 10.0; Win64; x64) AppleWebKit/537.36 (KHTML, like Gecko) Chrome/107.0.0.0 Safari/537.36","WebKit","Chrome","107.0.0.0","Windows","10.0","1677"," ","","A bowling ball dropped and smashed a cracker","1","Heavy_Matched","",""
"","","","","","fixation","26086","html-keyboard-response","233","323119","0.0-6.0-2.49","99","1","2022-11-17 12:30:34","fd252370c17a9971d68c1d4354a03c2e","","Mozilla/5.0 (Windows NT 10.0; Win64; x64) AppleWebKit/537.36 (KHTML, like Gecko) Chrome/107.0.0.0 Safari/537.36","WebKit","Chrome","107.0.0.0","Windows","10.0","null","null","","<p style=""font-size: 48px;"">+</p>","1","Heavy_Matched","",""
"","","","","","picture","26086","image-keyboard-response","234","324824","0.0-6.0-3.49","99","1","2022-11-17 12:30:34","fd252370c17a9971d68c1d4354a03c2e","","Mozilla/5.0 (Windows NT 10.0; Win64; x64) AppleWebKit/537.36 (KHTML, like Gecko) Chrome/107.0.0.0 Safari/537.36","WebKit","Chrome","107.0.0.0","Windows","10.0","1681","s","","crackerS.jpg","1","Heavy_Matched","true",""
"","","","","","fixation","26086","html-keyboard-response","235","325855","0.0-6.0-0.50","99","1","2022-11-17 12:30:34","fd252370c17a9971d68c1d4354a03c2e","","Mozilla/5.0 (Windows NT 10.0; Win64; x64) AppleWebKit/537.36 (KHTML, like Gecko) Chrome/107.0.0.0 Safari/537.36","WebKit","Chrome","107.0.0.0","Windows","10.0","null","null","","<p style=""font-size: 48px;"">+</p>","1","Filler","",""
"","","","","","sentence","26086","html-keyboard-response","236","329184","0.0-6.0-1.50","99","1","2022-11-17 12:30:34","fd252370c17a9971d68c1d4354a03c2e","","Mozilla/5.0 (Windows NT 10.0; Win64; x64) AppleWebKit/537.36 (KHTML, like Gecko) Chrome/107.0.0.0 Safari/537.36","WebKit","Chrome","107.0.0.0","Windows","10.0","3294"," ","","An actress is taking a microphone","1","Filler","",""
"","","","","","fixation","26086","html-keyboard-response","237","329718","0.0-6.0-2.50","99","1","2022-11-17 12:30:34","fd252370c17a9971d68c1d4354a03c2e","","Mozilla/5.0 (Windows NT 10.0; Win64; x64) AppleWebKit/537.36 (KHTML, like Gecko) Chrome/107.0.0.0 Safari/537.36","WebKit","Chrome","107.0.0.0","Windows","10.0","null","null","","<p style=""font-size: 48px;"">+</p>","1","Filler","",""
"","","","","","picture","26086","image-keyboard-response","238","330618","0.0-6.0-3.50","99","1","2022-11-17 12:30:34","fd252370c17a9971d68c1d4354a03c2e","","Mozilla/5.0 (Windows NT 10.0; Win64; x64) AppleWebKit/537.36 (KHTML, like Gecko) Chrome/107.0.0.0 Safari/537.36","WebKit","Chrome","107.0.0.0","Windows","10.0","871","n","","pants.jpg","1","Filler","true",""
"","","","","","fixation","26086","html-keyboard-response","239","331649","0.0-6.0-0.51","99","1","2022-11-17 12:30:34","fd252370c17a9971d68c1d4354a03c2e","","Mozilla/5.0 (Windows NT 10.0; Win64; x64) AppleWebKit/537.36 (KHTML, like Gecko) Chrome/107.0.0.0 Safari/537.36","WebKit","Chrome","107.0.0.0","Windows","10.0","null","null","","<p style=""font-size: 48px;"">+</p>","1","Filler","",""
"","","","","","sentence","26086","html-keyboard-response","240","332590","0.0-6.0-1.51","99","1","2022-11-17 12:30:34","fd252370c17a9971d68c1d4354a03c2e","","Mozilla/5.0 (Windows NT 10.0; Win64; x64) AppleWebKit/537.36 (KHTML, like Gecko) Chrome/107.0.0.0 Safari/537.36","WebKit","Chrome","107.0.0.0","Windows","10.0","915"," ","","A donkey is drinking water.","1","Filler","",""
"","","","","","fixation","26086","html-keyboard-response","241","333127","0.0-6.0-2.51","99","1","2022-11-17 12:30:34","fd252370c17a9971d68c1d4354a03c2e","","Mozilla/5.0 (Windows NT 10.0; Win64; x64) AppleWebKit/537.36 (KHTML, like Gecko) Chrome/107.0.0.0 Safari/537.36","WebKit","Chrome","107.0.0.0","Windows","10.0","null","null","","<p style=""font-size: 48px;"">+</p>","1","Filler","",""
"","","","","","picture","26086","image-keyboard-response","242","334048","0.0-6.0-3.51","99","1","2022-11-17 12:30:34","fd252370c17a9971d68c1d4354a03c2e","","Mozilla/5.0 (Windows NT 10.0; Win64; x64) AppleWebKit/537.36 (KHTML, like Gecko) Chrome/107.0.0.0 Safari/537.36","WebKit","Chrome","107.0.0.0","Windows","10.0","890","n","","couch.jpg","1","Filler","true",""
"","","","","","fixation","26086","html-keyboard-response","243","335079","0.0-6.0-0.52","99","1","2022-11-17 12:30:34","fd252370c17a9971d68c1d4354a03c2e","","Mozilla/5.0 (Windows NT 10.0; Win64; x64) AppleWebKit/537.36 (KHTML, like Gecko) Chrome/107.0.0.0 Safari/537.36","WebKit","Chrome","107.0.0.0","Windows","10.0","null","null","","<p style=""font-size: 48px;"">+</p>","1","Filler","",""
"","","","","","sentence","26086","html-keyboard-response","244","336240","0.0-6.0-1.52","99","1","2022-11-17 12:30:34","fd252370c17a9971d68c1d4354a03c2e","","Mozilla/5.0 (Windows NT 10.0; Win64; x64) AppleWebKit/537.36 (KHTML, like Gecko) Chrome/107.0.0.0 Safari/537.36","WebKit","Chrome","107.0.0.0","Windows","10.0","1137"," ","","An elephant is eating a watermelon","1","Filler","",""
"","","","","","fixation","26086","html-keyboard-response","245","336767","0.0-6.0-2.52","99","1","2022-11-17 12:30:34","fd252370c17a9971d68c1d4354a03c2e","","Mozilla/5.0 (Windows NT 10.0; Win64; x64) AppleWebKit/537.36 (KHTML, like Gecko) Chrome/107.0.0.0 Safari/537.36","WebKit","Chrome","107.0.0.0","Windows","10.0","null","null","","<p style=""font-size: 48px;"">+</p>","1","Filler","",""
"","","","","","picture","26086","image-keyboard-response","246","337535","0.0-6.0-3.52","99","1","2022-11-17 12:30:34","fd252370c17a9971d68c1d4354a03c2e","","Mozilla/5.0 (Windows NT 10.0; Win64; x64) AppleWebKit/537.36 (KHTML, like Gecko) Chrome/107.0.0.0 Safari/537.36","WebKit","Chrome","107.0.0.0","Windows","10.0","751","s","","watermelon.jpg","1","Filler","true",""
"","","","","","fixation","26086","html-keyboard-response","247","338563","0.0-6.0-0.53","99","1","2022-11-17 12:30:34","fd252370c17a9971d68c1d4354a03c2e","","Mozilla/5.0 (Windows NT 10.0; Win64; x64) AppleWebKit/537.36 (KHTML, like Gecko) Chrome/107.0.0.0 Safari/537.36","WebKit","Chrome","107.0.0.0","Windows","10.0","null","null","","<p style=""font-size: 48px;"">+</p>","1","Filler","",""
"","","","","","sentence","26086","html-keyboard-response","248","339547","0.0-6.0-1.53","99","1","2022-11-17 12:30:34","fd252370c17a9971d68c1d4354a03c2e","","Mozilla/5.0 (Windows NT 10.0; Win64; x64) AppleWebKit/537.36 (KHTML, like Gecko) Chrome/107.0.0.0 Safari/537.36","WebKit","Chrome","107.0.0.0","Windows","10.0","956"," ","","A parrot is eating an apple","1","Filler","",""
"","","","","","fixation","26086","html-keyboard-response","249","340088","0.0-6.0-2.53","99","1","2022-11-17 12:30:34","fd252370c17a9971d68c1d4354a03c2e","","Mozilla/5.0 (Windows NT 10.0; Win64; x64) AppleWebKit/537.36 (KHTML, like Gecko) Chrome/107.0.0.0 Safari/537.36","WebKit","Chrome","107.0.0.0","Windows","10.0","null","null","","<p style=""font-size: 48px;"">+</p>","1","Filler","",""
