"success","timeout","failed_images","failed_audio","failed_video","typeoftrial","subject","trial_type","trial_index","time_elapsed","internal_node_id","run_id","condition","recorded_at","source_code_version","ip","user_agent","device","browser","browser_version","platform","platform_version","rt","response","Experiment","stimulus","list_number","trialcondition","correct","question_order"
"true","false","[]","[]","[]","preload","52752","preload","0","2186","0.0-0.0","45","4","2022-11-17 12:19:10","fd252370c17a9971d68c1d4354a03c2e","","Mozilla/5.0 (Windows NT 10.0; Win64; x64) AppleWebKit/537.36 (KHTML, like Gecko) Chrome/106.0.0.0 Safari/537.36 Edg/106.0.1370.52","WebKit","Edge","106.0.1370.52","Windows","10.0","","","","","","","",""
"","","","","","ID","52752","survey-text","1","5324","0.0-1.0","45","4","2022-11-17 12:19:10","fd252370c17a9971d68c1d4354a03c2e","","Mozilla/5.0 (Windows NT 10.0; Win64; x64) AppleWebKit/537.36 (KHTML, like Gecko) Chrome/106.0.0.0 Safari/537.36 Edg/106.0.1370.52","WebKit","Edge","106.0.1370.52","Windows","10.0","3129","{""ID"":""5fad73f0d61c960a2f26f191""}","","","","","",""
"","","","","","instructions","52752","html-button-response","2","21333","0.0-2.0","45","4","2022-11-17 12:19:10","fd252370c17a9971d68c1d4354a03c2e","","Mozilla/5.0 (Windows NT 10.0; Win64; x64) AppleWebKit/537.36 (KHTML, like Gecko) Chrome/106.0.0.0 Safari/537.36 Edg/106.0.1370.52","WebKit","Edge","106.0.1370.52","Windows","10.0","16007","0","","
                    <p style=""font-size:20px;""> Welcome to the experiment! </p>
                    <p style=""font-size:20px;""> In this experiment, you will be asked to make judgments about the content of different sentences.</p>
                    <p style=""font-size:20px;""> On each trial, you will read a sentence, and will be shown a picture immediately following the sentence. </p>
                    <p style=""font-size:20px;""> Your task is to decide whether the object displayed in the picture was mentioned in the sentence or not </p>
                    <p style=""font-size:20px;""> and respond as quickly as possible by pressing <strong>S</strong> for yes or <strong>N</strong> for no. </p>
                    <p style=""font-size:20px;""> You will now do a practice session with feedback and instructions. </p>
                    <p style=""font-size:20px;""> Click the button below to continue.</p>
                    ","","","",""
"","","","","","instructions","52752","html-button-response","3","34796","0.0-3.0","45","4","2022-11-17 12:19:10","fd252370c17a9971d68c1d4354a03c2e","","Mozilla/5.0 (Windows NT 10.0; Win64; x64) AppleWebKit/537.36 (KHTML, like Gecko) Chrome/106.0.0.0 Safari/537.36 Edg/106.0.1370.52","WebKit","Edge","106.0.1370.52","Windows","10.0","13462","0","","
                    <p style=""font-size:20px;""> You are about to begin the practice test. </p>
                    <p style=""font-size:20px;""> On each trial, a sentence will appear on the screen. You should press SPACEBAR when you have read and understood the sentence.</p>
                    <p style=""font-size:20px;""> After you press SPACEBAR, a picture will appear on the screen. </p>
                    <p style=""font-size:20px;""> You need to indicate whether or not the pictured object was mentioned in the sentence. </p>
                    <p style=""font-size:20px;""> If the object WAS mentioned in the preceding sentence, you should press <strong>S</strong> </p>
                    <p style=""font-size:20px;""> If the object was NOT mentioned in the preceding sentence, you should press <strong>N</strong>. </p>
                    <p style=""font-size:20px;""> Click the button below to continue to the practice session.</p>
                    ","","","",""
"","","","","","fixation","52752","html-keyboard-response","4","35799","0.0-4.0-0.0","45","4","2022-11-17 12:19:10","fd252370c17a9971d68c1d4354a03c2e","","Mozilla/5.0 (Windows NT 10.0; Win64; x64) AppleWebKit/537.36 (KHTML, like Gecko) Chrome/106.0.0.0 Safari/537.36 Edg/106.0.1370.52","WebKit","Edge","106.0.1370.52","Windows","10.0","null","null","","<p style=""font-size: 48px;"">+</p>","practice","practice_s","",""
"","","","","","sentence","52752","html-keyboard-response","5","38319","0.0-4.0-1.0","45","4","2022-11-17 12:19:10","fd252370c17a9971d68c1d4354a03c2e","","Mozilla/5.0 (Windows NT 10.0; Win64; x64) AppleWebKit/537.36 (KHTML, like Gecko) Chrome/106.0.0.0 Safari/537.36 Edg/106.0.1370.52","WebKit","Edge","106.0.1370.52","Windows","10.0","2518"," ","","A balloon dropped and touched a cigarette","practice","practice_s","",""
"","","","","","fixation","52752","html-keyboard-response","6","38821","0.0-4.0-2.0","45","4","2022-11-17 12:19:10","fd252370c17a9971d68c1d4354a03c2e","","Mozilla/5.0 (Windows NT 10.0; Win64; x64) AppleWebKit/537.36 (KHTML, like Gecko) Chrome/106.0.0.0 Safari/537.36 Edg/106.0.1370.52","WebKit","Edge","106.0.1370.52","Windows","10.0","null","null","","<p style=""font-size: 48px;"">+</p>","practice","practice_s","",""
"","","","","","picture","52752","image-keyboard-response","7","40521","0.0-4.0-3.0","45","4","2022-11-17 12:19:10","fd252370c17a9971d68c1d4354a03c2e","","Mozilla/5.0 (Windows NT 10.0; Win64; x64) AppleWebKit/537.36 (KHTML, like Gecko) Chrome/106.0.0.0 Safari/537.36 Edg/106.0.1370.52","WebKit","Edge","106.0.1370.52","Windows","10.0","1682","s","","cigaretteB.jpg","practice","practice_s","true",""
"","","","","","","","html-keyboard-response","8","42523","0.0-4.0-4.0","45","4","2022-11-17 12:19:10","fd252370c17a9971d68c1d4354a03c2e","","Mozilla/5.0 (Windows NT 10.0; Win64; x64) AppleWebKit/537.36 (KHTML, like Gecko) Chrome/106.0.0.0 Safari/537.36 Edg/106.0.1370.52","WebKit","Edge","106.0.1370.52","Windows","10.0","null","null","","CORRECT!","","","",""
"","","","","","fixation","52752","html-keyboard-response","9","43527","0.0-4.0-0.1","45","4","2022-11-17 12:19:10","fd252370c17a9971d68c1d4354a03c2e","","Mozilla/5.0 (Windows NT 10.0; Win64; x64) AppleWebKit/537.36 (KHTML, like Gecko) Chrome/106.0.0.0 Safari/537.36 Edg/106.0.1370.52","WebKit","Edge","106.0.1370.52","Windows","10.0","null","null","","<p style=""font-size: 48px;"">+</p>","practice","practice_n","",""
"","","","","","sentence","52752","html-keyboard-response","10","45222","0.0-4.0-1.1","45","4","2022-11-17 12:19:10","fd252370c17a9971d68c1d4354a03c2e","","Mozilla/5.0 (Windows NT 10.0; Win64; x64) AppleWebKit/537.36 (KHTML, like Gecko) Chrome/106.0.0.0 Safari/537.36 Edg/106.0.1370.52","WebKit","Edge","106.0.1370.52","Windows","10.0","1694"," ","","A balloon dropped and smashed a cup","practice","practice_n","",""
"","","","","","fixation","52752","html-keyboard-response","11","45724","0.0-4.0-2.1","45","4","2022-11-17 12:19:10","fd252370c17a9971d68c1d4354a03c2e","","Mozilla/5.0 (Windows NT 10.0; Win64; x64) AppleWebKit/537.36 (KHTML, like Gecko) Chrome/106.0.0.0 Safari/537.36 Edg/106.0.1370.52","WebKit","Edge","106.0.1370.52","Windows","10.0","null","null","","<p style=""font-size: 48px;"">+</p>","practice","practice_n","",""
"","","","","","picture","52752","image-keyboard-response","12","47148","0.0-4.0-3.1","45","4","2022-11-17 12:19:10","fd252370c17a9971d68c1d4354a03c2e","","Mozilla/5.0 (Windows NT 10.0; Win64; x64) AppleWebKit/537.36 (KHTML, like Gecko) Chrome/106.0.0.0 Safari/537.36 Edg/106.0.1370.52","WebKit","Edge","106.0.1370.52","Windows","10.0","1421","n","","bananaB.jpg","practice","practice_n","true",""
"","","","","","","","html-keyboard-response","13","49150","0.0-4.0-4.1","45","4","2022-11-17 12:19:10","fd252370c17a9971d68c1d4354a03c2e","","Mozilla/5.0 (Windows NT 10.0; Win64; x64) AppleWebKit/537.36 (KHTML, like Gecko) Chrome/106.0.0.0 Safari/537.36 Edg/106.0.1370.52","WebKit","Edge","106.0.1370.52","Windows","10.0","null","null","","CORRECT!","","","",""
"","","","","","fixation","52752","html-keyboard-response","14","50152","0.0-4.0-0.2","45","4","2022-11-17 12:19:10","fd252370c17a9971d68c1d4354a03c2e","","Mozilla/5.0 (Windows NT 10.0; Win64; x64) AppleWebKit/537.36 (KHTML, like Gecko) Chrome/106.0.0.0 Safari/537.36 Edg/106.0.1370.52","WebKit","Edge","106.0.1370.52","Windows","10.0","null","null","","<p style=""font-size: 48px;"">+</p>","practice","practice_n","",""
"","","","","","sentence","52752","html-keyboard-response","15","54387","0.0-4.0-1.2","45","4","2022-11-17 12:19:10","fd252370c17a9971d68c1d4354a03c2e","","Mozilla/5.0 (Windows NT 10.0; Win64; x64) AppleWebKit/537.36 (KHTML, like Gecko) Chrome/106.0.0.0 Safari/537.36 Edg/106.0.1370.52","WebKit","Edge","106.0.1370.52","Windows","10.0","4233"," ","","A bowling ball dropped and touched a bottle","practice","practice_n","",""
"","","","","","fixation","52752","html-keyboard-response","16","54890","0.0-4.0-2.2","45","4","2022-11-17 12:19:10","fd252370c17a9971d68c1d4354a03c2e","","Mozilla/5.0 (Windows NT 10.0; Win64; x64) AppleWebKit/537.36 (KHTML, like Gecko) Chrome/106.0.0.0 Safari/537.36 Edg/106.0.1370.52","WebKit","Edge","106.0.1370.52","Windows","10.0","null","null","","<p style=""font-size: 48px;"">+</p>","practice","practice_n","",""
"","","","","","picture","52752","image-keyboard-response","17","56546","0.0-4.0-3.2","45","4","2022-11-17 12:19:10","fd252370c17a9971d68c1d4354a03c2e","","Mozilla/5.0 (Windows NT 10.0; Win64; x64) AppleWebKit/537.36 (KHTML, like Gecko) Chrome/106.0.0.0 Safari/537.36 Edg/106.0.1370.52","WebKit","Edge","106.0.1370.52","Windows","10.0","1654","n","","bookB.jpg","practice","practice_n","true",""
"","","","","","","","html-keyboard-response","18","58548","0.0-4.0-4.2","45","4","2022-11-17 12:19:10","fd252370c17a9971d68c1d4354a03c2e","","Mozilla/5.0 (Windows NT 10.0; Win64; x64) AppleWebKit/537.36 (KHTML, like Gecko) Chrome/106.0.0.0 Safari/537.36 Edg/106.0.1370.52","WebKit","Edge","106.0.1370.52","Windows","10.0","null","null","","CORRECT!","","","",""
"","","","","","fixation","52752","html-keyboard-response","19","59552","0.0-4.0-0.3","45","4","2022-11-17 12:19:10","fd252370c17a9971d68c1d4354a03c2e","","Mozilla/5.0 (Windows NT 10.0; Win64; x64) AppleWebKit/537.36 (KHTML, like Gecko) Chrome/106.0.0.0 Safari/537.36 Edg/106.0.1370.52","WebKit","Edge","106.0.1370.52","Windows","10.0","null","null","","<p style=""font-size: 48px;"">+</p>","practice","practice_s","",""
"","","","","","sentence","52752","html-keyboard-response","20","61197","0.0-4.0-1.3","45","4","2022-11-17 12:19:10","fd252370c17a9971d68c1d4354a03c2e","","Mozilla/5.0 (Windows NT 10.0; Win64; x64) AppleWebKit/537.36 (KHTML, like Gecko) Chrome/106.0.0.0 Safari/537.36 Edg/106.0.1370.52","WebKit","Edge","106.0.1370.52","Windows","10.0","1644"," ","","A bowling ball dropped and smashed a teacup","practice","practice_s","",""
"","","","","","fixation","52752","html-keyboard-response","21","61699","0.0-4.0-2.3","45","4","2022-11-17 12:19:10","fd252370c17a9971d68c1d4354a03c2e","","Mozilla/5.0 (Windows NT 10.0; Win64; x64) AppleWebKit/537.36 (KHTML, like Gecko) Chrome/106.0.0.0 Safari/537.36 Edg/106.0.1370.52","WebKit","Edge","106.0.1370.52","Windows","10.0","null","null","","<p style=""font-size: 48px;"">+</p>","practice","practice_s","",""
"","","","","","picture","52752","image-keyboard-response","22","62885","0.0-4.0-3.3","45","4","2022-11-17 12:19:10","fd252370c17a9971d68c1d4354a03c2e","","Mozilla/5.0 (Windows NT 10.0; Win64; x64) AppleWebKit/537.36 (KHTML, like Gecko) Chrome/106.0.0.0 Safari/537.36 Edg/106.0.1370.52","WebKit","Edge","106.0.1370.52","Windows","10.0","1184","s","","cupB.jpg","practice","practice_s","true",""
"","","","","","","","html-keyboard-response","23","64888","0.0-4.0-4.3","45","4","2022-11-17 12:19:10","fd252370c17a9971d68c1d4354a03c2e","","Mozilla/5.0 (Windows NT 10.0; Win64; x64) AppleWebKit/537.36 (KHTML, like Gecko) Chrome/106.0.0.0 Safari/537.36 Edg/106.0.1370.52","WebKit","Edge","106.0.1370.52","Windows","10.0","null","null","","CORRECT!","","","",""
"","","","","","fixation","52752","html-keyboard-response","24","65892","0.0-4.0-0.4","45","4","2022-11-17 12:19:10","fd252370c17a9971d68c1d4354a03c2e","","Mozilla/5.0 (Windows NT 10.0; Win64; x64) AppleWebKit/537.36 (KHTML, like Gecko) Chrome/106.0.0.0 Safari/537.36 Edg/106.0.1370.52","WebKit","Edge","106.0.1370.52","Windows","10.0","null","null","","<p style=""font-size: 48px;"">+</p>","practice","practice_s","",""
"","","","","","sentence","52752","html-keyboard-response","25","66949","0.0-4.0-1.4","45","4","2022-11-17 12:19:10","fd252370c17a9971d68c1d4354a03c2e","","Mozilla/5.0 (Windows NT 10.0; Win64; x64) AppleWebKit/537.36 (KHTML, like Gecko) Chrome/106.0.0.0 Safari/537.36 Edg/106.0.1370.52","WebKit","Edge","106.0.1370.52","Windows","10.0","1054"," ","","A knife was placed on a hammer","practice","practice_s","",""
"","","","","","fixation","52752","html-keyboard-response","26","67452","0.0-4.0-2.4","45","4","2022-11-17 12:19:10","fd252370c17a9971d68c1d4354a03c2e","","Mozilla/5.0 (Windows NT 10.0; Win64; x64) AppleWebKit/537.36 (KHTML, like Gecko) Chrome/106.0.0.0 Safari/537.36 Edg/106.0.1370.52","WebKit","Edge","106.0.1370.52","Windows","10.0","null","null","","<p style=""font-size: 48px;"">+</p>","practice","practice_s","",""
"","","","","","picture","52752","image-keyboard-response","27","69031","0.0-4.0-3.4","45","4","2022-11-17 12:19:10","fd252370c17a9971d68c1d4354a03c2e","","Mozilla/5.0 (Windows NT 10.0; Win64; x64) AppleWebKit/537.36 (KHTML, like Gecko) Chrome/106.0.0.0 Safari/537.36 Edg/106.0.1370.52","WebKit","Edge","106.0.1370.52","Windows","10.0","1576","s","","hammerB.jpg","practice","practice_s","true",""
"","","","","","","","html-keyboard-response","28","71034","0.0-4.0-4.4","45","4","2022-11-17 12:19:10","fd252370c17a9971d68c1d4354a03c2e","","Mozilla/5.0 (Windows NT 10.0; Win64; x64) AppleWebKit/537.36 (KHTML, like Gecko) Chrome/106.0.0.0 Safari/537.36 Edg/106.0.1370.52","WebKit","Edge","106.0.1370.52","Windows","10.0","null","null","","CORRECT!","","","",""
"","","","","","fixation","52752","html-keyboard-response","29","72037","0.0-4.0-0.5","45","4","2022-11-17 12:19:10","fd252370c17a9971d68c1d4354a03c2e","","Mozilla/5.0 (Windows NT 10.0; Win64; x64) AppleWebKit/537.36 (KHTML, like Gecko) Chrome/106.0.0.0 Safari/537.36 Edg/106.0.1370.52","WebKit","Edge","106.0.1370.52","Windows","10.0","null","null","","<p style=""font-size: 48px;"">+</p>","practice","practice_n","",""
"","","","","","sentence","52752","html-keyboard-response","30","73103","0.0-4.0-1.5","45","4","2022-11-17 12:19:10","fd252370c17a9971d68c1d4354a03c2e","","Mozilla/5.0 (Windows NT 10.0; Win64; x64) AppleWebKit/537.36 (KHTML, like Gecko) Chrome/106.0.0.0 Safari/537.36 Edg/106.0.1370.52","WebKit","Edge","106.0.1370.52","Windows","10.0","1063"," ","","A fork was placed on a stool","practice","practice_n","",""
"","","","","","fixation","52752","html-keyboard-response","31","73606","0.0-4.0-2.5","45","4","2022-11-17 12:19:10","fd252370c17a9971d68c1d4354a03c2e","","Mozilla/5.0 (Windows NT 10.0; Win64; x64) AppleWebKit/537.36 (KHTML, like Gecko) Chrome/106.0.0.0 Safari/537.36 Edg/106.0.1370.52","WebKit","Edge","106.0.1370.52","Windows","10.0","null","null","","<p style=""font-size: 48px;"">+</p>","practice","practice_n","",""
"","","","","","picture","52752","image-keyboard-response","32","75200","0.0-4.0-3.5","45","4","2022-11-17 12:19:10","fd252370c17a9971d68c1d4354a03c2e","","Mozilla/5.0 (Windows NT 10.0; Win64; x64) AppleWebKit/537.36 (KHTML, like Gecko) Chrome/106.0.0.0 Safari/537.36 Edg/106.0.1370.52","WebKit","Edge","106.0.1370.52","Windows","10.0","1590","s","","tableB.jpg","practice","practice_n","false",""
"","","","","","","","html-keyboard-response","33","77203","0.0-4.0-4.5","45","4","2022-11-17 12:19:10","fd252370c17a9971d68c1d4354a03c2e","","Mozilla/5.0 (Windows NT 10.0; Win64; x64) AppleWebKit/537.36 (KHTML, like Gecko) Chrome/106.0.0.0 Safari/537.36 Edg/106.0.1370.52","WebKit","Edge","106.0.1370.52","Windows","10.0","null","null","","WRONG!","","","",""
"","","","","","movetoexp","52752","html-button-response","34","135580","0.0-5.0","45","4","2022-11-17 12:19:10","fd252370c17a9971d68c1d4354a03c2e","","Mozilla/5.0 (Windows NT 10.0; Win64; x64) AppleWebKit/537.36 (KHTML, like Gecko) Chrome/106.0.0.0 Safari/537.36 Edg/106.0.1370.52","WebKit","Edge","106.0.1370.52","Windows","10.0","58376","0","","<p style=""font-size:20px;"">You have now completed the practice session! </p>
                    <p style=""font-size:20px;"">You will now move on to the main experiment, where you will not be provided any feedback. </p>
                    <p style=""font-size:20px;"">Remember, you should press <strong>S</strong> if the pictured object was mentioned in the preceding sentence<br> and <strong>N</strong> if the pictured object was not mentioned in the preceding sentence.</p>
                    <p style=""font-size:20px;"">Please click the button below to continue to the main experiment. </p>","","","",""
"","","","","","fixation","52752","html-keyboard-response","35","136583","0.0-6.0-0.0","45","4","2022-11-17 12:19:10","fd252370c17a9971d68c1d4354a03c2e","","Mozilla/5.0 (Windows NT 10.0; Win64; x64) AppleWebKit/537.36 (KHTML, like Gecko) Chrome/106.0.0.0 Safari/537.36 Edg/106.0.1370.52","WebKit","Edge","106.0.1370.52","Windows","10.0","null","null","","<p style=""font-size: 48px;"">+</p>","4","Filler","",""
"","","","","","sentence","52752","html-keyboard-response","36","137891","0.0-6.0-1.0","45","4","2022-11-17 12:19:10","fd252370c17a9971d68c1d4354a03c2e","","Mozilla/5.0 (Windows NT 10.0; Win64; x64) AppleWebKit/537.36 (KHTML, like Gecko) Chrome/106.0.0.0 Safari/537.36 Edg/106.0.1370.52","WebKit","Edge","106.0.1370.52","Windows","10.0","1306"," ","","A pencil was placed on the shoe","4","Filler","",""
"","","","","","fixation","52752","html-keyboard-response","37","138395","0.0-6.0-2.0","45","4","2022-11-17 12:19:10","fd252370c17a9971d68c1d4354a03c2e","","Mozilla/5.0 (Windows NT 10.0; Win64; x64) AppleWebKit/537.36 (KHTML, like Gecko) Chrome/106.0.0.0 Safari/537.36 Edg/106.0.1370.52","WebKit","Edge","106.0.1370.52","Windows","10.0","null","null","","<p style=""font-size: 48px;"">+</p>","4","Filler","",""
"","","","","","picture","52752","image-keyboard-response","38","139816","0.0-6.0-3.0","45","4","2022-11-17 12:19:10","fd252370c17a9971d68c1d4354a03c2e","","Mozilla/5.0 (Windows NT 10.0; Win64; x64) AppleWebKit/537.36 (KHTML, like Gecko) Chrome/106.0.0.0 Safari/537.36 Edg/106.0.1370.52","WebKit","Edge","106.0.1370.52","Windows","10.0","1417","n","","perfume.jpg","4","Filler","true",""
"","","","","","fixation","52752","html-keyboard-response","39","140819","0.0-6.0-0.1","45","4","2022-11-17 12:19:10","fd252370c17a9971d68c1d4354a03c2e","","Mozilla/5.0 (Windows NT 10.0; Win64; x64) AppleWebKit/537.36 (KHTML, like Gecko) Chrome/106.0.0.0 Safari/537.36 Edg/106.0.1370.52","WebKit","Edge","106.0.1370.52","Windows","10.0","null","null","","<p style=""font-size: 48px;"">+</p>","4","Light-Matched","",""
"","","","","","sentence","52752","html-keyboard-response","40","142880","0.0-6.0-1.1","45","4","2022-11-17 12:19:10","fd252370c17a9971d68c1d4354a03c2e","","Mozilla/5.0 (Windows NT 10.0; Win64; x64) AppleWebKit/537.36 (KHTML, like Gecko) Chrome/106.0.0.0 Safari/537.36 Edg/106.0.1370.52","WebKit","Edge","106.0.1370.52","Windows","10.0","2060"," ","","A balloon dropped and touched a chocolate ice-cream","4","Light-Matched","",""
"","","","","","fixation","52752","html-keyboard-response","41","143384","0.0-6.0-2.1","45","4","2022-11-17 12:19:10","fd252370c17a9971d68c1d4354a03c2e","","Mozilla/5.0 (Windows NT 10.0; Win64; x64) AppleWebKit/537.36 (KHTML, like Gecko) Chrome/106.0.0.0 Safari/537.36 Edg/106.0.1370.52","WebKit","Edge","106.0.1370.52","Windows","10.0","null","null","","<p style=""font-size: 48px;"">+</p>","4","Light-Matched","",""
"","","","","","picture","52752","image-keyboard-response","42","144684","0.0-6.0-3.1","45","4","2022-11-17 12:19:10","fd252370c17a9971d68c1d4354a03c2e","","Mozilla/5.0 (Windows NT 10.0; Win64; x64) AppleWebKit/537.36 (KHTML, like Gecko) Chrome/106.0.0.0 Safari/537.36 Edg/106.0.1370.52","WebKit","Edge","106.0.1370.52","Windows","10.0","1297","s","","icecreamS.jpg","4","Light-Matched","true",""
"","","","","","fixation","52752","html-keyboard-response","43","145688","0.0-6.0-0.2","45","4","2022-11-17 12:19:10","fd252370c17a9971d68c1d4354a03c2e","","Mozilla/5.0 (Windows NT 10.0; Win64; x64) AppleWebKit/537.36 (KHTML, like Gecko) Chrome/106.0.0.0 Safari/537.36 Edg/106.0.1370.52","WebKit","Edge","106.0.1370.52","Windows","10.0","null","null","","<p style=""font-size: 48px;"">+</p>","4","Filler","",""
"","","","","","sentence","52752","html-keyboard-response","44","147344","0.0-6.0-1.2","45","4","2022-11-17 12:19:10","fd252370c17a9971d68c1d4354a03c2e","","Mozilla/5.0 (Windows NT 10.0; Win64; x64) AppleWebKit/537.36 (KHTML, like Gecko) Chrome/106.0.0.0 Safari/537.36 Edg/106.0.1370.52","WebKit","Edge","106.0.1370.52","Windows","10.0","1653"," ","","A photographer is taking a photo of a lion","4","Filler","",""
"","","","","","fixation","52752","html-keyboard-response","45","147848","0.0-6.0-2.2","45","4","2022-11-17 12:19:10","fd252370c17a9971d68c1d4354a03c2e","","Mozilla/5.0 (Windows NT 10.0; Win64; x64) AppleWebKit/537.36 (KHTML, like Gecko) Chrome/106.0.0.0 Safari/537.36 Edg/106.0.1370.52","WebKit","Edge","106.0.1370.52","Windows","10.0","null","null","","<p style=""font-size: 48px;"">+</p>","4","Filler","",""
"","","","","","picture","52752","image-keyboard-response","46","149110","0.0-6.0-3.2","45","4","2022-11-17 12:19:10","fd252370c17a9971d68c1d4354a03c2e","","Mozilla/5.0 (Windows NT 10.0; Win64; x64) AppleWebKit/537.36 (KHTML, like Gecko) Chrome/106.0.0.0 Safari/537.36 Edg/106.0.1370.52","WebKit","Edge","106.0.1370.52","Windows","10.0","1258","s","","lion.jpg","4","Filler","true",""
"","","","","","fixation","52752","html-keyboard-response","47","150114","0.0-6.0-0.3","45","4","2022-11-17 12:19:10","fd252370c17a9971d68c1d4354a03c2e","","Mozilla/5.0 (Windows NT 10.0; Win64; x64) AppleWebKit/537.36 (KHTML, like Gecko) Chrome/106.0.0.0 Safari/537.36 Edg/106.0.1370.52","WebKit","Edge","106.0.1370.52","Windows","10.0","null","null","","<p style=""font-size: 48px;"">+</p>","4","Filler","",""
"","","","","","sentence","52752","html-keyboard-response","48","151134","0.0-6.0-1.3","45","4","2022-11-17 12:19:10","fd252370c17a9971d68c1d4354a03c2e","","Mozilla/5.0 (Windows NT 10.0; Win64; x64) AppleWebKit/537.36 (KHTML, like Gecko) Chrome/106.0.0.0 Safari/537.36 Edg/106.0.1370.52","WebKit","Edge","106.0.1370.52","Windows","10.0","1017"," ","","A mouse is eating cheese","4","Filler","",""
"","","","","","fixation","52752","html-keyboard-response","49","151637","0.0-6.0-2.3","45","4","2022-11-17 12:19:10","fd252370c17a9971d68c1d4354a03c2e","","Mozilla/5.0 (Windows NT 10.0; Win64; x64) AppleWebKit/537.36 (KHTML, like Gecko) Chrome/106.0.0.0 Safari/537.36 Edg/106.0.1370.52","WebKit","Edge","106.0.1370.52","Windows","10.0","null","null","","<p style=""font-size: 48px;"">+</p>","4","Filler","",""
"","","","","","picture","52752","image-keyboard-response","50","152743","0.0-6.0-3.3","45","4","2022-11-17 12:19:10","fd252370c17a9971d68c1d4354a03c2e","","Mozilla/5.0 (Windows NT 10.0; Win64; x64) AppleWebKit/537.36 (KHTML, like Gecko) Chrome/106.0.0.0 Safari/537.36 Edg/106.0.1370.52","WebKit","Edge","106.0.1370.52","Windows","10.0","1102","n","","ring.jpg","4","Filler","true",""
"","","","","","fixation","52752","html-keyboard-response","51","153747","0.0-6.0-0.4","45","4","2022-11-17 12:19:10","fd252370c17a9971d68c1d4354a03c2e","","Mozilla/5.0 (Windows NT 10.0; Win64; x64) AppleWebKit/537.36 (KHTML, like Gecko) Chrome/106.0.0.0 Safari/537.36 Edg/106.0.1370.52","WebKit","Edge","106.0.1370.52","Windows","10.0","null","null","","<p style=""font-size: 48px;"">+</p>","4","Light-Matched","",""
"","","","","","sentence","52752","html-keyboard-response","52","155373","0.0-6.0-1.4","45","4","2022-11-17 12:19:10","fd252370c17a9971d68c1d4354a03c2e","","Mozilla/5.0 (Windows NT 10.0; Win64; x64) AppleWebKit/537.36 (KHTML, like Gecko) Chrome/106.0.0.0 Safari/537.36 Edg/106.0.1370.52","WebKit","Edge","106.0.1370.52","Windows","10.0","1624"," ","","A balloon dropped and touched a banana","4","Light-Matched","",""
"","","","","","fixation","52752","html-keyboard-response","53","155877","0.0-6.0-2.4","45","4","2022-11-17 12:19:10","fd252370c17a9971d68c1d4354a03c2e","","Mozilla/5.0 (Windows NT 10.0; Win64; x64) AppleWebKit/537.36 (KHTML, like Gecko) Chrome/106.0.0.0 Safari/537.36 Edg/106.0.1370.52","WebKit","Edge","106.0.1370.52","Windows","10.0","null","null","","<p style=""font-size: 48px;"">+</p>","4","Light-Matched","",""
"","","","","","picture","52752","image-keyboard-response","54","156922","0.0-6.0-3.4","45","4","2022-11-17 12:19:10","fd252370c17a9971d68c1d4354a03c2e","","Mozilla/5.0 (Windows NT 10.0; Win64; x64) AppleWebKit/537.36 (KHTML, like Gecko) Chrome/106.0.0.0 Safari/537.36 Edg/106.0.1370.52","WebKit","Edge","106.0.1370.52","Windows","10.0","1043","s","","bananaS.jpg","4","Light-Matched","true",""
"","","","","","fixation","52752","html-keyboard-response","55","157927","0.0-6.0-0.5","45","4","2022-11-17 12:19:10","fd252370c17a9971d68c1d4354a03c2e","","Mozilla/5.0 (Windows NT 10.0; Win64; x64) AppleWebKit/537.36 (KHTML, like Gecko) Chrome/106.0.0.0 Safari/537.36 Edg/106.0.1370.52","WebKit","Edge","106.0.1370.52","Windows","10.0","null","null","","<p style=""font-size: 48px;"">+</p>","4","Filler","",""
"","","","","","sentence","52752","html-keyboard-response","56","160571","0.0-6.0-1.5","45","4","2022-11-17 12:19:10","fd252370c17a9971d68c1d4354a03c2e","","Mozilla/5.0 (Windows NT 10.0; Win64; x64) AppleWebKit/537.36 (KHTML, like Gecko) Chrome/106.0.0.0 Safari/537.36 Edg/106.0.1370.52","WebKit","Edge","106.0.1370.52","Windows","10.0","2641"," ","","A nurse is taking a syringe","4","Filler","",""
"","","","","","fixation","52752","html-keyboard-response","57","161082","0.0-6.0-2.5","45","4","2022-11-17 12:19:10","fd252370c17a9971d68c1d4354a03c2e","","Mozilla/5.0 (Windows NT 10.0; Win64; x64) AppleWebKit/537.36 (KHTML, like Gecko) Chrome/106.0.0.0 Safari/537.36 Edg/106.0.1370.52","WebKit","Edge","106.0.1370.52","Windows","10.0","null","null","","<p style=""font-size: 48px;"">+</p>","4","Filler","",""
"","","","","","picture","52752","image-keyboard-response","58","162527","0.0-6.0-3.5","45","4","2022-11-17 12:19:10","fd252370c17a9971d68c1d4354a03c2e","","Mozilla/5.0 (Windows NT 10.0; Win64; x64) AppleWebKit/537.36 (KHTML, like Gecko) Chrome/106.0.0.0 Safari/537.36 Edg/106.0.1370.52","WebKit","Edge","106.0.1370.52","Windows","10.0","1442","n","","headphones.jpg","4","Filler","true",""
"","","","","","fixation","52752","html-keyboard-response","59","163531","0.0-6.0-0.6","45","4","2022-11-17 12:19:10","fd252370c17a9971d68c1d4354a03c2e","","Mozilla/5.0 (Windows NT 10.0; Win64; x64) AppleWebKit/537.36 (KHTML, like Gecko) Chrome/106.0.0.0 Safari/537.36 Edg/106.0.1370.52","WebKit","Edge","106.0.1370.52","Windows","10.0","null","null","","<p style=""font-size: 48px;"">+</p>","4","Light-Matched","",""
"","","","","","sentence","52752","html-keyboard-response","60","164712","0.0-6.0-1.6","45","4","2022-11-17 12:19:10","fd252370c17a9971d68c1d4354a03c2e","","Mozilla/5.0 (Windows NT 10.0; Win64; x64) AppleWebKit/537.36 (KHTML, like Gecko) Chrome/106.0.0.0 Safari/537.36 Edg/106.0.1370.52","WebKit","Edge","106.0.1370.52","Windows","10.0","1178"," ","","A balloon dropped and touched glasses","4","Light-Matched","",""
"","","","","","fixation","52752","html-keyboard-response","61","165215","0.0-6.0-2.6","45","4","2022-11-17 12:19:10","fd252370c17a9971d68c1d4354a03c2e","","Mozilla/5.0 (Windows NT 10.0; Win64; x64) AppleWebKit/537.36 (KHTML, like Gecko) Chrome/106.0.0.0 Safari/537.36 Edg/106.0.1370.52","WebKit","Edge","106.0.1370.52","Windows","10.0","null","null","","<p style=""font-size: 48px;"">+</p>","4","Light-Matched","",""
"","","","","","picture","52752","image-keyboard-response","62","166594","0.0-6.0-3.6","45","4","2022-11-17 12:19:10","fd252370c17a9971d68c1d4354a03c2e","","Mozilla/5.0 (Windows NT 10.0; Win64; x64) AppleWebKit/537.36 (KHTML, like Gecko) Chrome/106.0.0.0 Safari/537.36 Edg/106.0.1370.52","WebKit","Edge","106.0.1370.52","Windows","10.0","1373","s","","glassesS.jpg","4","Light-Matched","true",""
"","","","","","fixation","52752","html-keyboard-response","63","167598","0.0-6.0-0.7","45","4","2022-11-17 12:19:10","fd252370c17a9971d68c1d4354a03c2e","","Mozilla/5.0 (Windows NT 10.0; Win64; x64) AppleWebKit/537.36 (KHTML, like Gecko) Chrome/106.0.0.0 Safari/537.36 Edg/106.0.1370.52","WebKit","Edge","106.0.1370.52","Windows","10.0","null","null","","<p style=""font-size: 48px;"">+</p>","4","Filler","",""
"","","","","","sentence","52752","html-keyboard-response","64","168653","0.0-6.0-1.7","45","4","2022-11-17 12:19:10","fd252370c17a9971d68c1d4354a03c2e","","Mozilla/5.0 (Windows NT 10.0; Win64; x64) AppleWebKit/537.36 (KHTML, like Gecko) Chrome/106.0.0.0 Safari/537.36 Edg/106.0.1370.52","WebKit","Edge","106.0.1370.52","Windows","10.0","1052"," ","","A horse is chewing hay","4","Filler","",""
"","","","","","fixation","52752","html-keyboard-response","65","169158","0.0-6.0-2.7","45","4","2022-11-17 12:19:10","fd252370c17a9971d68c1d4354a03c2e","","Mozilla/5.0 (Windows NT 10.0; Win64; x64) AppleWebKit/537.36 (KHTML, like Gecko) Chrome/106.0.0.0 Safari/537.36 Edg/106.0.1370.52","WebKit","Edge","106.0.1370.52","Windows","10.0","null","null","","<p style=""font-size: 48px;"">+</p>","4","Filler","",""
"","","","","","picture","52752","image-keyboard-response","66","170521","0.0-6.0-3.7","45","4","2022-11-17 12:19:10","fd252370c17a9971d68c1d4354a03c2e","","Mozilla/5.0 (Windows NT 10.0; Win64; x64) AppleWebKit/537.36 (KHTML, like Gecko) Chrome/106.0.0.0 Safari/537.36 Edg/106.0.1370.52","WebKit","Edge","106.0.1370.52","Windows","10.0","1359","n","","purse.jpg","4","Filler","true",""
"","","","","","fixation","52752","html-keyboard-response","67","171523","0.0-6.0-0.8","45","4","2022-11-17 12:19:10","fd252370c17a9971d68c1d4354a03c2e","","Mozilla/5.0 (Windows NT 10.0; Win64; x64) AppleWebKit/537.36 (KHTML, like Gecko) Chrome/106.0.0.0 Safari/537.36 Edg/106.0.1370.52","WebKit","Edge","106.0.1370.52","Windows","10.0","null","null","","<p style=""font-size: 48px;"">+</p>","4","Light-Contradictory","",""
"","","","","","sentence","52752","html-keyboard-response","68","172940","0.0-6.0-1.8","45","4","2022-11-17 12:19:10","fd252370c17a9971d68c1d4354a03c2e","","Mozilla/5.0 (Windows NT 10.0; Win64; x64) AppleWebKit/537.36 (KHTML, like Gecko) Chrome/106.0.0.0 Safari/537.36 Edg/106.0.1370.52","WebKit","Edge","106.0.1370.52","Windows","10.0","1414"," ","","A balloon dropped and smashed a donut","4","Light-Contradictory","",""
"","","","","","fixation","52752","html-keyboard-response","69","173444","0.0-6.0-2.8","45","4","2022-11-17 12:19:10","fd252370c17a9971d68c1d4354a03c2e","","Mozilla/5.0 (Windows NT 10.0; Win64; x64) AppleWebKit/537.36 (KHTML, like Gecko) Chrome/106.0.0.0 Safari/537.36 Edg/106.0.1370.52","WebKit","Edge","106.0.1370.52","Windows","10.0","null","null","","<p style=""font-size: 48px;"">+</p>","4","Light-Contradictory","",""
"","","","","","picture","52752","image-keyboard-response","70","174901","0.0-6.0-3.8","45","4","2022-11-17 12:19:10","fd252370c17a9971d68c1d4354a03c2e","","Mozilla/5.0 (Windows NT 10.0; Win64; x64) AppleWebKit/537.36 (KHTML, like Gecko) Chrome/106.0.0.0 Safari/537.36 Edg/106.0.1370.52","WebKit","Edge","106.0.1370.52","Windows","10.0","1454","s","","donutS.jpg","4","Light-Contradictory","true",""
"","","","","","fixation","52752","html-keyboard-response","71","175906","0.0-6.0-0.9","45","4","2022-11-17 12:19:10","fd252370c17a9971d68c1d4354a03c2e","","Mozilla/5.0 (Windows NT 10.0; Win64; x64) AppleWebKit/537.36 (KHTML, like Gecko) Chrome/106.0.0.0 Safari/537.36 Edg/106.0.1370.52","WebKit","Edge","106.0.1370.52","Windows","10.0","null","null","","<p style=""font-size: 48px;"">+</p>","4","Filler","",""
"","","","","","sentence","52752","html-keyboard-response","72","176979","0.0-6.0-1.9","45","4","2022-11-17 12:19:10","fd252370c17a9971d68c1d4354a03c2e","","Mozilla/5.0 (Windows NT 10.0; Win64; x64) AppleWebKit/537.36 (KHTML, like Gecko) Chrome/106.0.0.0 Safari/537.36 Edg/106.0.1370.52","WebKit","Edge","106.0.1370.52","Windows","10.0","1070"," ","","A ring was placed on the newspaper","4","Filler","",""
"","","","","","fixation","52752","html-keyboard-response","73","177485","0.0-6.0-2.9","45","4","2022-11-17 12:19:10","fd252370c17a9971d68c1d4354a03c2e","","Mozilla/5.0 (Windows NT 10.0; Win64; x64) AppleWebKit/537.36 (KHTML, like Gecko) Chrome/106.0.0.0 Safari/537.36 Edg/106.0.1370.52","WebKit","Edge","106.0.1370.52","Windows","10.0","null","null","","<p style=""font-size: 48px;"">+</p>","4","Filler","",""
"","","","","","picture","52752","image-keyboard-response","74","178595","0.0-6.0-3.9","45","4","2022-11-17 12:19:10","fd252370c17a9971d68c1d4354a03c2e","","Mozilla/5.0 (Windows NT 10.0; Win64; x64) AppleWebKit/537.36 (KHTML, like Gecko) Chrome/106.0.0.0 Safari/537.36 Edg/106.0.1370.52","WebKit","Edge","106.0.1370.52","Windows","10.0","1108","n","","cat.jpg","4","Filler","true",""
"","","","","","fixation","52752","html-keyboard-response","75","179600","0.0-6.0-0.10","45","4","2022-11-17 12:19:10","fd252370c17a9971d68c1d4354a03c2e","","Mozilla/5.0 (Windows NT 10.0; Win64; x64) AppleWebKit/537.36 (KHTML, like Gecko) Chrome/106.0.0.0 Safari/537.36 Edg/106.0.1370.52","WebKit","Edge","106.0.1370.52","Windows","10.0","null","null","","<p style=""font-size: 48px;"">+</p>","4","Filler","",""
"","","","","","sentence","52752","html-keyboard-response","76","180535","0.0-6.0-1.10","45","4","2022-11-17 12:19:10","fd252370c17a9971d68c1d4354a03c2e","","Mozilla/5.0 (Windows NT 10.0; Win64; x64) AppleWebKit/537.36 (KHTML, like Gecko) Chrome/106.0.0.0 Safari/537.36 Edg/106.0.1370.52","WebKit","Edge","106.0.1370.52","Windows","10.0","932"," ","","A zebra is playing with a horse","4","Filler","",""
"","","","","","fixation","52752","html-keyboard-response","77","181039","0.0-6.0-2.10","45","4","2022-11-17 12:19:10","fd252370c17a9971d68c1d4354a03c2e","","Mozilla/5.0 (Windows NT 10.0; Win64; x64) AppleWebKit/537.36 (KHTML, like Gecko) Chrome/106.0.0.0 Safari/537.36 Edg/106.0.1370.52","WebKit","Edge","106.0.1370.52","Windows","10.0","null","null","","<p style=""font-size: 48px;"">+</p>","4","Filler","",""
"","","","","","picture","52752","image-keyboard-response","78","182209","0.0-6.0-3.10","45","4","2022-11-17 12:19:10","fd252370c17a9971d68c1d4354a03c2e","","Mozilla/5.0 (Windows NT 10.0; Win64; x64) AppleWebKit/537.36 (KHTML, like Gecko) Chrome/106.0.0.0 Safari/537.36 Edg/106.0.1370.52","WebKit","Edge","106.0.1370.52","Windows","10.0","1166","n","","watch.jpg","4","Filler","true",""
"","","","","","fixation","52752","html-keyboard-response","79","183213","0.0-6.0-0.11","45","4","2022-11-17 12:19:10","fd252370c17a9971d68c1d4354a03c2e","","Mozilla/5.0 (Windows NT 10.0; Win64; x64) AppleWebKit/537.36 (KHTML, like Gecko) Chrome/106.0.0.0 Safari/537.36 Edg/106.0.1370.52","WebKit","Edge","106.0.1370.52","Windows","10.0","null","null","","<p style=""font-size: 48px;"">+</p>","4","Filler","",""
"","","","","","sentence","52752","html-keyboard-response","80","185063","0.0-6.0-1.11","45","4","2022-11-17 12:19:10","fd252370c17a9971d68c1d4354a03c2e","","Mozilla/5.0 (Windows NT 10.0; Win64; x64) AppleWebKit/537.36 (KHTML, like Gecko) Chrome/106.0.0.0 Safari/537.36 Edg/106.0.1370.52","WebKit","Edge","106.0.1370.52","Windows","10.0","1846"," ","","An elephant is eating a watermelon","4","Filler","",""
"","","","","","fixation","52752","html-keyboard-response","81","185567","0.0-6.0-2.11","45","4","2022-11-17 12:19:10","fd252370c17a9971d68c1d4354a03c2e","","Mozilla/5.0 (Windows NT 10.0; Win64; x64) AppleWebKit/537.36 (KHTML, like Gecko) Chrome/106.0.0.0 Safari/537.36 Edg/106.0.1370.52","WebKit","Edge","106.0.1370.52","Windows","10.0","null","null","","<p style=""font-size: 48px;"">+</p>","4","Filler","",""
"","","","","","picture","52752","image-keyboard-response","82","187653","0.0-6.0-3.11","45","4","2022-11-17 12:19:10","fd252370c17a9971d68c1d4354a03c2e","","Mozilla/5.0 (Windows NT 10.0; Win64; x64) AppleWebKit/537.36 (KHTML, like Gecko) Chrome/106.0.0.0 Safari/537.36 Edg/106.0.1370.52","WebKit","Edge","106.0.1370.52","Windows","10.0","2082","s","","watermelon.jpg","4","Filler","true",""
"","","","","","fixation","52752","html-keyboard-response","83","188659","0.0-6.0-0.12","45","4","2022-11-17 12:19:10","fd252370c17a9971d68c1d4354a03c2e","","Mozilla/5.0 (Windows NT 10.0; Win64; x64) AppleWebKit/537.36 (KHTML, like Gecko) Chrome/106.0.0.0 Safari/537.36 Edg/106.0.1370.52","WebKit","Edge","106.0.1370.52","Windows","10.0","null","null","","<p style=""font-size: 48px;"">+</p>","4","Filler","",""
"","","","","","sentence","52752","html-keyboard-response","84","189697","0.0-6.0-1.12","45","4","2022-11-17 12:19:10","fd252370c17a9971d68c1d4354a03c2e","","Mozilla/5.0 (Windows NT 10.0; Win64; x64) AppleWebKit/537.36 (KHTML, like Gecko) Chrome/106.0.0.0 Safari/537.36 Edg/106.0.1370.52","WebKit","Edge","106.0.1370.52","Windows","10.0","1033"," ","","A thermometer was placed on the box","4","Filler","",""
"","","","","","fixation","52752","html-keyboard-response","85","190202","0.0-6.0-2.12","45","4","2022-11-17 12:19:10","fd252370c17a9971d68c1d4354a03c2e","","Mozilla/5.0 (Windows NT 10.0; Win64; x64) AppleWebKit/537.36 (KHTML, like Gecko) Chrome/106.0.0.0 Safari/537.36 Edg/106.0.1370.52","WebKit","Edge","106.0.1370.52","Windows","10.0","null","null","","<p style=""font-size: 48px;"">+</p>","4","Filler","",""
"","","","","","picture","52752","image-keyboard-response","86","191926","0.0-6.0-3.12","45","4","2022-11-17 12:19:10","fd252370c17a9971d68c1d4354a03c2e","","Mozilla/5.0 (Windows NT 10.0; Win64; x64) AppleWebKit/537.36 (KHTML, like Gecko) Chrome/106.0.0.0 Safari/537.36 Edg/106.0.1370.52","WebKit","Edge","106.0.1370.52","Windows","10.0","1721","n","","button.jpg","4","Filler","true",""
"","","","","","fixation","52752","html-keyboard-response","87","192929","0.0-6.0-0.13","45","4","2022-11-17 12:19:10","fd252370c17a9971d68c1d4354a03c2e","","Mozilla/5.0 (Windows NT 10.0; Win64; x64) AppleWebKit/537.36 (KHTML, like Gecko) Chrome/106.0.0.0 Safari/537.36 Edg/106.0.1370.52","WebKit","Edge","106.0.1370.52","Windows","10.0","null","null","","<p style=""font-size: 48px;"">+</p>","4","Filler","",""
"","","","","","sentence","52752","html-keyboard-response","88","196377","0.0-6.0-1.13","45","4","2022-11-17 12:19:10","fd252370c17a9971d68c1d4354a03c2e","","Mozilla/5.0 (Windows NT 10.0; Win64; x64) AppleWebKit/537.36 (KHTML, like Gecko) Chrome/106.0.0.0 Safari/537.36 Edg/106.0.1370.52","WebKit","Edge","106.0.1370.52","Windows","10.0","3445"," ","","An actress is taking a microphone","4","Filler","",""
"","","","","","fixation","52752","html-keyboard-response","89","196882","0.0-6.0-2.13","45","4","2022-11-17 12:19:10","fd252370c17a9971d68c1d4354a03c2e","","Mozilla/5.0 (Windows NT 10.0; Win64; x64) AppleWebKit/537.36 (KHTML, like Gecko) Chrome/106.0.0.0 Safari/537.36 Edg/106.0.1370.52","WebKit","Edge","106.0.1370.52","Windows","10.0","null","null","","<p style=""font-size: 48px;"">+</p>","4","Filler","",""
"","","","","","picture","52752","image-keyboard-response","90","198024","0.0-6.0-3.13","45","4","2022-11-17 12:19:10","fd252370c17a9971d68c1d4354a03c2e","","Mozilla/5.0 (Windows NT 10.0; Win64; x64) AppleWebKit/537.36 (KHTML, like Gecko) Chrome/106.0.0.0 Safari/537.36 Edg/106.0.1370.52","WebKit","Edge","106.0.1370.52","Windows","10.0","1137","n","","pants.jpg","4","Filler","true",""
"","","","","","fixation","52752","html-keyboard-response","91","199027","0.0-6.0-0.14","45","4","2022-11-17 12:19:10","fd252370c17a9971d68c1d4354a03c2e","","Mozilla/5.0 (Windows NT 10.0; Win64; x64) AppleWebKit/537.36 (KHTML, like Gecko) Chrome/106.0.0.0 Safari/537.36 Edg/106.0.1370.52","WebKit","Edge","106.0.1370.52","Windows","10.0","null","null","","<p style=""font-size: 48px;"">+</p>","4","Filler","",""
"","","","","","sentence","52752","html-keyboard-response","92","200450","0.0-6.0-1.14","45","4","2022-11-17 12:19:10","fd252370c17a9971d68c1d4354a03c2e","","Mozilla/5.0 (Windows NT 10.0; Win64; x64) AppleWebKit/537.36 (KHTML, like Gecko) Chrome/106.0.0.0 Safari/537.36 Edg/106.0.1370.52","WebKit","Edge","106.0.1370.52","Windows","10.0","1419"," ","","A needle was placed on the mouse pad","4","Filler","",""
"","","","","","fixation","52752","html-keyboard-response","93","200954","0.0-6.0-2.14","45","4","2022-11-17 12:19:10","fd252370c17a9971d68c1d4354a03c2e","","Mozilla/5.0 (Windows NT 10.0; Win64; x64) AppleWebKit/537.36 (KHTML, like Gecko) Chrome/106.0.0.0 Safari/537.36 Edg/106.0.1370.52","WebKit","Edge","106.0.1370.52","Windows","10.0","null","null","","<p style=""font-size: 48px;"">+</p>","4","Filler","",""
"","","","","","picture","52752","image-keyboard-response","94","202350","0.0-6.0-3.14","45","4","2022-11-17 12:19:10","fd252370c17a9971d68c1d4354a03c2e","","Mozilla/5.0 (Windows NT 10.0; Win64; x64) AppleWebKit/537.36 (KHTML, like Gecko) Chrome/106.0.0.0 Safari/537.36 Edg/106.0.1370.52","WebKit","Edge","106.0.1370.52","Windows","10.0","1392","n","","chocolate.jpg","4","Filler","true",""
"","","","","","fixation","52752","html-keyboard-response","95","203354","0.0-6.0-0.15","45","4","2022-11-17 12:19:10","fd252370c17a9971d68c1d4354a03c2e","","Mozilla/5.0 (Windows NT 10.0; Win64; x64) AppleWebKit/537.36 (KHTML, like Gecko) Chrome/106.0.0.0 Safari/537.36 Edg/106.0.1370.52","WebKit","Edge","106.0.1370.52","Windows","10.0","null","null","","<p style=""font-size: 48px;"">+</p>","4","Filler","",""
"","","","","","sentence","52752","html-keyboard-response","96","204454","0.0-6.0-1.15","45","4","2022-11-17 12:19:10","fd252370c17a9971d68c1d4354a03c2e","","Mozilla/5.0 (Windows NT 10.0; Win64; x64) AppleWebKit/537.36 (KHTML, like Gecko) Chrome/106.0.0.0 Safari/537.36 Edg/106.0.1370.52","WebKit","Edge","106.0.1370.52","Windows","10.0","1096"," ","","A butterfly is sitting on a flower","4","Filler","",""
"","","","","","fixation","52752","html-keyboard-response","97","204960","0.0-6.0-2.15","45","4","2022-11-17 12:19:10","fd252370c17a9971d68c1d4354a03c2e","","Mozilla/5.0 (Windows NT 10.0; Win64; x64) AppleWebKit/537.36 (KHTML, like Gecko) Chrome/106.0.0.0 Safari/537.36 Edg/106.0.1370.52","WebKit","Edge","106.0.1370.52","Windows","10.0","null","null","","<p style=""font-size: 48px;"">+</p>","4","Filler","",""
"","","","","","picture","52752","image-keyboard-response","98","205804","0.0-6.0-3.15","45","4","2022-11-17 12:19:10","fd252370c17a9971d68c1d4354a03c2e","","Mozilla/5.0 (Windows NT 10.0; Win64; x64) AppleWebKit/537.36 (KHTML, like Gecko) Chrome/106.0.0.0 Safari/537.36 Edg/106.0.1370.52","WebKit","Edge","106.0.1370.52","Windows","10.0","837","n","","soap.jpg","4","Filler","true",""
"","","","","","fixation","52752","html-keyboard-response","99","206810","0.0-6.0-0.16","45","4","2022-11-17 12:19:10","fd252370c17a9971d68c1d4354a03c2e","","Mozilla/5.0 (Windows NT 10.0; Win64; x64) AppleWebKit/537.36 (KHTML, like Gecko) Chrome/106.0.0.0 Safari/537.36 Edg/106.0.1370.52","WebKit","Edge","106.0.1370.52","Windows","10.0","null","null","","<p style=""font-size: 48px;"">+</p>","4","Light-Matched","",""
"","","","","","sentence","52752","html-keyboard-response","100","208505","0.0-6.0-1.16","45","4","2022-11-17 12:19:10","fd252370c17a9971d68c1d4354a03c2e","","Mozilla/5.0 (Windows NT 10.0; Win64; x64) AppleWebKit/537.36 (KHTML, like Gecko) Chrome/106.0.0.0 Safari/537.36 Edg/106.0.1370.52","WebKit","Edge","106.0.1370.52","Windows","10.0","1690"," ","","A balloon dropped and touched an iPAD","4","Light-Matched","",""
"","","","","","fixation","52752","html-keyboard-response","101","209011","0.0-6.0-2.16","45","4","2022-11-17 12:19:10","fd252370c17a9971d68c1d4354a03c2e","","Mozilla/5.0 (Windows NT 10.0; Win64; x64) AppleWebKit/537.36 (KHTML, like Gecko) Chrome/106.0.0.0 Safari/537.36 Edg/106.0.1370.52","WebKit","Edge","106.0.1370.52","Windows","10.0","null","null","","<p style=""font-size: 48px;"">+</p>","4","Light-Matched","",""
"","","","","","picture","52752","image-keyboard-response","102","210166","0.0-6.0-3.16","45","4","2022-11-17 12:19:10","fd252370c17a9971d68c1d4354a03c2e","","Mozilla/5.0 (Windows NT 10.0; Win64; x64) AppleWebKit/537.36 (KHTML, like Gecko) Chrome/106.0.0.0 Safari/537.36 Edg/106.0.1370.52","WebKit","Edge","106.0.1370.52","Windows","10.0","1149","s","","iPadS.jpg","4","Light-Matched","true",""
"","","","","","fixation","52752","html-keyboard-response","103","211169","0.0-6.0-0.17","45","4","2022-11-17 12:19:10","fd252370c17a9971d68c1d4354a03c2e","","Mozilla/5.0 (Windows NT 10.0; Win64; x64) AppleWebKit/537.36 (KHTML, like Gecko) Chrome/106.0.0.0 Safari/537.36 Edg/106.0.1370.52","WebKit","Edge","106.0.1370.52","Windows","10.0","null","null","","<p style=""font-size: 48px;"">+</p>","4","Heavy-Matched","",""
"","","","","","sentence","52752","html-keyboard-response","104","214324","0.0-6.0-1.17","45","4","2022-11-17 12:19:10","fd252370c17a9971d68c1d4354a03c2e","","Mozilla/5.0 (Windows NT 10.0; Win64; x64) AppleWebKit/537.36 (KHTML, like Gecko) Chrome/106.0.0.0 Safari/537.36 Edg/106.0.1370.52","WebKit","Edge","106.0.1370.52","Windows","10.0","3149"," ","","A bowling ball dropped and smashed a strawberry","4","Heavy-Matched","",""
"","","","","","fixation","52752","html-keyboard-response","105","214830","0.0-6.0-2.17","45","4","2022-11-17 12:19:10","fd252370c17a9971d68c1d4354a03c2e","","Mozilla/5.0 (Windows NT 10.0; Win64; x64) AppleWebKit/537.36 (KHTML, like Gecko) Chrome/106.0.0.0 Safari/537.36 Edg/106.0.1370.52","WebKit","Edge","106.0.1370.52","Windows","10.0","null","null","","<p style=""font-size: 48px;"">+</p>","4","Heavy-Matched","",""
"","","","","","picture","52752","image-keyboard-response","106","215734","0.0-6.0-3.17","45","4","2022-11-17 12:19:10","fd252370c17a9971d68c1d4354a03c2e","","Mozilla/5.0 (Windows NT 10.0; Win64; x64) AppleWebKit/537.36 (KHTML, like Gecko) Chrome/106.0.0.0 Safari/537.36 Edg/106.0.1370.52","WebKit","Edge","106.0.1370.52","Windows","10.0","898","s","","strawberryS.jpg","4","Heavy-Matched","true",""
"","","","","","fixation","52752","html-keyboard-response","107","216741","0.0-6.0-0.18","45","4","2022-11-17 12:19:10","fd252370c17a9971d68c1d4354a03c2e","","Mozilla/5.0 (Windows NT 10.0; Win64; x64) AppleWebKit/537.36 (KHTML, like Gecko) Chrome/106.0.0.0 Safari/537.36 Edg/106.0.1370.52","WebKit","Edge","106.0.1370.52","Windows","10.0","null","null","","<p style=""font-size: 48px;"">+</p>","4","Heavy-Contradictory","",""
"","","","","","sentence","52752","html-keyboard-response","108","219246","0.0-6.0-1.18","45","4","2022-11-17 12:19:10","fd252370c17a9971d68c1d4354a03c2e","","Mozilla/5.0 (Windows NT 10.0; Win64; x64) AppleWebKit/537.36 (KHTML, like Gecko) Chrome/106.0.0.0 Safari/537.36 Edg/106.0.1370.52","WebKit","Edge","106.0.1370.52","Windows","10.0","2499"," ","","A bowling ball dropped and touched a wineglass","4","Heavy-Contradictory","",""
"","","","","","fixation","52752","html-keyboard-response","109","219752","0.0-6.0-2.18","45","4","2022-11-17 12:19:10","fd252370c17a9971d68c1d4354a03c2e","","Mozilla/5.0 (Windows NT 10.0; Win64; x64) AppleWebKit/537.36 (KHTML, like Gecko) Chrome/106.0.0.0 Safari/537.36 Edg/106.0.1370.52","WebKit","Edge","106.0.1370.52","Windows","10.0","null","null","","<p style=""font-size: 48px;"">+</p>","4","Heavy-Contradictory","",""
"","","","","","picture","52752","image-keyboard-response","110","220948","0.0-6.0-3.18","45","4","2022-11-17 12:19:10","fd252370c17a9971d68c1d4354a03c2e","","Mozilla/5.0 (Windows NT 10.0; Win64; x64) AppleWebKit/537.36 (KHTML, like Gecko) Chrome/106.0.0.0 Safari/537.36 Edg/106.0.1370.52","WebKit","Edge","106.0.1370.52","Windows","10.0","1190","s","","wineglassS.jpg","4","Heavy-Contradictory","true",""
"","","","","","fixation","52752","html-keyboard-response","111","221952","0.0-6.0-0.19","45","4","2022-11-17 12:19:10","fd252370c17a9971d68c1d4354a03c2e","","Mozilla/5.0 (Windows NT 10.0; Win64; x64) AppleWebKit/537.36 (KHTML, like Gecko) Chrome/106.0.0.0 Safari/537.36 Edg/106.0.1370.52","WebKit","Edge","106.0.1370.52","Windows","10.0","null","null","","<p style=""font-size: 48px;"">+</p>","4","Filler","",""
"","","","","","sentence","52752","html-keyboard-response","112","222848","0.0-6.0-1.19","45","4","2022-11-17 12:19:10","fd252370c17a9971d68c1d4354a03c2e","","Mozilla/5.0 (Windows NT 10.0; Win64; x64) AppleWebKit/537.36 (KHTML, like Gecko) Chrome/106.0.0.0 Safari/537.36 Edg/106.0.1370.52","WebKit","Edge","106.0.1370.52","Windows","10.0","892"," ","","A watch was placed on the laptop","4","Filler","",""
"","","","","","fixation","52752","html-keyboard-response","113","223355","0.0-6.0-2.19","45","4","2022-11-17 12:19:10","fd252370c17a9971d68c1d4354a03c2e","","Mozilla/5.0 (Windows NT 10.0; Win64; x64) AppleWebKit/537.36 (KHTML, like Gecko) Chrome/106.0.0.0 Safari/537.36 Edg/106.0.1370.52","WebKit","Edge","106.0.1370.52","Windows","10.0","null","null","","<p style=""font-size: 48px;"">+</p>","4","Filler","",""
"","","","","","picture","52752","image-keyboard-response","114","224239","0.0-6.0-3.19","45","4","2022-11-17 12:19:10","fd252370c17a9971d68c1d4354a03c2e","","Mozilla/5.0 (Windows NT 10.0; Win64; x64) AppleWebKit/537.36 (KHTML, like Gecko) Chrome/106.0.0.0 Safari/537.36 Edg/106.0.1370.52","WebKit","Edge","106.0.1370.52","Windows","10.0","878","n","","bow.jpg","4","Filler","true",""
"","","","","","fixation","52752","html-keyboard-response","115","225244","0.0-6.0-0.20","45","4","2022-11-17 12:19:10","fd252370c17a9971d68c1d4354a03c2e","","Mozilla/5.0 (Windows NT 10.0; Win64; x64) AppleWebKit/537.36 (KHTML, like Gecko) Chrome/106.0.0.0 Safari/537.36 Edg/106.0.1370.52","WebKit","Edge","106.0.1370.52","Windows","10.0","null","null","","<p style=""font-size: 48px;"">+</p>","4","Filler","",""
"","","","","","sentence","52752","html-keyboard-response","116","226519","0.0-6.0-1.20","45","4","2022-11-17 12:19:10","fd252370c17a9971d68c1d4354a03c2e","","Mozilla/5.0 (Windows NT 10.0; Win64; x64) AppleWebKit/537.36 (KHTML, like Gecko) Chrome/106.0.0.0 Safari/537.36 Edg/106.0.1370.52","WebKit","Edge","106.0.1370.52","Windows","10.0","1269"," ","","A parrot is eating an apple","4","Filler","",""
"","","","","","fixation","52752","html-keyboard-response","117","227026","0.0-6.0-2.20","45","4","2022-11-17 12:19:10","fd252370c17a9971d68c1d4354a03c2e","","Mozilla/5.0 (Windows NT 10.0; Win64; x64) AppleWebKit/537.36 (KHTML, like Gecko) Chrome/106.0.0.0 Safari/537.36 Edg/106.0.1370.52","WebKit","Edge","106.0.1370.52","Windows","10.0","null","null","","<p style=""font-size: 48px;"">+</p>","4","Filler","",""
"","","","","","picture","52752","image-keyboard-response","118","227831","0.0-6.0-3.20","45","4","2022-11-17 12:19:10","fd252370c17a9971d68c1d4354a03c2e","","Mozilla/5.0 (Windows NT 10.0; Win64; x64) AppleWebKit/537.36 (KHTML, like Gecko) Chrome/106.0.0.0 Safari/537.36 Edg/106.0.1370.52","WebKit","Edge","106.0.1370.52","Windows","10.0","790","n","","shirt.jpg","4","Filler","true",""
"","","","","","fixation","52752","html-keyboard-response","119","228838","0.0-6.0-0.21","45","4","2022-11-17 12:19:10","fd252370c17a9971d68c1d4354a03c2e","","Mozilla/5.0 (Windows NT 10.0; Win64; x64) AppleWebKit/537.36 (KHTML, like Gecko) Chrome/106.0.0.0 Safari/537.36 Edg/106.0.1370.52","WebKit","Edge","106.0.1370.52","Windows","10.0","null","null","","<p style=""font-size: 48px;"">+</p>","4","Heavy-Contradictory","",""
"","","","","","sentence","52752","html-keyboard-response","120","230089","0.0-6.0-1.21","45","4","2022-11-17 12:19:10","fd252370c17a9971d68c1d4354a03c2e","","Mozilla/5.0 (Windows NT 10.0; Win64; x64) AppleWebKit/537.36 (KHTML, like Gecko) Chrome/106.0.0.0 Safari/537.36 Edg/106.0.1370.52","WebKit","Edge","106.0.1370.52","Windows","10.0","1247"," ","","A bowling ball dropped and touched an egg","4","Heavy-Contradictory","",""
"","","","","","fixation","52752","html-keyboard-response","121","230596","0.0-6.0-2.21","45","4","2022-11-17 12:19:10","fd252370c17a9971d68c1d4354a03c2e","","Mozilla/5.0 (Windows NT 10.0; Win64; x64) AppleWebKit/537.36 (KHTML, like Gecko) Chrome/106.0.0.0 Safari/537.36 Edg/106.0.1370.52","WebKit","Edge","106.0.1370.52","Windows","10.0","null","null","","<p style=""font-size: 48px;"">+</p>","4","Heavy-Contradictory","",""
"","","","","","picture","52752","image-keyboard-response","122","231599","0.0-6.0-3.21","45","4","2022-11-17 12:19:10","fd252370c17a9971d68c1d4354a03c2e","","Mozilla/5.0 (Windows NT 10.0; Win64; x64) AppleWebKit/537.36 (KHTML, like Gecko) Chrome/106.0.0.0 Safari/537.36 Edg/106.0.1370.52","WebKit","Edge","106.0.1370.52","Windows","10.0","997","s","","eggS.jpg","4","Heavy-Contradictory","true",""
"","","","","","fixation","52752","html-keyboard-response","123","232603","0.0-6.0-0.22","45","4","2022-11-17 12:19:10","fd252370c17a9971d68c1d4354a03c2e","","Mozilla/5.0 (Windows NT 10.0; Win64; x64) AppleWebKit/537.36 (KHTML, like Gecko) Chrome/106.0.0.0 Safari/537.36 Edg/106.0.1370.52","WebKit","Edge","106.0.1370.52","Windows","10.0","null","null","","<p style=""font-size: 48px;"">+</p>","4","Filler","",""
"","","","","","sentence","52752","html-keyboard-response","124","233599","0.0-6.0-1.22","45","4","2022-11-17 12:19:10","fd252370c17a9971d68c1d4354a03c2e","","Mozilla/5.0 (Windows NT 10.0; Win64; x64) AppleWebKit/537.36 (KHTML, like Gecko) Chrome/106.0.0.0 Safari/537.36 Edg/106.0.1370.52","WebKit","Edge","106.0.1370.52","Windows","10.0","990"," ","","A dentist is drinking a can of cola","4","Filler","",""
"","","","","","fixation","52752","html-keyboard-response","125","234105","0.0-6.0-2.22","45","4","2022-11-17 12:19:10","fd252370c17a9971d68c1d4354a03c2e","","Mozilla/5.0 (Windows NT 10.0; Win64; x64) AppleWebKit/537.36 (KHTML, like Gecko) Chrome/106.0.0.0 Safari/537.36 Edg/106.0.1370.52","WebKit","Edge","106.0.1370.52","Windows","10.0","null","null","","<p style=""font-size: 48px;"">+</p>","4","Filler","",""
"","","","","","picture","52752","image-keyboard-response","126","235138","0.0-6.0-3.22","45","4","2022-11-17 12:19:10","fd252370c17a9971d68c1d4354a03c2e","","Mozilla/5.0 (Windows NT 10.0; Win64; x64) AppleWebKit/537.36 (KHTML, like Gecko) Chrome/106.0.0.0 Safari/537.36 Edg/106.0.1370.52","WebKit","Edge","106.0.1370.52","Windows","10.0","1030","n","","doll.jpg","4","Filler","true",""
"","","","","","fixation","52752","html-keyboard-response","127","236152","0.0-6.0-0.23","45","4","2022-11-17 12:19:10","fd252370c17a9971d68c1d4354a03c2e","","Mozilla/5.0 (Windows NT 10.0; Win64; x64) AppleWebKit/537.36 (KHTML, like Gecko) Chrome/106.0.0.0 Safari/537.36 Edg/106.0.1370.52","WebKit","Edge","106.0.1370.52","Windows","10.0","null","null","","<p style=""font-size: 48px;"">+</p>","4","Filler","",""
"","","","","","sentence","52752","html-keyboard-response","128","239188","0.0-6.0-1.23","45","4","2022-11-17 12:19:10","fd252370c17a9971d68c1d4354a03c2e","","Mozilla/5.0 (Windows NT 10.0; Win64; x64) AppleWebKit/537.36 (KHTML, like Gecko) Chrome/106.0.0.0 Safari/537.36 Edg/106.0.1370.52","WebKit","Edge","106.0.1370.52","Windows","10.0","3030"," ","","A woman is taking money out of a wallet","4","Filler","",""
"","","","","","fixation","52752","html-keyboard-response","129","239694","0.0-6.0-2.23","45","4","2022-11-17 12:19:10","fd252370c17a9971d68c1d4354a03c2e","","Mozilla/5.0 (Windows NT 10.0; Win64; x64) AppleWebKit/537.36 (KHTML, like Gecko) Chrome/106.0.0.0 Safari/537.36 Edg/106.0.1370.52","WebKit","Edge","106.0.1370.52","Windows","10.0","null","null","","<p style=""font-size: 48px;"">+</p>","4","Filler","",""
"","","","","","picture","52752","image-keyboard-response","130","240524","0.0-6.0-3.23","45","4","2022-11-17 12:19:10","fd252370c17a9971d68c1d4354a03c2e","","Mozilla/5.0 (Windows NT 10.0; Win64; x64) AppleWebKit/537.36 (KHTML, like Gecko) Chrome/106.0.0.0 Safari/537.36 Edg/106.0.1370.52","WebKit","Edge","106.0.1370.52","Windows","10.0","824","n","","coconut.jpg","4","Filler","true",""
"","","","","","fixation","52752","html-keyboard-response","131","241528","0.0-6.0-0.24","45","4","2022-11-17 12:19:10","fd252370c17a9971d68c1d4354a03c2e","","Mozilla/5.0 (Windows NT 10.0; Win64; x64) AppleWebKit/537.36 (KHTML, like Gecko) Chrome/106.0.0.0 Safari/537.36 Edg/106.0.1370.52","WebKit","Edge","106.0.1370.52","Windows","10.0","null","null","","<p style=""font-size: 48px;"">+</p>","4","Filler","",""
"","","","","","sentence","52752","html-keyboard-response","132","242395","0.0-6.0-1.24","45","4","2022-11-17 12:19:10","fd252370c17a9971d68c1d4354a03c2e","","Mozilla/5.0 (Windows NT 10.0; Win64; x64) AppleWebKit/537.36 (KHTML, like Gecko) Chrome/106.0.0.0 Safari/537.36 Edg/106.0.1370.52","WebKit","Edge","106.0.1370.52","Windows","10.0","861"," ","","A keyboard was placed on the bed","4","Filler","",""
"","","","","","fixation","52752","html-keyboard-response","133","242902","0.0-6.0-2.24","45","4","2022-11-17 12:19:10","fd252370c17a9971d68c1d4354a03c2e","","Mozilla/5.0 (Windows NT 10.0; Win64; x64) AppleWebKit/537.36 (KHTML, like Gecko) Chrome/106.0.0.0 Safari/537.36 Edg/106.0.1370.52","WebKit","Edge","106.0.1370.52","Windows","10.0","null","null","","<p style=""font-size: 48px;"">+</p>","4","Filler","",""
"","","","","","picture","52752","image-keyboard-response","134","243704","0.0-6.0-3.24","45","4","2022-11-17 12:19:10","fd252370c17a9971d68c1d4354a03c2e","","Mozilla/5.0 (Windows NT 10.0; Win64; x64) AppleWebKit/537.36 (KHTML, like Gecko) Chrome/106.0.0.0 Safari/537.36 Edg/106.0.1370.52","WebKit","Edge","106.0.1370.52","Windows","10.0","796","n","","bottlecap.jpg","4","Filler","true",""
"","","","","","fixation","52752","html-keyboard-response","135","244708","0.0-6.0-0.25","45","4","2022-11-17 12:19:10","fd252370c17a9971d68c1d4354a03c2e","","Mozilla/5.0 (Windows NT 10.0; Win64; x64) AppleWebKit/537.36 (KHTML, like Gecko) Chrome/106.0.0.0 Safari/537.36 Edg/106.0.1370.52","WebKit","Edge","106.0.1370.52","Windows","10.0","null","null","","<p style=""font-size: 48px;"">+</p>","4","Filler","",""
"","","","","","sentence","52752","html-keyboard-response","136","245368","0.0-6.0-1.25","45","4","2022-11-17 12:19:10","fd252370c17a9971d68c1d4354a03c2e","","Mozilla/5.0 (Windows NT 10.0; Win64; x64) AppleWebKit/537.36 (KHTML, like Gecko) Chrome/106.0.0.0 Safari/537.36 Edg/106.0.1370.52","WebKit","Edge","106.0.1370.52","Windows","10.0","654"," ","","A cat is drinking water from a bowl","4","Filler","",""
"","","","","","fixation","52752","html-keyboard-response","137","245875","0.0-6.0-2.25","45","4","2022-11-17 12:19:10","fd252370c17a9971d68c1d4354a03c2e","","Mozilla/5.0 (Windows NT 10.0; Win64; x64) AppleWebKit/537.36 (KHTML, like Gecko) Chrome/106.0.0.0 Safari/537.36 Edg/106.0.1370.52","WebKit","Edge","106.0.1370.52","Windows","10.0","null","null","","<p style=""font-size: 48px;"">+</p>","4","Filler","",""
"","","","","","picture","52752","image-keyboard-response","138","246943","0.0-6.0-3.25","45","4","2022-11-17 12:19:10","fd252370c17a9971d68c1d4354a03c2e","","Mozilla/5.0 (Windows NT 10.0; Win64; x64) AppleWebKit/537.36 (KHTML, like Gecko) Chrome/106.0.0.0 Safari/537.36 Edg/106.0.1370.52","WebKit","Edge","106.0.1370.52","Windows","10.0","1064","s","","bowl.jpg","4","Filler","true",""
"","","","","","fixation","52752","html-keyboard-response","139","247947","0.0-6.0-0.26","45","4","2022-11-17 12:19:10","fd252370c17a9971d68c1d4354a03c2e","","Mozilla/5.0 (Windows NT 10.0; Win64; x64) AppleWebKit/537.36 (KHTML, like Gecko) Chrome/106.0.0.0 Safari/537.36 Edg/106.0.1370.52","WebKit","Edge","106.0.1370.52","Windows","10.0","null","null","","<p style=""font-size: 48px;"">+</p>","4","Filler","",""
"","","","","","sentence","52752","html-keyboard-response","140","249047","0.0-6.0-1.26","45","4","2022-11-17 12:19:10","fd252370c17a9971d68c1d4354a03c2e","","Mozilla/5.0 (Windows NT 10.0; Win64; x64) AppleWebKit/537.36 (KHTML, like Gecko) Chrome/106.0.0.0 Safari/537.36 Edg/106.0.1370.52","WebKit","Edge","106.0.1370.52","Windows","10.0","1097"," ","","A woman is paying with a debit card","4","Filler","",""
"","","","","","fixation","52752","html-keyboard-response","141","249551","0.0-6.0-2.26","45","4","2022-11-17 12:19:10","fd252370c17a9971d68c1d4354a03c2e","","Mozilla/5.0 (Windows NT 10.0; Win64; x64) AppleWebKit/537.36 (KHTML, like Gecko) Chrome/106.0.0.0 Safari/537.36 Edg/106.0.1370.52","WebKit","Edge","106.0.1370.52","Windows","10.0","null","null","","<p style=""font-size: 48px;"">+</p>","4","Filler","",""
"","","","","","picture","52752","image-keyboard-response","142","250402","0.0-6.0-3.26","45","4","2022-11-17 12:19:10","fd252370c17a9971d68c1d4354a03c2e","","Mozilla/5.0 (Windows NT 10.0; Win64; x64) AppleWebKit/537.36 (KHTML, like Gecko) Chrome/106.0.0.0 Safari/537.36 Edg/106.0.1370.52","WebKit","Edge","106.0.1370.52","Windows","10.0","845","n","","papercup.jpg","4","Filler","true",""
"","","","","","fixation","52752","html-keyboard-response","143","251409","0.0-6.0-0.27","45","4","2022-11-17 12:19:10","fd252370c17a9971d68c1d4354a03c2e","","Mozilla/5.0 (Windows NT 10.0; Win64; x64) AppleWebKit/537.36 (KHTML, like Gecko) Chrome/106.0.0.0 Safari/537.36 Edg/106.0.1370.52","WebKit","Edge","106.0.1370.52","Windows","10.0","null","null","","<p style=""font-size: 48px;"">+</p>","4","Heavy-Matched","",""
"","","","","","sentence","52752","html-keyboard-response","144","252704","0.0-6.0-1.27","45","4","2022-11-17 12:19:10","fd252370c17a9971d68c1d4354a03c2e","","Mozilla/5.0 (Windows NT 10.0; Win64; x64) AppleWebKit/537.36 (KHTML, like Gecko) Chrome/106.0.0.0 Safari/537.36 Edg/106.0.1370.52","WebKit","Edge","106.0.1370.52","Windows","10.0","1288"," ","","A bowling ball  dropped and smashed a ceramic plate","4","Heavy-Matched","",""
"","","","","","fixation","52752","html-keyboard-response","145","253209","0.0-6.0-2.27","45","4","2022-11-17 12:19:10","fd252370c17a9971d68c1d4354a03c2e","","Mozilla/5.0 (Windows NT 10.0; Win64; x64) AppleWebKit/537.36 (KHTML, like Gecko) Chrome/106.0.0.0 Safari/537.36 Edg/106.0.1370.52","WebKit","Edge","106.0.1370.52","Windows","10.0","null","null","","<p style=""font-size: 48px;"">+</p>","4","Heavy-Matched","",""
"","","","","","picture","52752","image-keyboard-response","146","254571","0.0-6.0-3.27","45","4","2022-11-17 12:19:10","fd252370c17a9971d68c1d4354a03c2e","","Mozilla/5.0 (Windows NT 10.0; Win64; x64) AppleWebKit/537.36 (KHTML, like Gecko) Chrome/106.0.0.0 Safari/537.36 Edg/106.0.1370.52","WebKit","Edge","106.0.1370.52","Windows","10.0","1356","s","","plateS.jpg","4","Heavy-Matched","true",""
"","","","","","fixation","52752","html-keyboard-response","147","255579","0.0-6.0-0.28","45","4","2022-11-17 12:19:10","fd252370c17a9971d68c1d4354a03c2e","","Mozilla/5.0 (Windows NT 10.0; Win64; x64) AppleWebKit/537.36 (KHTML, like Gecko) Chrome/106.0.0.0 Safari/537.36 Edg/106.0.1370.52","WebKit","Edge","106.0.1370.52","Windows","10.0","null","null","","<p style=""font-size: 48px;"">+</p>","4","Filler","",""
"","","","","","sentence","52752","html-keyboard-response","148","256114","0.0-6.0-1.28","45","4","2022-11-17 12:19:10","fd252370c17a9971d68c1d4354a03c2e","","Mozilla/5.0 (Windows NT 10.0; Win64; x64) AppleWebKit/537.36 (KHTML, like Gecko) Chrome/106.0.0.0 Safari/537.36 Edg/106.0.1370.52","WebKit","Edge","106.0.1370.52","Windows","10.0","529"," ","","A man is playing with a cat","4","Filler","",""
"","","","","","fixation","52752","html-keyboard-response","149","256622","0.0-6.0-2.28","45","4","2022-11-17 12:19:10","fd252370c17a9971d68c1d4354a03c2e","","Mozilla/5.0 (Windows NT 10.0; Win64; x64) AppleWebKit/537.36 (KHTML, like Gecko) Chrome/106.0.0.0 Safari/537.36 Edg/106.0.1370.52","WebKit","Edge","106.0.1370.52","Windows","10.0","null","null","","<p style=""font-size: 48px;"">+</p>","4","Filler","",""
"","","","","","picture","52752","image-keyboard-response","150","257400","0.0-6.0-3.28","45","4","2022-11-17 12:19:10","fd252370c17a9971d68c1d4354a03c2e","","Mozilla/5.0 (Windows NT 10.0; Win64; x64) AppleWebKit/537.36 (KHTML, like Gecko) Chrome/106.0.0.0 Safari/537.36 Edg/106.0.1370.52","WebKit","Edge","106.0.1370.52","Windows","10.0","769","n","","ceramicplate.jpg","4","Filler","true",""
"","","","","","fixation","52752","html-keyboard-response","151","258408","0.0-6.0-0.29","45","4","2022-11-17 12:19:10","fd252370c17a9971d68c1d4354a03c2e","","Mozilla/5.0 (Windows NT 10.0; Win64; x64) AppleWebKit/537.36 (KHTML, like Gecko) Chrome/106.0.0.0 Safari/537.36 Edg/106.0.1370.52","WebKit","Edge","106.0.1370.52","Windows","10.0","null","null","","<p style=""font-size: 48px;"">+</p>","4","Filler","",""
"","","","","","sentence","52752","html-keyboard-response","152","259217","0.0-6.0-1.29","45","4","2022-11-17 12:19:10","fd252370c17a9971d68c1d4354a03c2e","","Mozilla/5.0 (Windows NT 10.0; Win64; x64) AppleWebKit/537.36 (KHTML, like Gecko) Chrome/106.0.0.0 Safari/537.36 Edg/106.0.1370.52","WebKit","Edge","106.0.1370.52","Windows","10.0","803"," ","","A doctor is taking a stethoscope","4","Filler","",""
"","","","","","fixation","52752","html-keyboard-response","153","259725","0.0-6.0-2.29","45","4","2022-11-17 12:19:10","fd252370c17a9971d68c1d4354a03c2e","","Mozilla/5.0 (Windows NT 10.0; Win64; x64) AppleWebKit/537.36 (KHTML, like Gecko) Chrome/106.0.0.0 Safari/537.36 Edg/106.0.1370.52","WebKit","Edge","106.0.1370.52","Windows","10.0","null","null","","<p style=""font-size: 48px;"">+</p>","4","Filler","",""
"","","","","","picture","52752","image-keyboard-response","154","260974","0.0-6.0-3.29","45","4","2022-11-17 12:19:10","fd252370c17a9971d68c1d4354a03c2e","","Mozilla/5.0 (Windows NT 10.0; Win64; x64) AppleWebKit/537.36 (KHTML, like Gecko) Chrome/106.0.0.0 Safari/537.36 Edg/106.0.1370.52","WebKit","Edge","106.0.1370.52","Windows","10.0","1245","n","","matchesbox.jpg","4","Filler","true",""
"","","","","","fixation","52752","html-keyboard-response","155","261981","0.0-6.0-0.30","45","4","2022-11-17 12:19:10","fd252370c17a9971d68c1d4354a03c2e","","Mozilla/5.0 (Windows NT 10.0; Win64; x64) AppleWebKit/537.36 (KHTML, like Gecko) Chrome/106.0.0.0 Safari/537.36 Edg/106.0.1370.52","WebKit","Edge","106.0.1370.52","Windows","10.0","null","null","","<p style=""font-size: 48px;"">+</p>","4","Filler","",""
"","","","","","sentence","52752","html-keyboard-response","156","262986","0.0-6.0-1.30","45","4","2022-11-17 12:19:10","fd252370c17a9971d68c1d4354a03c2e","","Mozilla/5.0 (Windows NT 10.0; Win64; x64) AppleWebKit/537.36 (KHTML, like Gecko) Chrome/106.0.0.0 Safari/537.36 Edg/106.0.1370.52","WebKit","Edge","106.0.1370.52","Windows","10.0","999"," ","","A kitten is playing in the sandbox","4","Filler","",""
"","","","","","fixation","52752","html-keyboard-response","157","263494","0.0-6.0-2.30","45","4","2022-11-17 12:19:10","fd252370c17a9971d68c1d4354a03c2e","","Mozilla/5.0 (Windows NT 10.0; Win64; x64) AppleWebKit/537.36 (KHTML, like Gecko) Chrome/106.0.0.0 Safari/537.36 Edg/106.0.1370.52","WebKit","Edge","106.0.1370.52","Windows","10.0","null","null","","<p style=""font-size: 48px;"">+</p>","4","Filler","",""
"","","","","","picture","52752","image-keyboard-response","158","264403","0.0-6.0-3.30","45","4","2022-11-17 12:19:10","fd252370c17a9971d68c1d4354a03c2e","","Mozilla/5.0 (Windows NT 10.0; Win64; x64) AppleWebKit/537.36 (KHTML, like Gecko) Chrome/106.0.0.0 Safari/537.36 Edg/106.0.1370.52","WebKit","Edge","106.0.1370.52","Windows","10.0","901","n","","dustbin.jpg","4","Filler","true",""
"","","","","","fixation","52752","html-keyboard-response","159","265407","0.0-6.0-0.31","45","4","2022-11-17 12:19:10","fd252370c17a9971d68c1d4354a03c2e","","Mozilla/5.0 (Windows NT 10.0; Win64; x64) AppleWebKit/537.36 (KHTML, like Gecko) Chrome/106.0.0.0 Safari/537.36 Edg/106.0.1370.52","WebKit","Edge","106.0.1370.52","Windows","10.0","null","null","","<p style=""font-size: 48px;"">+</p>","4","Filler","",""
"","","","","","sentence","52752","html-keyboard-response","160","266185","0.0-6.0-1.31","45","4","2022-11-17 12:19:10","fd252370c17a9971d68c1d4354a03c2e","","Mozilla/5.0 (Windows NT 10.0; Win64; x64) AppleWebKit/537.36 (KHTML, like Gecko) Chrome/106.0.0.0 Safari/537.36 Edg/106.0.1370.52","WebKit","Edge","106.0.1370.52","Windows","10.0","770"," ","","A hairdresser is taking scissors","4","Filler","",""
"","","","","","fixation","52752","html-keyboard-response","161","266691","0.0-6.0-2.31","45","4","2022-11-17 12:19:10","fd252370c17a9971d68c1d4354a03c2e","","Mozilla/5.0 (Windows NT 10.0; Win64; x64) AppleWebKit/537.36 (KHTML, like Gecko) Chrome/106.0.0.0 Safari/537.36 Edg/106.0.1370.52","WebKit","Edge","106.0.1370.52","Windows","10.0","null","null","","<p style=""font-size: 48px;"">+</p>","4","Filler","",""
"","","","","","picture","52752","image-keyboard-response","162","267548","0.0-6.0-3.31","45","4","2022-11-17 12:19:10","fd252370c17a9971d68c1d4354a03c2e","","Mozilla/5.0 (Windows NT 10.0; Win64; x64) AppleWebKit/537.36 (KHTML, like Gecko) Chrome/106.0.0.0 Safari/537.36 Edg/106.0.1370.52","WebKit","Edge","106.0.1370.52","Windows","10.0","851","n","","sock.jpg","4","Filler","true",""
"","","","","","fixation","52752","html-keyboard-response","163","268555","0.0-6.0-0.32","45","4","2022-11-17 12:19:10","fd252370c17a9971d68c1d4354a03c2e","","Mozilla/5.0 (Windows NT 10.0; Win64; x64) AppleWebKit/537.36 (KHTML, like Gecko) Chrome/106.0.0.0 Safari/537.36 Edg/106.0.1370.52","WebKit","Edge","106.0.1370.52","Windows","10.0","null","null","","<p style=""font-size: 48px;"">+</p>","4","Heavy-Contradictory","",""
"","","","","","sentence","52752","html-keyboard-response","164","269671","0.0-6.0-1.32","45","4","2022-11-17 12:19:10","fd252370c17a9971d68c1d4354a03c2e","","Mozilla/5.0 (Windows NT 10.0; Win64; x64) AppleWebKit/537.36 (KHTML, like Gecko) Chrome/106.0.0.0 Safari/537.36 Edg/106.0.1370.52","WebKit","Edge","106.0.1370.52","Windows","10.0","1110"," ","","A bowling ball dropped and touched a piece of cake","4","Heavy-Contradictory","",""
"","","","","","fixation","52752","html-keyboard-response","165","270179","0.0-6.0-2.32","45","4","2022-11-17 12:19:10","fd252370c17a9971d68c1d4354a03c2e","","Mozilla/5.0 (Windows NT 10.0; Win64; x64) AppleWebKit/537.36 (KHTML, like Gecko) Chrome/106.0.0.0 Safari/537.36 Edg/106.0.1370.52","WebKit","Edge","106.0.1370.52","Windows","10.0","null","null","","<p style=""font-size: 48px;"">+</p>","4","Heavy-Contradictory","",""
"","","","","","picture","52752","image-keyboard-response","166","271490","0.0-6.0-3.32","45","4","2022-11-17 12:19:10","fd252370c17a9971d68c1d4354a03c2e","","Mozilla/5.0 (Windows NT 10.0; Win64; x64) AppleWebKit/537.36 (KHTML, like Gecko) Chrome/106.0.0.0 Safari/537.36 Edg/106.0.1370.52","WebKit","Edge","106.0.1370.52","Windows","10.0","1305","s","","cakeS.jpg","4","Heavy-Contradictory","true",""
"","","","","","fixation","52752","html-keyboard-response","167","272498","0.0-6.0-0.33","45","4","2022-11-17 12:19:10","fd252370c17a9971d68c1d4354a03c2e","","Mozilla/5.0 (Windows NT 10.0; Win64; x64) AppleWebKit/537.36 (KHTML, like Gecko) Chrome/106.0.0.0 Safari/537.36 Edg/106.0.1370.52","WebKit","Edge","106.0.1370.52","Windows","10.0","null","null","","<p style=""font-size: 48px;"">+</p>","4","Filler","",""
"","","","","","sentence","52752","html-keyboard-response","168","273145","0.0-6.0-1.33","45","4","2022-11-17 12:19:10","fd252370c17a9971d68c1d4354a03c2e","","Mozilla/5.0 (Windows NT 10.0; Win64; x64) AppleWebKit/537.36 (KHTML, like Gecko) Chrome/106.0.0.0 Safari/537.36 Edg/106.0.1370.52","WebKit","Edge","106.0.1370.52","Windows","10.0","643"," ","","A pilot is reading a book","4","Filler","",""
"","","","","","fixation","52752","html-keyboard-response","169","273652","0.0-6.0-2.33","45","4","2022-11-17 12:19:10","fd252370c17a9971d68c1d4354a03c2e","","Mozilla/5.0 (Windows NT 10.0; Win64; x64) AppleWebKit/537.36 (KHTML, like Gecko) Chrome/106.0.0.0 Safari/537.36 Edg/106.0.1370.52","WebKit","Edge","106.0.1370.52","Windows","10.0","null","null","","<p style=""font-size: 48px;"">+</p>","4","Filler","",""
"","","","","","picture","52752","image-keyboard-response","170","274402","0.0-6.0-3.33","45","4","2022-11-17 12:19:10","fd252370c17a9971d68c1d4354a03c2e","","Mozilla/5.0 (Windows NT 10.0; Win64; x64) AppleWebKit/537.36 (KHTML, like Gecko) Chrome/106.0.0.0 Safari/537.36 Edg/106.0.1370.52","WebKit","Edge","106.0.1370.52","Windows","10.0","743","n","","spoon.jpg","4","Filler","true",""
"","","","","","fixation","52752","html-keyboard-response","171","275407","0.0-6.0-0.34","45","4","2022-11-17 12:19:10","fd252370c17a9971d68c1d4354a03c2e","","Mozilla/5.0 (Windows NT 10.0; Win64; x64) AppleWebKit/537.36 (KHTML, like Gecko) Chrome/106.0.0.0 Safari/537.36 Edg/106.0.1370.52","WebKit","Edge","106.0.1370.52","Windows","10.0","null","null","","<p style=""font-size: 48px;"">+</p>","4","Light-Matched","",""
"","","","","","sentence","52752","html-keyboard-response","172","275999","0.0-6.0-1.34","45","4","2022-11-17 12:19:10","fd252370c17a9971d68c1d4354a03c2e","","Mozilla/5.0 (Windows NT 10.0; Win64; x64) AppleWebKit/537.36 (KHTML, like Gecko) Chrome/106.0.0.0 Safari/537.36 Edg/106.0.1370.52","WebKit","Edge","106.0.1370.52","Windows","10.0","585"," ","","A balloon dropped and touched an egg flan","4","Light-Matched","",""
"","","","","","fixation","52752","html-keyboard-response","173","276503","0.0-6.0-2.34","45","4","2022-11-17 12:19:10","fd252370c17a9971d68c1d4354a03c2e","","Mozilla/5.0 (Windows NT 10.0; Win64; x64) AppleWebKit/537.36 (KHTML, like Gecko) Chrome/106.0.0.0 Safari/537.36 Edg/106.0.1370.52","WebKit","Edge","106.0.1370.52","Windows","10.0","null","null","","<p style=""font-size: 48px;"">+</p>","4","Light-Matched","",""
"","","","","","picture","52752","image-keyboard-response","174","279223","0.0-6.0-3.34","45","4","2022-11-17 12:19:10","fd252370c17a9971d68c1d4354a03c2e","","Mozilla/5.0 (Windows NT 10.0; Win64; x64) AppleWebKit/537.36 (KHTML, like Gecko) Chrome/106.0.0.0 Safari/537.36 Edg/106.0.1370.52","WebKit","Edge","106.0.1370.52","Windows","10.0","2712","s","","eggflanS.jpg","4","Light-Matched","true",""
"","","","","","fixation","52752","html-keyboard-response","175","280230","0.0-6.0-0.35","45","4","2022-11-17 12:19:10","fd252370c17a9971d68c1d4354a03c2e","","Mozilla/5.0 (Windows NT 10.0; Win64; x64) AppleWebKit/537.36 (KHTML, like Gecko) Chrome/106.0.0.0 Safari/537.36 Edg/106.0.1370.52","WebKit","Edge","106.0.1370.52","Windows","10.0","null","null","","<p style=""font-size: 48px;"">+</p>","4","Light-Contradictory","",""
"","","","","","sentence","52752","html-keyboard-response","176","281287","0.0-6.0-1.35","45","4","2022-11-17 12:19:10","fd252370c17a9971d68c1d4354a03c2e","","Mozilla/5.0 (Windows NT 10.0; Win64; x64) AppleWebKit/537.36 (KHTML, like Gecko) Chrome/106.0.0.0 Safari/537.36 Edg/106.0.1370.52","WebKit","Edge","106.0.1370.52","Windows","10.0","1046"," ","","A balloon dropped and smashed an iPhone","4","Light-Contradictory","",""
"","","","","","fixation","52752","html-keyboard-response","177","281794","0.0-6.0-2.35","45","4","2022-11-17 12:19:10","fd252370c17a9971d68c1d4354a03c2e","","Mozilla/5.0 (Windows NT 10.0; Win64; x64) AppleWebKit/537.36 (KHTML, like Gecko) Chrome/106.0.0.0 Safari/537.36 Edg/106.0.1370.52","WebKit","Edge","106.0.1370.52","Windows","10.0","null","null","","<p style=""font-size: 48px;"">+</p>","4","Light-Contradictory","",""
"","","","","","picture","52752","image-keyboard-response","178","282444","0.0-6.0-3.35","45","4","2022-11-17 12:19:10","fd252370c17a9971d68c1d4354a03c2e","","Mozilla/5.0 (Windows NT 10.0; Win64; x64) AppleWebKit/537.36 (KHTML, like Gecko) Chrome/106.0.0.0 Safari/537.36 Edg/106.0.1370.52","WebKit","Edge","106.0.1370.52","Windows","10.0","646","s","","iphoneS.png","4","Light-Contradictory","true",""
"","","","","","fixation","52752","html-keyboard-response","179","283451","0.0-6.0-0.36","45","4","2022-11-17 12:19:10","fd252370c17a9971d68c1d4354a03c2e","","Mozilla/5.0 (Windows NT 10.0; Win64; x64) AppleWebKit/537.36 (KHTML, like Gecko) Chrome/106.0.0.0 Safari/537.36 Edg/106.0.1370.52","WebKit","Edge","106.0.1370.52","Windows","10.0","null","null","","<p style=""font-size: 48px;"">+</p>","4","Heavy-Matched","",""
"","","","","","sentence","52752","html-keyboard-response","180","286202","0.0-6.0-1.36","45","4","2022-11-17 12:19:10","fd252370c17a9971d68c1d4354a03c2e","","Mozilla/5.0 (Windows NT 10.0; Win64; x64) AppleWebKit/537.36 (KHTML, like Gecko) Chrome/106.0.0.0 Safari/537.36 Edg/106.0.1370.52","WebKit","Edge","106.0.1370.52","Windows","10.0","2746"," ","","A bowling ball  dropped and smashed a tomato","4","Heavy-Matched","",""
"","","","","","fixation","52752","html-keyboard-response","181","286710","0.0-6.0-2.36","45","4","2022-11-17 12:19:10","fd252370c17a9971d68c1d4354a03c2e","","Mozilla/5.0 (Windows NT 10.0; Win64; x64) AppleWebKit/537.36 (KHTML, like Gecko) Chrome/106.0.0.0 Safari/537.36 Edg/106.0.1370.52","WebKit","Edge","106.0.1370.52","Windows","10.0","null","null","","<p style=""font-size: 48px;"">+</p>","4","Heavy-Matched","",""
"","","","","","picture","52752","image-keyboard-response","182","288178","0.0-6.0-3.36","45","4","2022-11-17 12:19:10","fd252370c17a9971d68c1d4354a03c2e","","Mozilla/5.0 (Windows NT 10.0; Win64; x64) AppleWebKit/537.36 (KHTML, like Gecko) Chrome/106.0.0.0 Safari/537.36 Edg/106.0.1370.52","WebKit","Edge","106.0.1370.52","Windows","10.0","1460","s","","tomatoS.jpg","4","Heavy-Matched","true",""
"","","","","","fixation","52752","html-keyboard-response","183","289183","0.0-6.0-0.37","45","4","2022-11-17 12:19:10","fd252370c17a9971d68c1d4354a03c2e","","Mozilla/5.0 (Windows NT 10.0; Win64; x64) AppleWebKit/537.36 (KHTML, like Gecko) Chrome/106.0.0.0 Safari/537.36 Edg/106.0.1370.52","WebKit","Edge","106.0.1370.52","Windows","10.0","null","null","","<p style=""font-size: 48px;"">+</p>","4","Heavy-Matched","",""
"","","","","","sentence","52752","html-keyboard-response","184","290344","0.0-6.0-1.37","45","4","2022-11-17 12:19:10","fd252370c17a9971d68c1d4354a03c2e","","Mozilla/5.0 (Windows NT 10.0; Win64; x64) AppleWebKit/537.36 (KHTML, like Gecko) Chrome/106.0.0.0 Safari/537.36 Edg/106.0.1370.52","WebKit","Edge","106.0.1370.52","Windows","10.0","1154"," ","","A bowling ball dropped and smashed a tile","4","Heavy-Matched","",""
"","","","","","fixation","52752","html-keyboard-response","185","290854","0.0-6.0-2.37","45","4","2022-11-17 12:19:10","fd252370c17a9971d68c1d4354a03c2e","","Mozilla/5.0 (Windows NT 10.0; Win64; x64) AppleWebKit/537.36 (KHTML, like Gecko) Chrome/106.0.0.0 Safari/537.36 Edg/106.0.1370.52","WebKit","Edge","106.0.1370.52","Windows","10.0","null","null","","<p style=""font-size: 48px;"">+</p>","4","Heavy-Matched","",""
"","","","","","picture","52752","image-keyboard-response","186","291682","0.0-6.0-3.37","45","4","2022-11-17 12:19:10","fd252370c17a9971d68c1d4354a03c2e","","Mozilla/5.0 (Windows NT 10.0; Win64; x64) AppleWebKit/537.36 (KHTML, like Gecko) Chrome/106.0.0.0 Safari/537.36 Edg/106.0.1370.52","WebKit","Edge","106.0.1370.52","Windows","10.0","819","s","","tileS.jpg","4","Heavy-Matched","true",""
"","","","","","fixation","52752","html-keyboard-response","187","292689","0.0-6.0-0.38","45","4","2022-11-17 12:19:10","fd252370c17a9971d68c1d4354a03c2e","","Mozilla/5.0 (Windows NT 10.0; Win64; x64) AppleWebKit/537.36 (KHTML, like Gecko) Chrome/106.0.0.0 Safari/537.36 Edg/106.0.1370.52","WebKit","Edge","106.0.1370.52","Windows","10.0","null","null","","<p style=""font-size: 48px;"">+</p>","4","Filler","",""
"","","","","","sentence","52752","html-keyboard-response","188","293593","0.0-6.0-1.38","45","4","2022-11-17 12:19:10","fd252370c17a9971d68c1d4354a03c2e","","Mozilla/5.0 (Windows NT 10.0; Win64; x64) AppleWebKit/537.36 (KHTML, like Gecko) Chrome/106.0.0.0 Safari/537.36 Edg/106.0.1370.52","WebKit","Edge","106.0.1370.52","Windows","10.0","898"," ","","A musician is playing a guitar","4","Filler","",""
"","","","","","fixation","52752","html-keyboard-response","189","294100","0.0-6.0-2.38","45","4","2022-11-17 12:19:10","fd252370c17a9971d68c1d4354a03c2e","","Mozilla/5.0 (Windows NT 10.0; Win64; x64) AppleWebKit/537.36 (KHTML, like Gecko) Chrome/106.0.0.0 Safari/537.36 Edg/106.0.1370.52","WebKit","Edge","106.0.1370.52","Windows","10.0","null","null","","<p style=""font-size: 48px;"">+</p>","4","Filler","",""
"","","","","","picture","52752","image-keyboard-response","190","294897","0.0-6.0-3.38","45","4","2022-11-17 12:19:10","fd252370c17a9971d68c1d4354a03c2e","","Mozilla/5.0 (Windows NT 10.0; Win64; x64) AppleWebKit/537.36 (KHTML, like Gecko) Chrome/106.0.0.0 Safari/537.36 Edg/106.0.1370.52","WebKit","Edge","106.0.1370.52","Windows","10.0","788","s","","guitar.jpg","4","Filler","true",""
"","","","","","fixation","52752","html-keyboard-response","191","295906","0.0-6.0-0.39","45","4","2022-11-17 12:19:10","fd252370c17a9971d68c1d4354a03c2e","","Mozilla/5.0 (Windows NT 10.0; Win64; x64) AppleWebKit/537.36 (KHTML, like Gecko) Chrome/106.0.0.0 Safari/537.36 Edg/106.0.1370.52","WebKit","Edge","106.0.1370.52","Windows","10.0","null","null","","<p style=""font-size: 48px;"">+</p>","4","Light-Contradictory","",""
"","","","","","sentence","52752","html-keyboard-response","192","297214","0.0-6.0-1.39","45","4","2022-11-17 12:19:10","fd252370c17a9971d68c1d4354a03c2e","","Mozilla/5.0 (Windows NT 10.0; Win64; x64) AppleWebKit/537.36 (KHTML, like Gecko) Chrome/106.0.0.0 Safari/537.36 Edg/106.0.1370.52","WebKit","Edge","106.0.1370.52","Windows","10.0","1301"," ","","A balloon dropped and smashed a chocolate muffin","4","Light-Contradictory","",""
"","","","","","fixation","52752","html-keyboard-response","193","297721","0.0-6.0-2.39","45","4","2022-11-17 12:19:10","fd252370c17a9971d68c1d4354a03c2e","","Mozilla/5.0 (Windows NT 10.0; Win64; x64) AppleWebKit/537.36 (KHTML, like Gecko) Chrome/106.0.0.0 Safari/537.36 Edg/106.0.1370.52","WebKit","Edge","106.0.1370.52","Windows","10.0","null","null","","<p style=""font-size: 48px;"">+</p>","4","Light-Contradictory","",""
"","","","","","picture","52752","image-keyboard-response","194","298375","0.0-6.0-3.39","45","4","2022-11-17 12:19:10","fd252370c17a9971d68c1d4354a03c2e","","Mozilla/5.0 (Windows NT 10.0; Win64; x64) AppleWebKit/537.36 (KHTML, like Gecko) Chrome/106.0.0.0 Safari/537.36 Edg/106.0.1370.52","WebKit","Edge","106.0.1370.52","Windows","10.0","648","s","","muffinS.jpg","4","Light-Contradictory","true",""
"","","","","","fixation","52752","html-keyboard-response","195","299384","0.0-6.0-0.40","45","4","2022-11-17 12:19:10","fd252370c17a9971d68c1d4354a03c2e","","Mozilla/5.0 (Windows NT 10.0; Win64; x64) AppleWebKit/537.36 (KHTML, like Gecko) Chrome/106.0.0.0 Safari/537.36 Edg/106.0.1370.52","WebKit","Edge","106.0.1370.52","Windows","10.0","null","null","","<p style=""font-size: 48px;"">+</p>","4","Heavy-Contradictory","",""
"","","","","","sentence","52752","html-keyboard-response","196","301535","0.0-6.0-1.40","45","4","2022-11-17 12:19:10","fd252370c17a9971d68c1d4354a03c2e","","Mozilla/5.0 (Windows NT 10.0; Win64; x64) AppleWebKit/537.36 (KHTML, like Gecko) Chrome/106.0.0.0 Safari/537.36 Edg/106.0.1370.52","WebKit","Edge","106.0.1370.52","Windows","10.0","2144"," ","","A bowling ball dropped and touched a porcelain figure","4","Heavy-Contradictory","",""
"","","","","","fixation","52752","html-keyboard-response","197","302043","0.0-6.0-2.40","45","4","2022-11-17 12:19:10","fd252370c17a9971d68c1d4354a03c2e","","Mozilla/5.0 (Windows NT 10.0; Win64; x64) AppleWebKit/537.36 (KHTML, like Gecko) Chrome/106.0.0.0 Safari/537.36 Edg/106.0.1370.52","WebKit","Edge","106.0.1370.52","Windows","10.0","null","null","","<p style=""font-size: 48px;"">+</p>","4","Heavy-Contradictory","",""
"","","","","","picture","52752","image-keyboard-response","198","303118","0.0-6.0-3.40","45","4","2022-11-17 12:19:10","fd252370c17a9971d68c1d4354a03c2e","","Mozilla/5.0 (Windows NT 10.0; Win64; x64) AppleWebKit/537.36 (KHTML, like Gecko) Chrome/106.0.0.0 Safari/537.36 Edg/106.0.1370.52","WebKit","Edge","106.0.1370.52","Windows","10.0","1067","s","","figureS.jpg","4","Heavy-Contradictory","true",""
"","","","","","fixation","52752","html-keyboard-response","199","304122","0.0-6.0-0.41","45","4","2022-11-17 12:19:10","fd252370c17a9971d68c1d4354a03c2e","","Mozilla/5.0 (Windows NT 10.0; Win64; x64) AppleWebKit/537.36 (KHTML, like Gecko) Chrome/106.0.0.0 Safari/537.36 Edg/106.0.1370.52","WebKit","Edge","106.0.1370.52","Windows","10.0","null","null","","<p style=""font-size: 48px;"">+</p>","4","Filler","",""
"","","","","","sentence","52752","html-keyboard-response","200","304926","0.0-6.0-1.41","45","4","2022-11-17 12:19:10","fd252370c17a9971d68c1d4354a03c2e","","Mozilla/5.0 (Windows NT 10.0; Win64; x64) AppleWebKit/537.36 (KHTML, like Gecko) Chrome/106.0.0.0 Safari/537.36 Edg/106.0.1370.52","WebKit","Edge","106.0.1370.52","Windows","10.0","795"," ","","A teenage girl is playing the piano","4","Filler","",""
"","","","","","fixation","52752","html-keyboard-response","201","305433","0.0-6.0-2.41","45","4","2022-11-17 12:19:10","fd252370c17a9971d68c1d4354a03c2e","","Mozilla/5.0 (Windows NT 10.0; Win64; x64) AppleWebKit/537.36 (KHTML, like Gecko) Chrome/106.0.0.0 Safari/537.36 Edg/106.0.1370.52","WebKit","Edge","106.0.1370.52","Windows","10.0","null","null","","<p style=""font-size: 48px;"">+</p>","4","Filler","",""
"","","","","","picture","52752","image-keyboard-response","202","306308","0.0-6.0-3.41","45","4","2022-11-17 12:19:10","fd252370c17a9971d68c1d4354a03c2e","","Mozilla/5.0 (Windows NT 10.0; Win64; x64) AppleWebKit/537.36 (KHTML, like Gecko) Chrome/106.0.0.0 Safari/537.36 Edg/106.0.1370.52","WebKit","Edge","106.0.1370.52","Windows","10.0","868","n","","pillow.jpg","4","Filler","true",""
"","","","","","fixation","52752","html-keyboard-response","203","307313","0.0-6.0-0.42","45","4","2022-11-17 12:19:10","fd252370c17a9971d68c1d4354a03c2e","","Mozilla/5.0 (Windows NT 10.0; Win64; x64) AppleWebKit/537.36 (KHTML, like Gecko) Chrome/106.0.0.0 Safari/537.36 Edg/106.0.1370.52","WebKit","Edge","106.0.1370.52","Windows","10.0","null","null","","<p style=""font-size: 48px;"">+</p>","4","Light-Contradictory","",""
"","","","","","sentence","52752","html-keyboard-response","204","308205","0.0-6.0-1.42","45","4","2022-11-17 12:19:10","fd252370c17a9971d68c1d4354a03c2e","","Mozilla/5.0 (Windows NT 10.0; Win64; x64) AppleWebKit/537.36 (KHTML, like Gecko) Chrome/106.0.0.0 Safari/537.36 Edg/106.0.1370.52","WebKit","Edge","106.0.1370.52","Windows","10.0","886"," ","","A balloon dropped and smashed a light bulb","4","Light-Contradictory","",""
"","","","","","fixation","52752","html-keyboard-response","205","308714","0.0-6.0-2.42","45","4","2022-11-17 12:19:10","fd252370c17a9971d68c1d4354a03c2e","","Mozilla/5.0 (Windows NT 10.0; Win64; x64) AppleWebKit/537.36 (KHTML, like Gecko) Chrome/106.0.0.0 Safari/537.36 Edg/106.0.1370.52","WebKit","Edge","106.0.1370.52","Windows","10.0","null","null","","<p style=""font-size: 48px;"">+</p>","4","Light-Contradictory","",""
"","","","","","picture","52752","image-keyboard-response","206","309562","0.0-6.0-3.42","45","4","2022-11-17 12:19:10","fd252370c17a9971d68c1d4354a03c2e","","Mozilla/5.0 (Windows NT 10.0; Win64; x64) AppleWebKit/537.36 (KHTML, like Gecko) Chrome/106.0.0.0 Safari/537.36 Edg/106.0.1370.52","WebKit","Edge","106.0.1370.52","Windows","10.0","839","s","","lampS.jpg","4","Light-Contradictory","true",""
"","","","","","fixation","52752","html-keyboard-response","207","310570","0.0-6.0-0.43","45","4","2022-11-17 12:19:10","fd252370c17a9971d68c1d4354a03c2e","","Mozilla/5.0 (Windows NT 10.0; Win64; x64) AppleWebKit/537.36 (KHTML, like Gecko) Chrome/106.0.0.0 Safari/537.36 Edg/106.0.1370.52","WebKit","Edge","106.0.1370.52","Windows","10.0","null","null","","<p style=""font-size: 48px;"">+</p>","4","Heavy-Contradictory","",""
"","","","","","sentence","52752","html-keyboard-response","208","312558","0.0-6.0-1.43","45","4","2022-11-17 12:19:10","fd252370c17a9971d68c1d4354a03c2e","","Mozilla/5.0 (Windows NT 10.0; Win64; x64) AppleWebKit/537.36 (KHTML, like Gecko) Chrome/106.0.0.0 Safari/537.36 Edg/106.0.1370.52","WebKit","Edge","106.0.1370.52","Windows","10.0","1983"," ","","A bowling ball dropped and touched a TV","4","Heavy-Contradictory","",""
"","","","","","fixation","52752","html-keyboard-response","209","313064","0.0-6.0-2.43","45","4","2022-11-17 12:19:10","fd252370c17a9971d68c1d4354a03c2e","","Mozilla/5.0 (Windows NT 10.0; Win64; x64) AppleWebKit/537.36 (KHTML, like Gecko) Chrome/106.0.0.0 Safari/537.36 Edg/106.0.1370.52","WebKit","Edge","106.0.1370.52","Windows","10.0","null","null","","<p style=""font-size: 48px;"">+</p>","4","Heavy-Contradictory","",""
"","","","","","picture","52752","image-keyboard-response","210","313918","0.0-6.0-3.43","45","4","2022-11-17 12:19:10","fd252370c17a9971d68c1d4354a03c2e","","Mozilla/5.0 (Windows NT 10.0; Win64; x64) AppleWebKit/537.36 (KHTML, like Gecko) Chrome/106.0.0.0 Safari/537.36 Edg/106.0.1370.52","WebKit","Edge","106.0.1370.52","Windows","10.0","846","s","","tvS.jpg","4","Heavy-Contradictory","true",""
"","","","","","fixation","52752","html-keyboard-response","211","314926","0.0-6.0-0.44","45","4","2022-11-17 12:19:10","fd252370c17a9971d68c1d4354a03c2e","","Mozilla/5.0 (Windows NT 10.0; Win64; x64) AppleWebKit/537.36 (KHTML, like Gecko) Chrome/106.0.0.0 Safari/537.36 Edg/106.0.1370.52","WebKit","Edge","106.0.1370.52","Windows","10.0","null","null","","<p style=""font-size: 48px;"">+</p>","4","Heavy-Contradictory","",""
"","","","","","sentence","52752","html-keyboard-response","212","315951","0.0-6.0-1.44","45","4","2022-11-17 12:19:10","fd252370c17a9971d68c1d4354a03c2e","","Mozilla/5.0 (Windows NT 10.0; Win64; x64) AppleWebKit/537.36 (KHTML, like Gecko) Chrome/106.0.0.0 Safari/537.36 Edg/106.0.1370.52","WebKit","Edge","106.0.1370.52","Windows","10.0","1016"," ","","A bowling ball dropped and touched a cracker","4","Heavy-Contradictory","",""
"","","","","","fixation","52752","html-keyboard-response","213","316460","0.0-6.0-2.44","45","4","2022-11-17 12:19:10","fd252370c17a9971d68c1d4354a03c2e","","Mozilla/5.0 (Windows NT 10.0; Win64; x64) AppleWebKit/537.36 (KHTML, like Gecko) Chrome/106.0.0.0 Safari/537.36 Edg/106.0.1370.52","WebKit","Edge","106.0.1370.52","Windows","10.0","null","null","","<p style=""font-size: 48px;"">+</p>","4","Heavy-Contradictory","",""
"","","","","","picture","52752","image-keyboard-response","214","317381","0.0-6.0-3.44","45","4","2022-11-17 12:19:10","fd252370c17a9971d68c1d4354a03c2e","","Mozilla/5.0 (Windows NT 10.0; Win64; x64) AppleWebKit/537.36 (KHTML, like Gecko) Chrome/106.0.0.0 Safari/537.36 Edg/106.0.1370.52","WebKit","Edge","106.0.1370.52","Windows","10.0","912","s","","crackerS.jpg","4","Heavy-Contradictory","true",""
"","","","","","fixation","52752","html-keyboard-response","215","318387","0.0-6.0-0.45","45","4","2022-11-17 12:19:10","fd252370c17a9971d68c1d4354a03c2e","","Mozilla/5.0 (Windows NT 10.0; Win64; x64) AppleWebKit/537.36 (KHTML, like Gecko) Chrome/106.0.0.0 Safari/537.36 Edg/106.0.1370.52","WebKit","Edge","106.0.1370.52","Windows","10.0","null","null","","<p style=""font-size: 48px;"">+</p>","4","Filler","",""
"","","","","","sentence","52752","html-keyboard-response","216","319231","0.0-6.0-1.45","45","4","2022-11-17 12:19:10","fd252370c17a9971d68c1d4354a03c2e","","Mozilla/5.0 (Windows NT 10.0; Win64; x64) AppleWebKit/537.36 (KHTML, like Gecko) Chrome/106.0.0.0 Safari/537.36 Edg/106.0.1370.52","WebKit","Edge","106.0.1370.52","Windows","10.0","834"," ","","A student is writing on a board","4","Filler","",""
"","","","","","fixation","52752","html-keyboard-response","217","319740","0.0-6.0-2.45","45","4","2022-11-17 12:19:10","fd252370c17a9971d68c1d4354a03c2e","","Mozilla/5.0 (Windows NT 10.0; Win64; x64) AppleWebKit/537.36 (KHTML, like Gecko) Chrome/106.0.0.0 Safari/537.36 Edg/106.0.1370.52","WebKit","Edge","106.0.1370.52","Windows","10.0","null","null","","<p style=""font-size: 48px;"">+</p>","4","Filler","",""
"","","","","","picture","52752","image-keyboard-response","218","320969","0.0-6.0-3.45","45","4","2022-11-17 12:19:10","fd252370c17a9971d68c1d4354a03c2e","","Mozilla/5.0 (Windows NT 10.0; Win64; x64) AppleWebKit/537.36 (KHTML, like Gecko) Chrome/106.0.0.0 Safari/537.36 Edg/106.0.1370.52","WebKit","Edge","106.0.1370.52","Windows","10.0","1221","n","","owl.jpg","4","Filler","true",""
"","","","","","fixation","52752","html-keyboard-response","219","321977","0.0-6.0-0.46","45","4","2022-11-17 12:19:10","fd252370c17a9971d68c1d4354a03c2e","","Mozilla/5.0 (Windows NT 10.0; Win64; x64) AppleWebKit/537.36 (KHTML, like Gecko) Chrome/106.0.0.0 Safari/537.36 Edg/106.0.1370.52","WebKit","Edge","106.0.1370.52","Windows","10.0","null","null","","<p style=""font-size: 48px;"">+</p>","4","Heavy-Matched","",""
"","","","","","sentence","52752","html-keyboard-response","220","323436","0.0-6.0-1.46","45","4","2022-11-17 12:19:10","fd252370c17a9971d68c1d4354a03c2e","","Mozilla/5.0 (Windows NT 10.0; Win64; x64) AppleWebKit/537.36 (KHTML, like Gecko) Chrome/106.0.0.0 Safari/537.36 Edg/106.0.1370.52","WebKit","Edge","106.0.1370.52","Windows","10.0","1452"," ","","A bowling ball dropped and smashed a piece of sushi","4","Heavy-Matched","",""
"","","","","","fixation","52752","html-keyboard-response","221","323945","0.0-6.0-2.46","45","4","2022-11-17 12:19:10","fd252370c17a9971d68c1d4354a03c2e","","Mozilla/5.0 (Windows NT 10.0; Win64; x64) AppleWebKit/537.36 (KHTML, like Gecko) Chrome/106.0.0.0 Safari/537.36 Edg/106.0.1370.52","WebKit","Edge","106.0.1370.52","Windows","10.0","null","null","","<p style=""font-size: 48px;"">+</p>","4","Heavy-Matched","",""
"","","","","","picture","52752","image-keyboard-response","222","324610","0.0-6.0-3.46","45","4","2022-11-17 12:19:10","fd252370c17a9971d68c1d4354a03c2e","","Mozilla/5.0 (Windows NT 10.0; Win64; x64) AppleWebKit/537.36 (KHTML, like Gecko) Chrome/106.0.0.0 Safari/537.36 Edg/106.0.1370.52","WebKit","Edge","106.0.1370.52","Windows","10.0","657","s","","sushiS.jpg","4","Heavy-Matched","true",""
"","","","","","fixation","52752","html-keyboard-response","223","325615","0.0-6.0-0.47","45","4","2022-11-17 12:19:10","fd252370c17a9971d68c1d4354a03c2e","","Mozilla/5.0 (Windows NT 10.0; Win64; x64) AppleWebKit/537.36 (KHTML, like Gecko) Chrome/106.0.0.0 Safari/537.36 Edg/106.0.1370.52","WebKit","Edge","106.0.1370.52","Windows","10.0","null","null","","<p style=""font-size: 48px;"">+</p>","4","Filler","",""
"","","","","","sentence","52752","html-keyboard-response","224","326392","0.0-6.0-1.47","45","4","2022-11-17 12:19:10","fd252370c17a9971d68c1d4354a03c2e","","Mozilla/5.0 (Windows NT 10.0; Win64; x64) AppleWebKit/537.36 (KHTML, like Gecko) Chrome/106.0.0.0 Safari/537.36 Edg/106.0.1370.52","WebKit","Edge","106.0.1370.52","Windows","10.0","772"," ","","A man is shaving his beard","4","Filler","",""
"","","","","","fixation","52752","html-keyboard-response","225","326900","0.0-6.0-2.47","45","4","2022-11-17 12:19:10","fd252370c17a9971d68c1d4354a03c2e","","Mozilla/5.0 (Windows NT 10.0; Win64; x64) AppleWebKit/537.36 (KHTML, like Gecko) Chrome/106.0.0.0 Safari/537.36 Edg/106.0.1370.52","WebKit","Edge","106.0.1370.52","Windows","10.0","null","null","","<p style=""font-size: 48px;"">+</p>","4","Filler","",""
"","","","","","picture","52752","image-keyboard-response","226","327791","0.0-6.0-3.47","45","4","2022-11-17 12:19:10","fd252370c17a9971d68c1d4354a03c2e","","Mozilla/5.0 (Windows NT 10.0; Win64; x64) AppleWebKit/537.36 (KHTML, like Gecko) Chrome/106.0.0.0 Safari/537.36 Edg/106.0.1370.52","WebKit","Edge","106.0.1370.52","Windows","10.0","881","n","","clock.jpg","4","Filler","true",""
"","","","","","fixation","52752","html-keyboard-response","227","328802","0.0-6.0-0.48","45","4","2022-11-17 12:19:10","fd252370c17a9971d68c1d4354a03c2e","","Mozilla/5.0 (Windows NT 10.0; Win64; x64) AppleWebKit/537.36 (KHTML, like Gecko) Chrome/106.0.0.0 Safari/537.36 Edg/106.0.1370.52","WebKit","Edge","106.0.1370.52","Windows","10.0","null","null","","<p style=""font-size: 48px;"">+</p>","4","Light-Contradictory","",""
"","","","","","sentence","52752","html-keyboard-response","228","330125","0.0-6.0-1.48","45","4","2022-11-17 12:19:10","fd252370c17a9971d68c1d4354a03c2e","","Mozilla/5.0 (Windows NT 10.0; Win64; x64) AppleWebKit/537.36 (KHTML, like Gecko) Chrome/106.0.0.0 Safari/537.36 Edg/106.0.1370.52","WebKit","Edge","106.0.1370.52","Windows","10.0","1312"," ","","A balloon dropped and smashed a rice cake","4","Light-Contradictory","",""
"","","","","","fixation","52752","html-keyboard-response","229","330634","0.0-6.0-2.48","45","4","2022-11-17 12:19:10","fd252370c17a9971d68c1d4354a03c2e","","Mozilla/5.0 (Windows NT 10.0; Win64; x64) AppleWebKit/537.36 (KHTML, like Gecko) Chrome/106.0.0.0 Safari/537.36 Edg/106.0.1370.52","WebKit","Edge","106.0.1370.52","Windows","10.0","null","null","","<p style=""font-size: 48px;"">+</p>","4","Light-Contradictory","",""
"","","","","","picture","52752","image-keyboard-response","230","331256","0.0-6.0-3.48","45","4","2022-11-17 12:19:10","fd252370c17a9971d68c1d4354a03c2e","","Mozilla/5.0 (Windows NT 10.0; Win64; x64) AppleWebKit/537.36 (KHTML, like Gecko) Chrome/106.0.0.0 Safari/537.36 Edg/106.0.1370.52","WebKit","Edge","106.0.1370.52","Windows","10.0","617","s","","tortitaS.jpg","4","Light-Contradictory","true",""
"","","","","","fixation","52752","html-keyboard-response","231","332266","0.0-6.0-0.49","45","4","2022-11-17 12:19:10","fd252370c17a9971d68c1d4354a03c2e","","Mozilla/5.0 (Windows NT 10.0; Win64; x64) AppleWebKit/537.36 (KHTML, like Gecko) Chrome/106.0.0.0 Safari/537.36 Edg/106.0.1370.52","WebKit","Edge","106.0.1370.52","Windows","10.0","null","null","","<p style=""font-size: 48px;"">+</p>","4","Filler","",""
"","","","","","sentence","52752","html-keyboard-response","232","333238","0.0-6.0-1.49","45","4","2022-11-17 12:19:10","fd252370c17a9971d68c1d4354a03c2e","","Mozilla/5.0 (Windows NT 10.0; Win64; x64) AppleWebKit/537.36 (KHTML, like Gecko) Chrome/106.0.0.0 Safari/537.36 Edg/106.0.1370.52","WebKit","Edge","106.0.1370.52","Windows","10.0","968"," ","","An owl is sitting on the branch","4","Filler","",""
"","","","","","fixation","52752","html-keyboard-response","233","333743","0.0-6.0-2.49","45","4","2022-11-17 12:19:10","fd252370c17a9971d68c1d4354a03c2e","","Mozilla/5.0 (Windows NT 10.0; Win64; x64) AppleWebKit/537.36 (KHTML, like Gecko) Chrome/106.0.0.0 Safari/537.36 Edg/106.0.1370.52","WebKit","Edge","106.0.1370.52","Windows","10.0","null","null","","<p style=""font-size: 48px;"">+</p>","4","Filler","",""
"","","","","","picture","52752","image-keyboard-response","234","334617","0.0-6.0-3.49","45","4","2022-11-17 12:19:10","fd252370c17a9971d68c1d4354a03c2e","","Mozilla/5.0 (Windows NT 10.0; Win64; x64) AppleWebKit/537.36 (KHTML, like Gecko) Chrome/106.0.0.0 Safari/537.36 Edg/106.0.1370.52","WebKit","Edge","106.0.1370.52","Windows","10.0","866","n","","rubberduck.jpg","4","Filler","true",""
"","","","","","fixation","52752","html-keyboard-response","235","335623","0.0-6.0-0.50","45","4","2022-11-17 12:19:10","fd252370c17a9971d68c1d4354a03c2e","","Mozilla/5.0 (Windows NT 10.0; Win64; x64) AppleWebKit/537.36 (KHTML, like Gecko) Chrome/106.0.0.0 Safari/537.36 Edg/106.0.1370.52","WebKit","Edge","106.0.1370.52","Windows","10.0","null","null","","<p style=""font-size: 48px;"">+</p>","4","Filler","",""
"","","","","","sentence","52752","html-keyboard-response","236","336470","0.0-6.0-1.50","45","4","2022-11-17 12:19:10","fd252370c17a9971d68c1d4354a03c2e","","Mozilla/5.0 (Windows NT 10.0; Win64; x64) AppleWebKit/537.36 (KHTML, like Gecko) Chrome/106.0.0.0 Safari/537.36 Edg/106.0.1370.52","WebKit","Edge","106.0.1370.52","Windows","10.0","839"," ","","A boy is wearing a hat","4","Filler","",""
