"success","timeout","failed_images","failed_audio","failed_video","typeoftrial","subject","trial_type","trial_index","time_elapsed","internal_node_id","run_id","condition","recorded_at","source_code_version","ip","user_agent","device","browser","browser_version","platform","platform_version","rt","response","Experiment","stimulus","list_number","trialcondition","correct","question_order"
"true","false","[]","[]","[]","preload","44512","preload","0","13306","0.0-0.0","95","3","2022-11-17 12:28:19","fd252370c17a9971d68c1d4354a03c2e","","Mozilla/5.0 (Windows NT 10.0) AppleWebKit/537.36 (KHTML, like Gecko) Chrome/107.0.0.0 Safari/537.36","WebKit","Chrome","107.0.0.0","Windows","10.0","","","","","","","",""
"","","","","","ID","44512","survey-text","1","25967","0.0-1.0","95","3","2022-11-17 12:28:19","fd252370c17a9971d68c1d4354a03c2e","","Mozilla/5.0 (Windows NT 10.0) AppleWebKit/537.36 (KHTML, like Gecko) Chrome/107.0.0.0 Safari/537.36","WebKit","Chrome","107.0.0.0","Windows","10.0","12628","{""ID"":""60c58250ee1f8bbfd27e5c98""}","","","","","",""
"","","","","","instructions","44512","html-button-response","2","127916","0.0-2.0","95","3","2022-11-17 12:28:19","fd252370c17a9971d68c1d4354a03c2e","","Mozilla/5.0 (Windows NT 10.0) AppleWebKit/537.36 (KHTML, like Gecko) Chrome/107.0.0.0 Safari/537.36","WebKit","Chrome","107.0.0.0","Windows","10.0","101946","0","","
                    <p style=""font-size:20px;""> Welcome to the experiment! </p>
                    <p style=""font-size:20px;""> In this experiment, you will be asked to make judgments about the content of different sentences.</p>
                    <p style=""font-size:20px;""> On each trial, you will read a sentence, and will be shown a picture immediately following the sentence. </p>
                    <p style=""font-size:20px;""> Your task is to decide whether the object displayed in the picture was mentioned in the sentence or not </p>
                    <p style=""font-size:20px;""> and respond as quickly as possible by pressing <strong>S</strong> for yes or <strong>N</strong> for no. </p>
                    <p style=""font-size:20px;""> You will now do a practice session with feedback and instructions. </p>
                    <p style=""font-size:20px;""> Click the button below to continue.</p>
                    ","","","",""
"","","","","","instructions","44512","html-button-response","3","166121","0.0-3.0","95","3","2022-11-17 12:28:19","fd252370c17a9971d68c1d4354a03c2e","","Mozilla/5.0 (Windows NT 10.0) AppleWebKit/537.36 (KHTML, like Gecko) Chrome/107.0.0.0 Safari/537.36","WebKit","Chrome","107.0.0.0","Windows","10.0","38203","0","","
                    <p style=""font-size:20px;""> You are about to begin the practice test. </p>
                    <p style=""font-size:20px;""> On each trial, a sentence will appear on the screen. You should press SPACEBAR when you have read and understood the sentence.</p>
                    <p style=""font-size:20px;""> After you press SPACEBAR, a picture will appear on the screen. </p>
                    <p style=""font-size:20px;""> You need to indicate whether or not the pictured object was mentioned in the sentence. </p>
                    <p style=""font-size:20px;""> If the object WAS mentioned in the preceding sentence, you should press <strong>S</strong> </p>
                    <p style=""font-size:20px;""> If the object was NOT mentioned in the preceding sentence, you should press <strong>N</strong>. </p>
                    <p style=""font-size:20px;""> Click the button below to continue to the practice session.</p>
                    ","","","",""
"","","","","","fixation","44512","html-keyboard-response","4","167124","0.0-4.0-0.0","95","3","2022-11-17 12:28:19","fd252370c17a9971d68c1d4354a03c2e","","Mozilla/5.0 (Windows NT 10.0) AppleWebKit/537.36 (KHTML, like Gecko) Chrome/107.0.0.0 Safari/537.36","WebKit","Chrome","107.0.0.0","Windows","10.0","null","null","","<p style=""font-size: 48px;"">+</p>","practice","practice_n","",""
"","","","","","sentence","44512","html-keyboard-response","5","174988","0.0-4.0-1.0","95","3","2022-11-17 12:28:19","fd252370c17a9971d68c1d4354a03c2e","","Mozilla/5.0 (Windows NT 10.0) AppleWebKit/537.36 (KHTML, like Gecko) Chrome/107.0.0.0 Safari/537.36","WebKit","Chrome","107.0.0.0","Windows","10.0","7859"," ","","A bowling ball dropped and touched a bottle","practice","practice_n","",""
"","","","","","fixation","44512","html-keyboard-response","6","175493","0.0-4.0-2.0","95","3","2022-11-17 12:28:19","fd252370c17a9971d68c1d4354a03c2e","","Mozilla/5.0 (Windows NT 10.0) AppleWebKit/537.36 (KHTML, like Gecko) Chrome/107.0.0.0 Safari/537.36","WebKit","Chrome","107.0.0.0","Windows","10.0","null","null","","<p style=""font-size: 48px;"">+</p>","practice","practice_n","",""
"","","","","","picture","44512","image-keyboard-response","7","177122","0.0-4.0-3.0","95","3","2022-11-17 12:28:19","fd252370c17a9971d68c1d4354a03c2e","","Mozilla/5.0 (Windows NT 10.0) AppleWebKit/537.36 (KHTML, like Gecko) Chrome/107.0.0.0 Safari/537.36","WebKit","Chrome","107.0.0.0","Windows","10.0","1604","n","","bookB.jpg","practice","practice_n","true",""
"","","","","","","","html-keyboard-response","8","179133","0.0-4.0-4.0","95","3","2022-11-17 12:28:19","fd252370c17a9971d68c1d4354a03c2e","","Mozilla/5.0 (Windows NT 10.0) AppleWebKit/537.36 (KHTML, like Gecko) Chrome/107.0.0.0 Safari/537.36","WebKit","Chrome","107.0.0.0","Windows","10.0","null","null","","CORRECT!","","","",""
"","","","","","fixation","44512","html-keyboard-response","9","180140","0.0-4.0-0.1","95","3","2022-11-17 12:28:19","fd252370c17a9971d68c1d4354a03c2e","","Mozilla/5.0 (Windows NT 10.0) AppleWebKit/537.36 (KHTML, like Gecko) Chrome/107.0.0.0 Safari/537.36","WebKit","Chrome","107.0.0.0","Windows","10.0","null","null","","<p style=""font-size: 48px;"">+</p>","practice","practice_s","",""
"","","","","","sentence","44512","html-keyboard-response","10","184845","0.0-4.0-1.1","95","3","2022-11-17 12:28:19","fd252370c17a9971d68c1d4354a03c2e","","Mozilla/5.0 (Windows NT 10.0) AppleWebKit/537.36 (KHTML, like Gecko) Chrome/107.0.0.0 Safari/537.36","WebKit","Chrome","107.0.0.0","Windows","10.0","4702"," ","","A knife was placed on a hammer","practice","practice_s","",""
"","","","","","fixation","44512","html-keyboard-response","11","185357","0.0-4.0-2.1","95","3","2022-11-17 12:28:19","fd252370c17a9971d68c1d4354a03c2e","","Mozilla/5.0 (Windows NT 10.0) AppleWebKit/537.36 (KHTML, like Gecko) Chrome/107.0.0.0 Safari/537.36","WebKit","Chrome","107.0.0.0","Windows","10.0","null","null","","<p style=""font-size: 48px;"">+</p>","practice","practice_s","",""
"","","","","","picture","44512","image-keyboard-response","12","187018","0.0-4.0-3.1","95","3","2022-11-17 12:28:19","fd252370c17a9971d68c1d4354a03c2e","","Mozilla/5.0 (Windows NT 10.0) AppleWebKit/537.36 (KHTML, like Gecko) Chrome/107.0.0.0 Safari/537.36","WebKit","Chrome","107.0.0.0","Windows","10.0","1657","s","","hammerB.jpg","practice","practice_s","true",""
"","","","","","","","html-keyboard-response","13","189028","0.0-4.0-4.1","95","3","2022-11-17 12:28:19","fd252370c17a9971d68c1d4354a03c2e","","Mozilla/5.0 (Windows NT 10.0) AppleWebKit/537.36 (KHTML, like Gecko) Chrome/107.0.0.0 Safari/537.36","WebKit","Chrome","107.0.0.0","Windows","10.0","null","null","","CORRECT!","","","",""
"","","","","","fixation","44512","html-keyboard-response","14","190037","0.0-4.0-0.2","95","3","2022-11-17 12:28:19","fd252370c17a9971d68c1d4354a03c2e","","Mozilla/5.0 (Windows NT 10.0) AppleWebKit/537.36 (KHTML, like Gecko) Chrome/107.0.0.0 Safari/537.36","WebKit","Chrome","107.0.0.0","Windows","10.0","null","null","","<p style=""font-size: 48px;"">+</p>","practice","practice_s","",""
"","","","","","sentence","44512","html-keyboard-response","15","194356","0.0-4.0-1.2","95","3","2022-11-17 12:28:19","fd252370c17a9971d68c1d4354a03c2e","","Mozilla/5.0 (Windows NT 10.0) AppleWebKit/537.36 (KHTML, like Gecko) Chrome/107.0.0.0 Safari/537.36","WebKit","Chrome","107.0.0.0","Windows","10.0","4316"," ","","A balloon dropped and touched a cigarette","practice","practice_s","",""
"","","","","","fixation","44512","html-keyboard-response","16","194861","0.0-4.0-2.2","95","3","2022-11-17 12:28:19","fd252370c17a9971d68c1d4354a03c2e","","Mozilla/5.0 (Windows NT 10.0) AppleWebKit/537.36 (KHTML, like Gecko) Chrome/107.0.0.0 Safari/537.36","WebKit","Chrome","107.0.0.0","Windows","10.0","null","null","","<p style=""font-size: 48px;"">+</p>","practice","practice_s","",""
"","","","","","picture","44512","image-keyboard-response","17","197054","0.0-4.0-3.2","95","3","2022-11-17 12:28:19","fd252370c17a9971d68c1d4354a03c2e","","Mozilla/5.0 (Windows NT 10.0) AppleWebKit/537.36 (KHTML, like Gecko) Chrome/107.0.0.0 Safari/537.36","WebKit","Chrome","107.0.0.0","Windows","10.0","2188","s","","cigaretteB.jpg","practice","practice_s","true",""
"","","","","","","","html-keyboard-response","18","199061","0.0-4.0-4.2","95","3","2022-11-17 12:28:19","fd252370c17a9971d68c1d4354a03c2e","","Mozilla/5.0 (Windows NT 10.0) AppleWebKit/537.36 (KHTML, like Gecko) Chrome/107.0.0.0 Safari/537.36","WebKit","Chrome","107.0.0.0","Windows","10.0","null","null","","CORRECT!","","","",""
"","","","","","fixation","44512","html-keyboard-response","19","200068","0.0-4.0-0.3","95","3","2022-11-17 12:28:19","fd252370c17a9971d68c1d4354a03c2e","","Mozilla/5.0 (Windows NT 10.0) AppleWebKit/537.36 (KHTML, like Gecko) Chrome/107.0.0.0 Safari/537.36","WebKit","Chrome","107.0.0.0","Windows","10.0","null","null","","<p style=""font-size: 48px;"">+</p>","practice","practice_s","",""
"","","","","","sentence","44512","html-keyboard-response","20","203105","0.0-4.0-1.3","95","3","2022-11-17 12:28:19","fd252370c17a9971d68c1d4354a03c2e","","Mozilla/5.0 (Windows NT 10.0) AppleWebKit/537.36 (KHTML, like Gecko) Chrome/107.0.0.0 Safari/537.36","WebKit","Chrome","107.0.0.0","Windows","10.0","3035"," ","","A bowling ball dropped and smashed a teacup","practice","practice_s","",""
"","","","","","fixation","44512","html-keyboard-response","21","203612","0.0-4.0-2.3","95","3","2022-11-17 12:28:19","fd252370c17a9971d68c1d4354a03c2e","","Mozilla/5.0 (Windows NT 10.0) AppleWebKit/537.36 (KHTML, like Gecko) Chrome/107.0.0.0 Safari/537.36","WebKit","Chrome","107.0.0.0","Windows","10.0","null","null","","<p style=""font-size: 48px;"">+</p>","practice","practice_s","",""
"","","","","","picture","44512","image-keyboard-response","22","205209","0.0-4.0-3.3","95","3","2022-11-17 12:28:19","fd252370c17a9971d68c1d4354a03c2e","","Mozilla/5.0 (Windows NT 10.0) AppleWebKit/537.36 (KHTML, like Gecko) Chrome/107.0.0.0 Safari/537.36","WebKit","Chrome","107.0.0.0","Windows","10.0","1591","s","","cupB.jpg","practice","practice_s","true",""
"","","","","","","","html-keyboard-response","23","207220","0.0-4.0-4.3","95","3","2022-11-17 12:28:19","fd252370c17a9971d68c1d4354a03c2e","","Mozilla/5.0 (Windows NT 10.0) AppleWebKit/537.36 (KHTML, like Gecko) Chrome/107.0.0.0 Safari/537.36","WebKit","Chrome","107.0.0.0","Windows","10.0","null","null","","CORRECT!","","","",""
"","","","","","fixation","44512","html-keyboard-response","24","208228","0.0-4.0-0.4","95","3","2022-11-17 12:28:19","fd252370c17a9971d68c1d4354a03c2e","","Mozilla/5.0 (Windows NT 10.0) AppleWebKit/537.36 (KHTML, like Gecko) Chrome/107.0.0.0 Safari/537.36","WebKit","Chrome","107.0.0.0","Windows","10.0","null","null","","<p style=""font-size: 48px;"">+</p>","practice","practice_n","",""
"","","","","","sentence","44512","html-keyboard-response","25","210974","0.0-4.0-1.4","95","3","2022-11-17 12:28:19","fd252370c17a9971d68c1d4354a03c2e","","Mozilla/5.0 (Windows NT 10.0) AppleWebKit/537.36 (KHTML, like Gecko) Chrome/107.0.0.0 Safari/537.36","WebKit","Chrome","107.0.0.0","Windows","10.0","2742"," ","","A balloon dropped and smashed a cup","practice","practice_n","",""
"","","","","","fixation","44512","html-keyboard-response","26","211484","0.0-4.0-2.4","95","3","2022-11-17 12:28:19","fd252370c17a9971d68c1d4354a03c2e","","Mozilla/5.0 (Windows NT 10.0) AppleWebKit/537.36 (KHTML, like Gecko) Chrome/107.0.0.0 Safari/537.36","WebKit","Chrome","107.0.0.0","Windows","10.0","null","null","","<p style=""font-size: 48px;"">+</p>","practice","practice_n","",""
"","","","","","picture","44512","image-keyboard-response","27","212799","0.0-4.0-3.4","95","3","2022-11-17 12:28:19","fd252370c17a9971d68c1d4354a03c2e","","Mozilla/5.0 (Windows NT 10.0) AppleWebKit/537.36 (KHTML, like Gecko) Chrome/107.0.0.0 Safari/537.36","WebKit","Chrome","107.0.0.0","Windows","10.0","1310","n","","bananaB.jpg","practice","practice_n","true",""
"","","","","","","","html-keyboard-response","28","214804","0.0-4.0-4.4","95","3","2022-11-17 12:28:19","fd252370c17a9971d68c1d4354a03c2e","","Mozilla/5.0 (Windows NT 10.0) AppleWebKit/537.36 (KHTML, like Gecko) Chrome/107.0.0.0 Safari/537.36","WebKit","Chrome","107.0.0.0","Windows","10.0","null","null","","CORRECT!","","","",""
"","","","","","fixation","44512","html-keyboard-response","29","215813","0.0-4.0-0.5","95","3","2022-11-17 12:28:19","fd252370c17a9971d68c1d4354a03c2e","","Mozilla/5.0 (Windows NT 10.0) AppleWebKit/537.36 (KHTML, like Gecko) Chrome/107.0.0.0 Safari/537.36","WebKit","Chrome","107.0.0.0","Windows","10.0","null","null","","<p style=""font-size: 48px;"">+</p>","practice","practice_n","",""
"","","","","","sentence","44512","html-keyboard-response","30","219252","0.0-4.0-1.5","95","3","2022-11-17 12:28:19","fd252370c17a9971d68c1d4354a03c2e","","Mozilla/5.0 (Windows NT 10.0) AppleWebKit/537.36 (KHTML, like Gecko) Chrome/107.0.0.0 Safari/537.36","WebKit","Chrome","107.0.0.0","Windows","10.0","3434"," ","","A fork was placed on a stool","practice","practice_n","",""
"","","","","","fixation","44512","html-keyboard-response","31","219756","0.0-4.0-2.5","95","3","2022-11-17 12:28:19","fd252370c17a9971d68c1d4354a03c2e","","Mozilla/5.0 (Windows NT 10.0) AppleWebKit/537.36 (KHTML, like Gecko) Chrome/107.0.0.0 Safari/537.36","WebKit","Chrome","107.0.0.0","Windows","10.0","null","null","","<p style=""font-size: 48px;"">+</p>","practice","practice_n","",""
"","","","","","picture","44512","image-keyboard-response","32","222187","0.0-4.0-3.5","95","3","2022-11-17 12:28:19","fd252370c17a9971d68c1d4354a03c2e","","Mozilla/5.0 (Windows NT 10.0) AppleWebKit/537.36 (KHTML, like Gecko) Chrome/107.0.0.0 Safari/537.36","WebKit","Chrome","107.0.0.0","Windows","10.0","2424","n","","tableB.jpg","practice","practice_n","true",""
"","","","","","","","html-keyboard-response","33","224195","0.0-4.0-4.5","95","3","2022-11-17 12:28:19","fd252370c17a9971d68c1d4354a03c2e","","Mozilla/5.0 (Windows NT 10.0) AppleWebKit/537.36 (KHTML, like Gecko) Chrome/107.0.0.0 Safari/537.36","WebKit","Chrome","107.0.0.0","Windows","10.0","null","null","","CORRECT!","","","",""
"","","","","","movetoexp","44512","html-button-response","34","235424","0.0-5.0","95","3","2022-11-17 12:28:19","fd252370c17a9971d68c1d4354a03c2e","","Mozilla/5.0 (Windows NT 10.0) AppleWebKit/537.36 (KHTML, like Gecko) Chrome/107.0.0.0 Safari/537.36","WebKit","Chrome","107.0.0.0","Windows","10.0","11223","0","","<p style=""font-size:20px;"">You have now completed the practice session! </p>
                    <p style=""font-size:20px;"">You will now move on to the main experiment, where you will not be provided any feedback. </p>
                    <p style=""font-size:20px;"">Remember, you should press <strong>S</strong> if the pictured object was mentioned in the preceding sentence<br> and <strong>N</strong> if the pictured object was not mentioned in the preceding sentence.</p>
                    <p style=""font-size:20px;"">Please click the button below to continue to the main experiment. </p>","","","",""
"","","","","","fixation","44512","html-keyboard-response","35","236428","0.0-6.0-0.0","95","3","2022-11-17 12:28:19","fd252370c17a9971d68c1d4354a03c2e","","Mozilla/5.0 (Windows NT 10.0) AppleWebKit/537.36 (KHTML, like Gecko) Chrome/107.0.0.0 Safari/537.36","WebKit","Chrome","107.0.0.0","Windows","10.0","null","null","","<p style=""font-size: 48px;"">+</p>","3","Heavy_Matched","",""
"","","","","","sentence","44512","html-keyboard-response","36","239099","0.0-6.0-1.0","95","3","2022-11-17 12:28:19","fd252370c17a9971d68c1d4354a03c2e","","Mozilla/5.0 (Windows NT 10.0) AppleWebKit/537.36 (KHTML, like Gecko) Chrome/107.0.0.0 Safari/537.36","WebKit","Chrome","107.0.0.0","Windows","10.0","2666"," ","","A bowling ball dropped and smashed a donut","3","Heavy_Matched","",""
"","","","","","fixation","44512","html-keyboard-response","37","239612","0.0-6.0-2.0","95","3","2022-11-17 12:28:19","fd252370c17a9971d68c1d4354a03c2e","","Mozilla/5.0 (Windows NT 10.0) AppleWebKit/537.36 (KHTML, like Gecko) Chrome/107.0.0.0 Safari/537.36","WebKit","Chrome","107.0.0.0","Windows","10.0","null","null","","<p style=""font-size: 48px;"">+</p>","3","Heavy_Matched","",""
"","","","","","picture","44512","image-keyboard-response","38","241089","0.0-6.0-3.0","95","3","2022-11-17 12:28:19","fd252370c17a9971d68c1d4354a03c2e","","Mozilla/5.0 (Windows NT 10.0) AppleWebKit/537.36 (KHTML, like Gecko) Chrome/107.0.0.0 Safari/537.36","WebKit","Chrome","107.0.0.0","Windows","10.0","1471","s","","donutS.jpg","3","Heavy_Matched","true",""
"","","","","","fixation","44512","html-keyboard-response","39","242101","0.0-6.0-0.1","95","3","2022-11-17 12:28:19","fd252370c17a9971d68c1d4354a03c2e","","Mozilla/5.0 (Windows NT 10.0) AppleWebKit/537.36 (KHTML, like Gecko) Chrome/107.0.0.0 Safari/537.36","WebKit","Chrome","107.0.0.0","Windows","10.0","null","null","","<p style=""font-size: 48px;"">+</p>","3","Filler","",""
"","","","","","sentence","44512","html-keyboard-response","40","244599","0.0-6.0-1.1","95","3","2022-11-17 12:28:19","fd252370c17a9971d68c1d4354a03c2e","","Mozilla/5.0 (Windows NT 10.0) AppleWebKit/537.36 (KHTML, like Gecko) Chrome/107.0.0.0 Safari/537.36","WebKit","Chrome","107.0.0.0","Windows","10.0","2493"," ","","A towel was placed on the TV","3","Filler","",""
"","","","","","fixation","44512","html-keyboard-response","41","245108","0.0-6.0-2.1","95","3","2022-11-17 12:28:19","fd252370c17a9971d68c1d4354a03c2e","","Mozilla/5.0 (Windows NT 10.0) AppleWebKit/537.36 (KHTML, like Gecko) Chrome/107.0.0.0 Safari/537.36","WebKit","Chrome","107.0.0.0","Windows","10.0","null","null","","<p style=""font-size: 48px;"">+</p>","3","Filler","",""
"","","","","","picture","44512","image-keyboard-response","42","246462","0.0-6.0-3.1","95","3","2022-11-17 12:28:19","fd252370c17a9971d68c1d4354a03c2e","","Mozilla/5.0 (Windows NT 10.0) AppleWebKit/537.36 (KHTML, like Gecko) Chrome/107.0.0.0 Safari/537.36","WebKit","Chrome","107.0.0.0","Windows","10.0","1347","n","","pencil.jpg","3","Filler","true",""
"","","","","","fixation","44512","html-keyboard-response","43","247477","0.0-6.0-0.2","95","3","2022-11-17 12:28:19","fd252370c17a9971d68c1d4354a03c2e","","Mozilla/5.0 (Windows NT 10.0) AppleWebKit/537.36 (KHTML, like Gecko) Chrome/107.0.0.0 Safari/537.36","WebKit","Chrome","107.0.0.0","Windows","10.0","null","null","","<p style=""font-size: 48px;"">+</p>","3","Filler","",""
"","","","","","sentence","44512","html-keyboard-response","44","249498","0.0-6.0-1.2","95","3","2022-11-17 12:28:19","fd252370c17a9971d68c1d4354a03c2e","","Mozilla/5.0 (Windows NT 10.0) AppleWebKit/537.36 (KHTML, like Gecko) Chrome/107.0.0.0 Safari/537.36","WebKit","Chrome","107.0.0.0","Windows","10.0","2015"," ","","A student is writing on a board","3","Filler","",""
"","","","","","fixation","44512","html-keyboard-response","45","250012","0.0-6.0-2.2","95","3","2022-11-17 12:28:19","fd252370c17a9971d68c1d4354a03c2e","","Mozilla/5.0 (Windows NT 10.0) AppleWebKit/537.36 (KHTML, like Gecko) Chrome/107.0.0.0 Safari/537.36","WebKit","Chrome","107.0.0.0","Windows","10.0","null","null","","<p style=""font-size: 48px;"">+</p>","3","Filler","",""
"","","","","","picture","44512","image-keyboard-response","46","251099","0.0-6.0-3.2","95","3","2022-11-17 12:28:19","fd252370c17a9971d68c1d4354a03c2e","","Mozilla/5.0 (Windows NT 10.0) AppleWebKit/537.36 (KHTML, like Gecko) Chrome/107.0.0.0 Safari/537.36","WebKit","Chrome","107.0.0.0","Windows","10.0","1081","n","","owl.jpg","3","Filler","true",""
"","","","","","fixation","44512","html-keyboard-response","47","252108","0.0-6.0-0.3","95","3","2022-11-17 12:28:19","fd252370c17a9971d68c1d4354a03c2e","","Mozilla/5.0 (Windows NT 10.0) AppleWebKit/537.36 (KHTML, like Gecko) Chrome/107.0.0.0 Safari/537.36","WebKit","Chrome","107.0.0.0","Windows","10.0","null","null","","<p style=""font-size: 48px;"">+</p>","3","Filler","",""
"","","","","","sentence","44512","html-keyboard-response","48","254006","0.0-6.0-1.3","95","3","2022-11-17 12:28:19","fd252370c17a9971d68c1d4354a03c2e","","Mozilla/5.0 (Windows NT 10.0) AppleWebKit/537.36 (KHTML, like Gecko) Chrome/107.0.0.0 Safari/537.36","WebKit","Chrome","107.0.0.0","Windows","10.0","1892"," ","","An actress is taking a microphone","3","Filler","",""
"","","","","","fixation","44512","html-keyboard-response","49","254517","0.0-6.0-2.3","95","3","2022-11-17 12:28:19","fd252370c17a9971d68c1d4354a03c2e","","Mozilla/5.0 (Windows NT 10.0) AppleWebKit/537.36 (KHTML, like Gecko) Chrome/107.0.0.0 Safari/537.36","WebKit","Chrome","107.0.0.0","Windows","10.0","null","null","","<p style=""font-size: 48px;"">+</p>","3","Filler","",""
"","","","","","picture","44512","image-keyboard-response","50","255382","0.0-6.0-3.3","95","3","2022-11-17 12:28:19","fd252370c17a9971d68c1d4354a03c2e","","Mozilla/5.0 (Windows NT 10.0) AppleWebKit/537.36 (KHTML, like Gecko) Chrome/107.0.0.0 Safari/537.36","WebKit","Chrome","107.0.0.0","Windows","10.0","858","n","","pants.jpg","3","Filler","true",""
"","","","","","fixation","44512","html-keyboard-response","51","256396","0.0-6.0-0.4","95","3","2022-11-17 12:28:19","fd252370c17a9971d68c1d4354a03c2e","","Mozilla/5.0 (Windows NT 10.0) AppleWebKit/537.36 (KHTML, like Gecko) Chrome/107.0.0.0 Safari/537.36","WebKit","Chrome","107.0.0.0","Windows","10.0","null","null","","<p style=""font-size: 48px;"">+</p>","3","Heavy_Contradictory","",""
"","","","","","sentence","44512","html-keyboard-response","52","258810","0.0-6.0-1.4","95","3","2022-11-17 12:28:19","fd252370c17a9971d68c1d4354a03c2e","","Mozilla/5.0 (Windows NT 10.0) AppleWebKit/537.36 (KHTML, like Gecko) Chrome/107.0.0.0 Safari/537.36","WebKit","Chrome","107.0.0.0","Windows","10.0","2408"," ","","A bowling ball dropped and touched a ceramic plate","3","Heavy_Contradictory","",""
"","","","","","fixation","44512","html-keyboard-response","53","259324","0.0-6.0-2.4","95","3","2022-11-17 12:28:19","fd252370c17a9971d68c1d4354a03c2e","","Mozilla/5.0 (Windows NT 10.0) AppleWebKit/537.36 (KHTML, like Gecko) Chrome/107.0.0.0 Safari/537.36","WebKit","Chrome","107.0.0.0","Windows","10.0","null","null","","<p style=""font-size: 48px;"">+</p>","3","Heavy_Contradictory","",""
"","","","","","picture","44512","image-keyboard-response","54","260425","0.0-6.0-3.4","95","3","2022-11-17 12:28:19","fd252370c17a9971d68c1d4354a03c2e","","Mozilla/5.0 (Windows NT 10.0) AppleWebKit/537.36 (KHTML, like Gecko) Chrome/107.0.0.0 Safari/537.36","WebKit","Chrome","107.0.0.0","Windows","10.0","1094","s","","plateS.jpg","3","Heavy_Contradictory","true",""
"","","","","","fixation","44512","html-keyboard-response","55","261437","0.0-6.0-0.5","95","3","2022-11-17 12:28:19","fd252370c17a9971d68c1d4354a03c2e","","Mozilla/5.0 (Windows NT 10.0) AppleWebKit/537.36 (KHTML, like Gecko) Chrome/107.0.0.0 Safari/537.36","WebKit","Chrome","107.0.0.0","Windows","10.0","null","null","","<p style=""font-size: 48px;"">+</p>","3","Filler","",""
"","","","","","sentence","44512","html-keyboard-response","56","264606","0.0-6.0-1.5","95","3","2022-11-17 12:28:19","fd252370c17a9971d68c1d4354a03c2e","","Mozilla/5.0 (Windows NT 10.0) AppleWebKit/537.36 (KHTML, like Gecko) Chrome/107.0.0.0 Safari/537.36","WebKit","Chrome","107.0.0.0","Windows","10.0","3161"," ","","A remote was placed on the rug","3","Filler","",""
"","","","","","fixation","44512","html-keyboard-response","57","265117","0.0-6.0-2.5","95","3","2022-11-17 12:28:19","fd252370c17a9971d68c1d4354a03c2e","","Mozilla/5.0 (Windows NT 10.0) AppleWebKit/537.36 (KHTML, like Gecko) Chrome/107.0.0.0 Safari/537.36","WebKit","Chrome","107.0.0.0","Windows","10.0","null","null","","<p style=""font-size: 48px;"">+</p>","3","Filler","",""
"","","","","","picture","44512","image-keyboard-response","58","267003","0.0-6.0-3.5","95","3","2022-11-17 12:28:19","fd252370c17a9971d68c1d4354a03c2e","","Mozilla/5.0 (Windows NT 10.0) AppleWebKit/537.36 (KHTML, like Gecko) Chrome/107.0.0.0 Safari/537.36","WebKit","Chrome","107.0.0.0","Windows","10.0","1875","n","","CD.jpg","3","Filler","true",""
"","","","","","fixation","44512","html-keyboard-response","59","268012","0.0-6.0-0.6","95","3","2022-11-17 12:28:19","fd252370c17a9971d68c1d4354a03c2e","","Mozilla/5.0 (Windows NT 10.0) AppleWebKit/537.36 (KHTML, like Gecko) Chrome/107.0.0.0 Safari/537.36","WebKit","Chrome","107.0.0.0","Windows","10.0","null","null","","<p style=""font-size: 48px;"">+</p>","3","Filler","",""
"","","","","","sentence","44512","html-keyboard-response","60","272512","0.0-6.0-1.6","95","3","2022-11-17 12:28:19","fd252370c17a9971d68c1d4354a03c2e","","Mozilla/5.0 (Windows NT 10.0) AppleWebKit/537.36 (KHTML, like Gecko) Chrome/107.0.0.0 Safari/537.36","WebKit","Chrome","107.0.0.0","Windows","10.0","4492"," ","","A doctor is taking a stethoscope","3","Filler","",""
"","","","","","fixation","44512","html-keyboard-response","61","273020","0.0-6.0-2.6","95","3","2022-11-17 12:28:19","fd252370c17a9971d68c1d4354a03c2e","","Mozilla/5.0 (Windows NT 10.0) AppleWebKit/537.36 (KHTML, like Gecko) Chrome/107.0.0.0 Safari/537.36","WebKit","Chrome","107.0.0.0","Windows","10.0","null","null","","<p style=""font-size: 48px;"">+</p>","3","Filler","",""
"","","","","","picture","44512","image-keyboard-response","62","275593","0.0-6.0-3.6","95","3","2022-11-17 12:28:19","fd252370c17a9971d68c1d4354a03c2e","","Mozilla/5.0 (Windows NT 10.0) AppleWebKit/537.36 (KHTML, like Gecko) Chrome/107.0.0.0 Safari/537.36","WebKit","Chrome","107.0.0.0","Windows","10.0","2565","n","","matchesbox.jpg","3","Filler","true",""
"","","","","","fixation","44512","html-keyboard-response","63","276606","0.0-6.0-0.7","95","3","2022-11-17 12:28:19","fd252370c17a9971d68c1d4354a03c2e","","Mozilla/5.0 (Windows NT 10.0) AppleWebKit/537.36 (KHTML, like Gecko) Chrome/107.0.0.0 Safari/537.36","WebKit","Chrome","107.0.0.0","Windows","10.0","null","null","","<p style=""font-size: 48px;"">+</p>","3","Light_Matched","",""
"","","","","","sentence","44512","html-keyboard-response","64","280839","0.0-6.0-1.7","95","3","2022-11-17 12:28:19","fd252370c17a9971d68c1d4354a03c2e","","Mozilla/5.0 (Windows NT 10.0) AppleWebKit/537.36 (KHTML, like Gecko) Chrome/107.0.0.0 Safari/537.36","WebKit","Chrome","107.0.0.0","Windows","10.0","4226"," ","","A balloon dropped and touched a porcelain figure","3","Light_Matched","",""
"","","","","","fixation","44512","html-keyboard-response","65","281348","0.0-6.0-2.7","95","3","2022-11-17 12:28:19","fd252370c17a9971d68c1d4354a03c2e","","Mozilla/5.0 (Windows NT 10.0) AppleWebKit/537.36 (KHTML, like Gecko) Chrome/107.0.0.0 Safari/537.36","WebKit","Chrome","107.0.0.0","Windows","10.0","null","null","","<p style=""font-size: 48px;"">+</p>","3","Light_Matched","",""
"","","","","","picture","44512","image-keyboard-response","66","284083","0.0-6.0-3.7","95","3","2022-11-17 12:28:19","fd252370c17a9971d68c1d4354a03c2e","","Mozilla/5.0 (Windows NT 10.0) AppleWebKit/537.36 (KHTML, like Gecko) Chrome/107.0.0.0 Safari/537.36","WebKit","Chrome","107.0.0.0","Windows","10.0","2726","s","","figureS.jpg","3","Light_Matched","true",""
"","","","","","fixation","44512","html-keyboard-response","67","285094","0.0-6.0-0.8","95","3","2022-11-17 12:28:19","fd252370c17a9971d68c1d4354a03c2e","","Mozilla/5.0 (Windows NT 10.0) AppleWebKit/537.36 (KHTML, like Gecko) Chrome/107.0.0.0 Safari/537.36","WebKit","Chrome","107.0.0.0","Windows","10.0","null","null","","<p style=""font-size: 48px;"">+</p>","3","Filler","",""
"","","","","","sentence","44512","html-keyboard-response","68","287803","0.0-6.0-1.8","95","3","2022-11-17 12:28:19","fd252370c17a9971d68c1d4354a03c2e","","Mozilla/5.0 (Windows NT 10.0) AppleWebKit/537.36 (KHTML, like Gecko) Chrome/107.0.0.0 Safari/537.36","WebKit","Chrome","107.0.0.0","Windows","10.0","2700"," ","","A pencil was placed on the shoe","3","Filler","",""
"","","","","","fixation","44512","html-keyboard-response","69","288317","0.0-6.0-2.8","95","3","2022-11-17 12:28:19","fd252370c17a9971d68c1d4354a03c2e","","Mozilla/5.0 (Windows NT 10.0) AppleWebKit/537.36 (KHTML, like Gecko) Chrome/107.0.0.0 Safari/537.36","WebKit","Chrome","107.0.0.0","Windows","10.0","null","null","","<p style=""font-size: 48px;"">+</p>","3","Filler","",""
"","","","","","picture","44512","image-keyboard-response","70","289434","0.0-6.0-3.8","95","3","2022-11-17 12:28:19","fd252370c17a9971d68c1d4354a03c2e","","Mozilla/5.0 (Windows NT 10.0) AppleWebKit/537.36 (KHTML, like Gecko) Chrome/107.0.0.0 Safari/537.36","WebKit","Chrome","107.0.0.0","Windows","10.0","1109","n","","perfume.jpg","3","Filler","true",""
"","","","","","fixation","44512","html-keyboard-response","71","290445","0.0-6.0-0.9","95","3","2022-11-17 12:28:19","fd252370c17a9971d68c1d4354a03c2e","","Mozilla/5.0 (Windows NT 10.0) AppleWebKit/537.36 (KHTML, like Gecko) Chrome/107.0.0.0 Safari/537.36","WebKit","Chrome","107.0.0.0","Windows","10.0","null","null","","<p style=""font-size: 48px;"">+</p>","3","Filler","",""
"","","","","","sentence","44512","html-keyboard-response","72","292242","0.0-6.0-1.9","95","3","2022-11-17 12:28:19","fd252370c17a9971d68c1d4354a03c2e","","Mozilla/5.0 (Windows NT 10.0) AppleWebKit/537.36 (KHTML, like Gecko) Chrome/107.0.0.0 Safari/537.36","WebKit","Chrome","107.0.0.0","Windows","10.0","1790"," ","","A giraffe is playing with a zebra","3","Filler","",""
"","","","","","fixation","44512","html-keyboard-response","73","292749","0.0-6.0-2.9","95","3","2022-11-17 12:28:19","fd252370c17a9971d68c1d4354a03c2e","","Mozilla/5.0 (Windows NT 10.0) AppleWebKit/537.36 (KHTML, like Gecko) Chrome/107.0.0.0 Safari/537.36","WebKit","Chrome","107.0.0.0","Windows","10.0","null","null","","<p style=""font-size: 48px;"">+</p>","3","Filler","",""
"","","","","","picture","44512","image-keyboard-response","74","293595","0.0-6.0-3.9","95","3","2022-11-17 12:28:19","fd252370c17a9971d68c1d4354a03c2e","","Mozilla/5.0 (Windows NT 10.0) AppleWebKit/537.36 (KHTML, like Gecko) Chrome/107.0.0.0 Safari/537.36","WebKit","Chrome","107.0.0.0","Windows","10.0","836","n","","wallet.jpg","3","Filler","true",""
"","","","","","fixation","44512","html-keyboard-response","75","294605","0.0-6.0-0.10","95","3","2022-11-17 12:28:19","fd252370c17a9971d68c1d4354a03c2e","","Mozilla/5.0 (Windows NT 10.0) AppleWebKit/537.36 (KHTML, like Gecko) Chrome/107.0.0.0 Safari/537.36","WebKit","Chrome","107.0.0.0","Windows","10.0","null","null","","<p style=""font-size: 48px;"">+</p>","3","Filler","",""
"","","","","","sentence","44512","html-keyboard-response","76","296265","0.0-6.0-1.10","95","3","2022-11-17 12:28:19","fd252370c17a9971d68c1d4354a03c2e","","Mozilla/5.0 (Windows NT 10.0) AppleWebKit/537.36 (KHTML, like Gecko) Chrome/107.0.0.0 Safari/537.36","WebKit","Chrome","107.0.0.0","Windows","10.0","1651"," ","","A cabbage was placed on the table","3","Filler","",""
"","","","","","fixation","44512","html-keyboard-response","77","296780","0.0-6.0-2.10","95","3","2022-11-17 12:28:19","fd252370c17a9971d68c1d4354a03c2e","","Mozilla/5.0 (Windows NT 10.0) AppleWebKit/537.36 (KHTML, like Gecko) Chrome/107.0.0.0 Safari/537.36","WebKit","Chrome","107.0.0.0","Windows","10.0","null","null","","<p style=""font-size: 48px;"">+</p>","3","Filler","",""
"","","","","","picture","44512","image-keyboard-response","78","297824","0.0-6.0-3.10","95","3","2022-11-17 12:28:19","fd252370c17a9971d68c1d4354a03c2e","","Mozilla/5.0 (Windows NT 10.0) AppleWebKit/537.36 (KHTML, like Gecko) Chrome/107.0.0.0 Safari/537.36","WebKit","Chrome","107.0.0.0","Windows","10.0","1035","n","","ladder.jpg","3","Filler","true",""
"","","","","","fixation","44512","html-keyboard-response","79","298838","0.0-6.0-0.11","95","3","2022-11-17 12:28:19","fd252370c17a9971d68c1d4354a03c2e","","Mozilla/5.0 (Windows NT 10.0) AppleWebKit/537.36 (KHTML, like Gecko) Chrome/107.0.0.0 Safari/537.36","WebKit","Chrome","107.0.0.0","Windows","10.0","null","null","","<p style=""font-size: 48px;"">+</p>","3","Filler","",""
"","","","","","sentence","44512","html-keyboard-response","80","300160","0.0-6.0-1.11","95","3","2022-11-17 12:28:19","fd252370c17a9971d68c1d4354a03c2e","","Mozilla/5.0 (Windows NT 10.0) AppleWebKit/537.36 (KHTML, like Gecko) Chrome/107.0.0.0 Safari/537.36","WebKit","Chrome","107.0.0.0","Windows","10.0","1315"," ","","A postman is driving a car","3","Filler","",""
"","","","","","fixation","44512","html-keyboard-response","81","300669","0.0-6.0-2.11","95","3","2022-11-17 12:28:19","fd252370c17a9971d68c1d4354a03c2e","","Mozilla/5.0 (Windows NT 10.0) AppleWebKit/537.36 (KHTML, like Gecko) Chrome/107.0.0.0 Safari/537.36","WebKit","Chrome","107.0.0.0","Windows","10.0","null","null","","<p style=""font-size: 48px;"">+</p>","3","Filler","",""
"","","","","","picture","44512","image-keyboard-response","82","302768","0.0-6.0-3.11","95","3","2022-11-17 12:28:19","fd252370c17a9971d68c1d4354a03c2e","","Mozilla/5.0 (Windows NT 10.0) AppleWebKit/537.36 (KHTML, like Gecko) Chrome/107.0.0.0 Safari/537.36","WebKit","Chrome","107.0.0.0","Windows","10.0","2089","s","","car.jpg","3","Filler","true",""
"","","","","","fixation","44512","html-keyboard-response","83","303780","0.0-6.0-0.12","95","3","2022-11-17 12:28:19","fd252370c17a9971d68c1d4354a03c2e","","Mozilla/5.0 (Windows NT 10.0) AppleWebKit/537.36 (KHTML, like Gecko) Chrome/107.0.0.0 Safari/537.36","WebKit","Chrome","107.0.0.0","Windows","10.0","null","null","","<p style=""font-size: 48px;"">+</p>","3","Light_Contradictory","",""
"","","","","","sentence","44512","html-keyboard-response","84","305313","0.0-6.0-1.12","95","3","2022-11-17 12:28:19","fd252370c17a9971d68c1d4354a03c2e","","Mozilla/5.0 (Windows NT 10.0) AppleWebKit/537.36 (KHTML, like Gecko) Chrome/107.0.0.0 Safari/537.36","WebKit","Chrome","107.0.0.0","Windows","10.0","1525"," ","","A balloon dropped and smashed a banana","3","Light_Contradictory","",""
"","","","","","fixation","44512","html-keyboard-response","85","305829","0.0-6.0-2.12","95","3","2022-11-17 12:28:19","fd252370c17a9971d68c1d4354a03c2e","","Mozilla/5.0 (Windows NT 10.0) AppleWebKit/537.36 (KHTML, like Gecko) Chrome/107.0.0.0 Safari/537.36","WebKit","Chrome","107.0.0.0","Windows","10.0","null","null","","<p style=""font-size: 48px;"">+</p>","3","Light_Contradictory","",""
"","","","","","picture","44512","image-keyboard-response","86","306662","0.0-6.0-3.12","95","3","2022-11-17 12:28:19","fd252370c17a9971d68c1d4354a03c2e","","Mozilla/5.0 (Windows NT 10.0) AppleWebKit/537.36 (KHTML, like Gecko) Chrome/107.0.0.0 Safari/537.36","WebKit","Chrome","107.0.0.0","Windows","10.0","824","n","","bananaS.jpg","3","Light_Contradictory","false",""
"","","","","","fixation","44512","html-keyboard-response","87","307676","0.0-6.0-0.13","95","3","2022-11-17 12:28:19","fd252370c17a9971d68c1d4354a03c2e","","Mozilla/5.0 (Windows NT 10.0) AppleWebKit/537.36 (KHTML, like Gecko) Chrome/107.0.0.0 Safari/537.36","WebKit","Chrome","107.0.0.0","Windows","10.0","null","null","","<p style=""font-size: 48px;"">+</p>","3","Light_Contradictory","",""
"","","","","","sentence","44512","html-keyboard-response","88","310390","0.0-6.0-1.13","95","3","2022-11-17 12:28:19","fd252370c17a9971d68c1d4354a03c2e","","Mozilla/5.0 (Windows NT 10.0) AppleWebKit/537.36 (KHTML, like Gecko) Chrome/107.0.0.0 Safari/537.36","WebKit","Chrome","107.0.0.0","Windows","10.0","2704"," ","","A balloon dropped and smashed a blackberry","3","Light_Contradictory","",""
"","","","","","fixation","44512","html-keyboard-response","89","310900","0.0-6.0-2.13","95","3","2022-11-17 12:28:19","fd252370c17a9971d68c1d4354a03c2e","","Mozilla/5.0 (Windows NT 10.0) AppleWebKit/537.36 (KHTML, like Gecko) Chrome/107.0.0.0 Safari/537.36","WebKit","Chrome","107.0.0.0","Windows","10.0","null","null","","<p style=""font-size: 48px;"">+</p>","3","Light_Contradictory","",""
"","","","","","picture","44512","image-keyboard-response","90","312500","0.0-6.0-3.13","95","3","2022-11-17 12:28:19","fd252370c17a9971d68c1d4354a03c2e","","Mozilla/5.0 (Windows NT 10.0) AppleWebKit/537.36 (KHTML, like Gecko) Chrome/107.0.0.0 Safari/537.36","WebKit","Chrome","107.0.0.0","Windows","10.0","1590","n","","blackberryS.jpg","3","Light_Contradictory","false",""
"","","","","","fixation","44512","html-keyboard-response","91","313516","0.0-6.0-0.14","95","3","2022-11-17 12:28:19","fd252370c17a9971d68c1d4354a03c2e","","Mozilla/5.0 (Windows NT 10.0) AppleWebKit/537.36 (KHTML, like Gecko) Chrome/107.0.0.0 Safari/537.36","WebKit","Chrome","107.0.0.0","Windows","10.0","null","null","","<p style=""font-size: 48px;"">+</p>","3","Filler","",""
"","","","","","sentence","44512","html-keyboard-response","92","315712","0.0-6.0-1.14","95","3","2022-11-17 12:28:19","fd252370c17a9971d68c1d4354a03c2e","","Mozilla/5.0 (Windows NT 10.0) AppleWebKit/537.36 (KHTML, like Gecko) Chrome/107.0.0.0 Safari/537.36","WebKit","Chrome","107.0.0.0","Windows","10.0","2186"," ","","A cushion was placed on the magazine","3","Filler","",""
"","","","","","fixation","44512","html-keyboard-response","93","316228","0.0-6.0-2.14","95","3","2022-11-17 12:28:19","fd252370c17a9971d68c1d4354a03c2e","","Mozilla/5.0 (Windows NT 10.0) AppleWebKit/537.36 (KHTML, like Gecko) Chrome/107.0.0.0 Safari/537.36","WebKit","Chrome","107.0.0.0","Windows","10.0","null","null","","<p style=""font-size: 48px;"">+</p>","3","Filler","",""
"","","","","","picture","44512","image-keyboard-response","94","317699","0.0-6.0-3.14","95","3","2022-11-17 12:28:19","fd252370c17a9971d68c1d4354a03c2e","","Mozilla/5.0 (Windows NT 10.0) AppleWebKit/537.36 (KHTML, like Gecko) Chrome/107.0.0.0 Safari/537.36","WebKit","Chrome","107.0.0.0","Windows","10.0","1459","n","","box.jpg","3","Filler","true",""
"","","","","","fixation","44512","html-keyboard-response","95","318716","0.0-6.0-0.15","95","3","2022-11-17 12:28:19","fd252370c17a9971d68c1d4354a03c2e","","Mozilla/5.0 (Windows NT 10.0) AppleWebKit/537.36 (KHTML, like Gecko) Chrome/107.0.0.0 Safari/537.36","WebKit","Chrome","107.0.0.0","Windows","10.0","null","null","","<p style=""font-size: 48px;"">+</p>","3","Filler","",""
"","","","","","sentence","44512","html-keyboard-response","96","320456","0.0-6.0-1.15","95","3","2022-11-17 12:28:19","fd252370c17a9971d68c1d4354a03c2e","","Mozilla/5.0 (Windows NT 10.0) AppleWebKit/537.36 (KHTML, like Gecko) Chrome/107.0.0.0 Safari/537.36","WebKit","Chrome","107.0.0.0","Windows","10.0","1730"," ","","A man is boiling potatoes.","3","Filler","",""
"","","","","","fixation","44512","html-keyboard-response","97","320972","0.0-6.0-2.15","95","3","2022-11-17 12:28:19","fd252370c17a9971d68c1d4354a03c2e","","Mozilla/5.0 (Windows NT 10.0) AppleWebKit/537.36 (KHTML, like Gecko) Chrome/107.0.0.0 Safari/537.36","WebKit","Chrome","107.0.0.0","Windows","10.0","null","null","","<p style=""font-size: 48px;"">+</p>","3","Filler","",""
"","","","","","picture","44512","image-keyboard-response","98","322674","0.0-6.0-3.15","95","3","2022-11-17 12:28:19","fd252370c17a9971d68c1d4354a03c2e","","Mozilla/5.0 (Windows NT 10.0) AppleWebKit/537.36 (KHTML, like Gecko) Chrome/107.0.0.0 Safari/537.36","WebKit","Chrome","107.0.0.0","Windows","10.0","1670","n","","cup.jpg","3","Filler","true",""
"","","","","","fixation","44512","html-keyboard-response","99","323692","0.0-6.0-0.16","95","3","2022-11-17 12:28:19","fd252370c17a9971d68c1d4354a03c2e","","Mozilla/5.0 (Windows NT 10.0) AppleWebKit/537.36 (KHTML, like Gecko) Chrome/107.0.0.0 Safari/537.36","WebKit","Chrome","107.0.0.0","Windows","10.0","null","null","","<p style=""font-size: 48px;"">+</p>","3","Heavy_Matched","",""
"","","","","","sentence","44512","html-keyboard-response","100","326984","0.0-6.0-1.16","95","3","2022-11-17 12:28:19","fd252370c17a9971d68c1d4354a03c2e","","Mozilla/5.0 (Windows NT 10.0) AppleWebKit/537.36 (KHTML, like Gecko) Chrome/107.0.0.0 Safari/537.36","WebKit","Chrome","107.0.0.0","Windows","10.0","3280"," ","","A bowling ball dropped and smashed a light bulb","3","Heavy_Matched","",""
"","","","","","fixation","44512","html-keyboard-response","101","327499","0.0-6.0-2.16","95","3","2022-11-17 12:28:19","fd252370c17a9971d68c1d4354a03c2e","","Mozilla/5.0 (Windows NT 10.0) AppleWebKit/537.36 (KHTML, like Gecko) Chrome/107.0.0.0 Safari/537.36","WebKit","Chrome","107.0.0.0","Windows","10.0","null","null","","<p style=""font-size: 48px;"">+</p>","3","Heavy_Matched","",""
"","","","","","picture","44512","image-keyboard-response","102","328615","0.0-6.0-3.16","95","3","2022-11-17 12:28:19","fd252370c17a9971d68c1d4354a03c2e","","Mozilla/5.0 (Windows NT 10.0) AppleWebKit/537.36 (KHTML, like Gecko) Chrome/107.0.0.0 Safari/537.36","WebKit","Chrome","107.0.0.0","Windows","10.0","1103","s","","lampS.jpg","3","Heavy_Matched","true",""
"","","","","","fixation","44512","html-keyboard-response","103","329627","0.0-6.0-0.17","95","3","2022-11-17 12:28:19","fd252370c17a9971d68c1d4354a03c2e","","Mozilla/5.0 (Windows NT 10.0) AppleWebKit/537.36 (KHTML, like Gecko) Chrome/107.0.0.0 Safari/537.36","WebKit","Chrome","107.0.0.0","Windows","10.0","null","null","","<p style=""font-size: 48px;"">+</p>","3","Filler","",""
"","","","","","sentence","44512","html-keyboard-response","104","351464","0.0-6.0-1.17","95","3","2022-11-17 12:28:19","fd252370c17a9971d68c1d4354a03c2e","","Mozilla/5.0 (Windows NT 10.0) AppleWebKit/537.36 (KHTML, like Gecko) Chrome/107.0.0.0 Safari/537.36","WebKit","Chrome","107.0.0.0","Windows","10.0","21825"," ","","A hairdresser is taking scissors","3","Filler","",""
"","","","","","fixation","44512","html-keyboard-response","105","351979","0.0-6.0-2.17","95","3","2022-11-17 12:28:19","fd252370c17a9971d68c1d4354a03c2e","","Mozilla/5.0 (Windows NT 10.0) AppleWebKit/537.36 (KHTML, like Gecko) Chrome/107.0.0.0 Safari/537.36","WebKit","Chrome","107.0.0.0","Windows","10.0","null","null","","<p style=""font-size: 48px;"">+</p>","3","Filler","",""
"","","","","","picture","44512","image-keyboard-response","106","353456","0.0-6.0-3.17","95","3","2022-11-17 12:28:19","fd252370c17a9971d68c1d4354a03c2e","","Mozilla/5.0 (Windows NT 10.0) AppleWebKit/537.36 (KHTML, like Gecko) Chrome/107.0.0.0 Safari/537.36","WebKit","Chrome","107.0.0.0","Windows","10.0","1463","n","","sock.jpg","3","Filler","true",""
"","","","","","fixation","44512","html-keyboard-response","107","354476","0.0-6.0-0.18","95","3","2022-11-17 12:28:19","fd252370c17a9971d68c1d4354a03c2e","","Mozilla/5.0 (Windows NT 10.0) AppleWebKit/537.36 (KHTML, like Gecko) Chrome/107.0.0.0 Safari/537.36","WebKit","Chrome","107.0.0.0","Windows","10.0","null","null","","<p style=""font-size: 48px;"">+</p>","3","Filler","",""
"","","","","","sentence","44512","html-keyboard-response","108","356081","0.0-6.0-1.18","95","3","2022-11-17 12:28:19","fd252370c17a9971d68c1d4354a03c2e","","Mozilla/5.0 (Windows NT 10.0) AppleWebKit/537.36 (KHTML, like Gecko) Chrome/107.0.0.0 Safari/537.36","WebKit","Chrome","107.0.0.0","Windows","10.0","1594"," ","","A ring was placed on the newspaper","3","Filler","",""
"","","","","","fixation","44512","html-keyboard-response","109","356596","0.0-6.0-2.18","95","3","2022-11-17 12:28:19","fd252370c17a9971d68c1d4354a03c2e","","Mozilla/5.0 (Windows NT 10.0) AppleWebKit/537.36 (KHTML, like Gecko) Chrome/107.0.0.0 Safari/537.36","WebKit","Chrome","107.0.0.0","Windows","10.0","null","null","","<p style=""font-size: 48px;"">+</p>","3","Filler","",""
"","","","","","picture","44512","image-keyboard-response","110","357623","0.0-6.0-3.18","95","3","2022-11-17 12:28:19","fd252370c17a9971d68c1d4354a03c2e","","Mozilla/5.0 (Windows NT 10.0) AppleWebKit/537.36 (KHTML, like Gecko) Chrome/107.0.0.0 Safari/537.36","WebKit","Chrome","107.0.0.0","Windows","10.0","1014","n","","cat.jpg","3","Filler","true",""
"","","","","","fixation","44512","html-keyboard-response","111","358636","0.0-6.0-0.19","95","3","2022-11-17 12:28:19","fd252370c17a9971d68c1d4354a03c2e","","Mozilla/5.0 (Windows NT 10.0) AppleWebKit/537.36 (KHTML, like Gecko) Chrome/107.0.0.0 Safari/537.36","WebKit","Chrome","107.0.0.0","Windows","10.0","null","null","","<p style=""font-size: 48px;"">+</p>","3","Filler","",""
"","","","","","sentence","44512","html-keyboard-response","112","359863","0.0-6.0-1.19","95","3","2022-11-17 12:28:19","fd252370c17a9971d68c1d4354a03c2e","","Mozilla/5.0 (Windows NT 10.0) AppleWebKit/537.36 (KHTML, like Gecko) Chrome/107.0.0.0 Safari/537.36","WebKit","Chrome","107.0.0.0","Windows","10.0","1216"," ","","A parrot is eating an apple","3","Filler","",""
"","","","","","fixation","44512","html-keyboard-response","113","360379","0.0-6.0-2.19","95","3","2022-11-17 12:28:19","fd252370c17a9971d68c1d4354a03c2e","","Mozilla/5.0 (Windows NT 10.0) AppleWebKit/537.36 (KHTML, like Gecko) Chrome/107.0.0.0 Safari/537.36","WebKit","Chrome","107.0.0.0","Windows","10.0","null","null","","<p style=""font-size: 48px;"">+</p>","3","Filler","",""
"","","","","","picture","44512","image-keyboard-response","114","361460","0.0-6.0-3.19","95","3","2022-11-17 12:28:19","fd252370c17a9971d68c1d4354a03c2e","","Mozilla/5.0 (Windows NT 10.0) AppleWebKit/537.36 (KHTML, like Gecko) Chrome/107.0.0.0 Safari/537.36","WebKit","Chrome","107.0.0.0","Windows","10.0","1067","n","","shirt.jpg","3","Filler","true",""
"","","","","","fixation","44512","html-keyboard-response","115","362476","0.0-6.0-0.20","95","3","2022-11-17 12:28:19","fd252370c17a9971d68c1d4354a03c2e","","Mozilla/5.0 (Windows NT 10.0) AppleWebKit/537.36 (KHTML, like Gecko) Chrome/107.0.0.0 Safari/537.36","WebKit","Chrome","107.0.0.0","Windows","10.0","null","null","","<p style=""font-size: 48px;"">+</p>","3","Light_Matched","",""
"","","","","","sentence","44512","html-keyboard-response","116","364217","0.0-6.0-1.20","95","3","2022-11-17 12:28:19","fd252370c17a9971d68c1d4354a03c2e","","Mozilla/5.0 (Windows NT 10.0) AppleWebKit/537.36 (KHTML, like Gecko) Chrome/107.0.0.0 Safari/537.36","WebKit","Chrome","107.0.0.0","Windows","10.0","1729"," ","","A balloon dropped and touched a cracker","3","Light_Matched","",""
"","","","","","fixation","44512","html-keyboard-response","117","364731","0.0-6.0-2.20","95","3","2022-11-17 12:28:19","fd252370c17a9971d68c1d4354a03c2e","","Mozilla/5.0 (Windows NT 10.0) AppleWebKit/537.36 (KHTML, like Gecko) Chrome/107.0.0.0 Safari/537.36","WebKit","Chrome","107.0.0.0","Windows","10.0","null","null","","<p style=""font-size: 48px;"">+</p>","3","Light_Matched","",""
"","","","","","picture","44512","image-keyboard-response","118","366404","0.0-6.0-3.20","95","3","2022-11-17 12:28:19","fd252370c17a9971d68c1d4354a03c2e","","Mozilla/5.0 (Windows NT 10.0) AppleWebKit/537.36 (KHTML, like Gecko) Chrome/107.0.0.0 Safari/537.36","WebKit","Chrome","107.0.0.0","Windows","10.0","1659","s","","crackerS.jpg","3","Light_Matched","true",""
"","","","","","fixation","44512","html-keyboard-response","119","367412","0.0-6.0-0.21","95","3","2022-11-17 12:28:19","fd252370c17a9971d68c1d4354a03c2e","","Mozilla/5.0 (Windows NT 10.0) AppleWebKit/537.36 (KHTML, like Gecko) Chrome/107.0.0.0 Safari/537.36","WebKit","Chrome","107.0.0.0","Windows","10.0","null","null","","<p style=""font-size: 48px;"">+</p>","3","Light_Matched","",""
"","","","","","sentence","44512","html-keyboard-response","120","369517","0.0-6.0-1.21","95","3","2022-11-17 12:28:19","fd252370c17a9971d68c1d4354a03c2e","","Mozilla/5.0 (Windows NT 10.0) AppleWebKit/537.36 (KHTML, like Gecko) Chrome/107.0.0.0 Safari/537.36","WebKit","Chrome","107.0.0.0","Windows","10.0","2091"," ","","A balloon dropped and touched a wineglass","3","Light_Matched","",""
"","","","","","fixation","44512","html-keyboard-response","121","370037","0.0-6.0-2.21","95","3","2022-11-17 12:28:19","fd252370c17a9971d68c1d4354a03c2e","","Mozilla/5.0 (Windows NT 10.0) AppleWebKit/537.36 (KHTML, like Gecko) Chrome/107.0.0.0 Safari/537.36","WebKit","Chrome","107.0.0.0","Windows","10.0","null","null","","<p style=""font-size: 48px;"">+</p>","3","Light_Matched","",""
"","","","","","picture","44512","image-keyboard-response","122","371649","0.0-6.0-3.21","95","3","2022-11-17 12:28:19","fd252370c17a9971d68c1d4354a03c2e","","Mozilla/5.0 (Windows NT 10.0) AppleWebKit/537.36 (KHTML, like Gecko) Chrome/107.0.0.0 Safari/537.36","WebKit","Chrome","107.0.0.0","Windows","10.0","1598","s","","wineglassS.jpg","3","Light_Matched","true",""
"","","","","","fixation","44512","html-keyboard-response","123","372669","0.0-6.0-0.22","95","3","2022-11-17 12:28:19","fd252370c17a9971d68c1d4354a03c2e","","Mozilla/5.0 (Windows NT 10.0) AppleWebKit/537.36 (KHTML, like Gecko) Chrome/107.0.0.0 Safari/537.36","WebKit","Chrome","107.0.0.0","Windows","10.0","null","null","","<p style=""font-size: 48px;"">+</p>","3","Filler","",""
"","","","","","sentence","44512","html-keyboard-response","124","373925","0.0-6.0-1.22","95","3","2022-11-17 12:28:19","fd252370c17a9971d68c1d4354a03c2e","","Mozilla/5.0 (Windows NT 10.0) AppleWebKit/537.36 (KHTML, like Gecko) Chrome/107.0.0.0 Safari/537.36","WebKit","Chrome","107.0.0.0","Windows","10.0","1244"," ","","A donkey is drinking water.","3","Filler","",""
"","","","","","fixation","44512","html-keyboard-response","125","374444","0.0-6.0-2.22","95","3","2022-11-17 12:28:19","fd252370c17a9971d68c1d4354a03c2e","","Mozilla/5.0 (Windows NT 10.0) AppleWebKit/537.36 (KHTML, like Gecko) Chrome/107.0.0.0 Safari/537.36","WebKit","Chrome","107.0.0.0","Windows","10.0","null","null","","<p style=""font-size: 48px;"">+</p>","3","Filler","",""
"","","","","","picture","44512","image-keyboard-response","126","375447","0.0-6.0-3.22","95","3","2022-11-17 12:28:19","fd252370c17a9971d68c1d4354a03c2e","","Mozilla/5.0 (Windows NT 10.0) AppleWebKit/537.36 (KHTML, like Gecko) Chrome/107.0.0.0 Safari/537.36","WebKit","Chrome","107.0.0.0","Windows","10.0","990","n","","couch.jpg","3","Filler","true",""
"","","","","","fixation","44512","html-keyboard-response","127","376469","0.0-6.0-0.23","95","3","2022-11-17 12:28:19","fd252370c17a9971d68c1d4354a03c2e","","Mozilla/5.0 (Windows NT 10.0) AppleWebKit/537.36 (KHTML, like Gecko) Chrome/107.0.0.0 Safari/537.36","WebKit","Chrome","107.0.0.0","Windows","10.0","null","null","","<p style=""font-size: 48px;"">+</p>","3","Filler","",""
"","","","","","sentence","44512","html-keyboard-response","128","378463","0.0-6.0-1.23","95","3","2022-11-17 12:28:19","fd252370c17a9971d68c1d4354a03c2e","","Mozilla/5.0 (Windows NT 10.0) AppleWebKit/537.36 (KHTML, like Gecko) Chrome/107.0.0.0 Safari/537.36","WebKit","Chrome","107.0.0.0","Windows","10.0","1990"," ","","A thermometer was placed on the box","3","Filler","",""
"","","","","","fixation","44512","html-keyboard-response","129","378980","0.0-6.0-2.23","95","3","2022-11-17 12:28:19","fd252370c17a9971d68c1d4354a03c2e","","Mozilla/5.0 (Windows NT 10.0) AppleWebKit/537.36 (KHTML, like Gecko) Chrome/107.0.0.0 Safari/537.36","WebKit","Chrome","107.0.0.0","Windows","10.0","null","null","","<p style=""font-size: 48px;"">+</p>","3","Filler","",""
"","","","","","picture","44512","image-keyboard-response","130","380042","0.0-6.0-3.23","95","3","2022-11-17 12:28:19","fd252370c17a9971d68c1d4354a03c2e","","Mozilla/5.0 (Windows NT 10.0) AppleWebKit/537.36 (KHTML, like Gecko) Chrome/107.0.0.0 Safari/537.36","WebKit","Chrome","107.0.0.0","Windows","10.0","1047","n","","button.jpg","3","Filler","true",""
"","","","","","fixation","44512","html-keyboard-response","131","381060","0.0-6.0-0.24","95","3","2022-11-17 12:28:19","fd252370c17a9971d68c1d4354a03c2e","","Mozilla/5.0 (Windows NT 10.0) AppleWebKit/537.36 (KHTML, like Gecko) Chrome/107.0.0.0 Safari/537.36","WebKit","Chrome","107.0.0.0","Windows","10.0","null","null","","<p style=""font-size: 48px;"">+</p>","3","Filler","",""
"","","","","","sentence","44512","html-keyboard-response","132","383116","0.0-6.0-1.24","95","3","2022-11-17 12:28:19","fd252370c17a9971d68c1d4354a03c2e","","Mozilla/5.0 (Windows NT 10.0) AppleWebKit/537.36 (KHTML, like Gecko) Chrome/107.0.0.0 Safari/537.36","WebKit","Chrome","107.0.0.0","Windows","10.0","2043"," ","","A dentist is drinking a can of cola","3","Filler","",""
"","","","","","fixation","44512","html-keyboard-response","133","383637","0.0-6.0-2.24","95","3","2022-11-17 12:28:19","fd252370c17a9971d68c1d4354a03c2e","","Mozilla/5.0 (Windows NT 10.0) AppleWebKit/537.36 (KHTML, like Gecko) Chrome/107.0.0.0 Safari/537.36","WebKit","Chrome","107.0.0.0","Windows","10.0","null","null","","<p style=""font-size: 48px;"">+</p>","3","Filler","",""
"","","","","","picture","44512","image-keyboard-response","134","384746","0.0-6.0-3.24","95","3","2022-11-17 12:28:19","fd252370c17a9971d68c1d4354a03c2e","","Mozilla/5.0 (Windows NT 10.0) AppleWebKit/537.36 (KHTML, like Gecko) Chrome/107.0.0.0 Safari/537.36","WebKit","Chrome","107.0.0.0","Windows","10.0","1095","n","","doll.jpg","3","Filler","true",""
"","","","","","fixation","44512","html-keyboard-response","135","385764","0.0-6.0-0.25","95","3","2022-11-17 12:28:19","fd252370c17a9971d68c1d4354a03c2e","","Mozilla/5.0 (Windows NT 10.0) AppleWebKit/537.36 (KHTML, like Gecko) Chrome/107.0.0.0 Safari/537.36","WebKit","Chrome","107.0.0.0","Windows","10.0","null","null","","<p style=""font-size: 48px;"">+</p>","3","Filler","",""
"","","","","","sentence","44512","html-keyboard-response","136","387525","0.0-6.0-1.25","95","3","2022-11-17 12:28:19","fd252370c17a9971d68c1d4354a03c2e","","Mozilla/5.0 (Windows NT 10.0) AppleWebKit/537.36 (KHTML, like Gecko) Chrome/107.0.0.0 Safari/537.36","WebKit","Chrome","107.0.0.0","Windows","10.0","1748"," ","","A woman is taking money out of a wallet","3","Filler","",""
"","","","","","fixation","44512","html-keyboard-response","137","388044","0.0-6.0-2.25","95","3","2022-11-17 12:28:19","fd252370c17a9971d68c1d4354a03c2e","","Mozilla/5.0 (Windows NT 10.0) AppleWebKit/537.36 (KHTML, like Gecko) Chrome/107.0.0.0 Safari/537.36","WebKit","Chrome","107.0.0.0","Windows","10.0","null","null","","<p style=""font-size: 48px;"">+</p>","3","Filler","",""
"","","","","","picture","44512","image-keyboard-response","138","389115","0.0-6.0-3.25","95","3","2022-11-17 12:28:19","fd252370c17a9971d68c1d4354a03c2e","","Mozilla/5.0 (Windows NT 10.0) AppleWebKit/537.36 (KHTML, like Gecko) Chrome/107.0.0.0 Safari/537.36","WebKit","Chrome","107.0.0.0","Windows","10.0","1056","n","","coconut.jpg","3","Filler","true",""
"","","","","","fixation","44512","html-keyboard-response","139","390133","0.0-6.0-0.26","95","3","2022-11-17 12:28:19","fd252370c17a9971d68c1d4354a03c2e","","Mozilla/5.0 (Windows NT 10.0) AppleWebKit/537.36 (KHTML, like Gecko) Chrome/107.0.0.0 Safari/537.36","WebKit","Chrome","107.0.0.0","Windows","10.0","null","null","","<p style=""font-size: 48px;"">+</p>","3","Heavy_Matched","",""
"","","","","","sentence","44512","html-keyboard-response","140","391766","0.0-6.0-1.26","95","3","2022-11-17 12:28:19","fd252370c17a9971d68c1d4354a03c2e","","Mozilla/5.0 (Windows NT 10.0) AppleWebKit/537.36 (KHTML, like Gecko) Chrome/107.0.0.0 Safari/537.36","WebKit","Chrome","107.0.0.0","Windows","10.0","1620"," ","","A bowling ball dropped and smashed a mirror","3","Heavy_Matched","",""
"","","","","","fixation","44512","html-keyboard-response","141","392285","0.0-6.0-2.26","95","3","2022-11-17 12:28:19","fd252370c17a9971d68c1d4354a03c2e","","Mozilla/5.0 (Windows NT 10.0) AppleWebKit/537.36 (KHTML, like Gecko) Chrome/107.0.0.0 Safari/537.36","WebKit","Chrome","107.0.0.0","Windows","10.0","null","null","","<p style=""font-size: 48px;"">+</p>","3","Heavy_Matched","",""
"","","","","","picture","44512","image-keyboard-response","142","394040","0.0-6.0-3.26","95","3","2022-11-17 12:28:19","fd252370c17a9971d68c1d4354a03c2e","","Mozilla/5.0 (Windows NT 10.0) AppleWebKit/537.36 (KHTML, like Gecko) Chrome/107.0.0.0 Safari/537.36","WebKit","Chrome","107.0.0.0","Windows","10.0","1740","s","","mirrorS.jpg","3","Heavy_Matched","true",""
"","","","","","fixation","44512","html-keyboard-response","143","395061","0.0-6.0-0.27","95","3","2022-11-17 12:28:19","fd252370c17a9971d68c1d4354a03c2e","","Mozilla/5.0 (Windows NT 10.0) AppleWebKit/537.36 (KHTML, like Gecko) Chrome/107.0.0.0 Safari/537.36","WebKit","Chrome","107.0.0.0","Windows","10.0","null","null","","<p style=""font-size: 48px;"">+</p>","3","Heavy_Contradictory","",""
"","","","","","sentence","44512","html-keyboard-response","144","397233","0.0-6.0-1.27","95","3","2022-11-17 12:28:19","fd252370c17a9971d68c1d4354a03c2e","","Mozilla/5.0 (Windows NT 10.0) AppleWebKit/537.36 (KHTML, like Gecko) Chrome/107.0.0.0 Safari/537.36","WebKit","Chrome","107.0.0.0","Windows","10.0","2157"," ","","A bowling ball dropped and touched a tomato","3","Heavy_Contradictory","",""
"","","","","","fixation","44512","html-keyboard-response","145","397748","0.0-6.0-2.27","95","3","2022-11-17 12:28:19","fd252370c17a9971d68c1d4354a03c2e","","Mozilla/5.0 (Windows NT 10.0) AppleWebKit/537.36 (KHTML, like Gecko) Chrome/107.0.0.0 Safari/537.36","WebKit","Chrome","107.0.0.0","Windows","10.0","null","null","","<p style=""font-size: 48px;"">+</p>","3","Heavy_Contradictory","",""
"","","","","","picture","44512","image-keyboard-response","146","398771","0.0-6.0-3.27","95","3","2022-11-17 12:28:19","fd252370c17a9971d68c1d4354a03c2e","","Mozilla/5.0 (Windows NT 10.0) AppleWebKit/537.36 (KHTML, like Gecko) Chrome/107.0.0.0 Safari/537.36","WebKit","Chrome","107.0.0.0","Windows","10.0","1006","s","","tomatoS.jpg","3","Heavy_Contradictory","true",""
"","","","","","fixation","44512","html-keyboard-response","147","399789","0.0-6.0-0.28","95","3","2022-11-17 12:28:19","fd252370c17a9971d68c1d4354a03c2e","","Mozilla/5.0 (Windows NT 10.0) AppleWebKit/537.36 (KHTML, like Gecko) Chrome/107.0.0.0 Safari/537.36","WebKit","Chrome","107.0.0.0","Windows","10.0","null","null","","<p style=""font-size: 48px;"">+</p>","3","Heavy_Matched","",""
"","","","","","sentence","44512","html-keyboard-response","148","402373","0.0-6.0-1.28","95","3","2022-11-17 12:28:19","fd252370c17a9971d68c1d4354a03c2e","","Mozilla/5.0 (Windows NT 10.0) AppleWebKit/537.36 (KHTML, like Gecko) Chrome/107.0.0.0 Safari/537.36","WebKit","Chrome","107.0.0.0","Windows","10.0","2570"," ","","A bowling ball dropped and smashed a chocolate muffin","3","Heavy_Matched","",""
"","","","","","fixation","44512","html-keyboard-response","149","402892","0.0-6.0-2.28","95","3","2022-11-17 12:28:19","fd252370c17a9971d68c1d4354a03c2e","","Mozilla/5.0 (Windows NT 10.0) AppleWebKit/537.36 (KHTML, like Gecko) Chrome/107.0.0.0 Safari/537.36","WebKit","Chrome","107.0.0.0","Windows","10.0","null","null","","<p style=""font-size: 48px;"">+</p>","3","Heavy_Matched","",""
"","","","","","picture","44512","image-keyboard-response","150","404638","0.0-6.0-3.28","95","3","2022-11-17 12:28:19","fd252370c17a9971d68c1d4354a03c2e","","Mozilla/5.0 (Windows NT 10.0) AppleWebKit/537.36 (KHTML, like Gecko) Chrome/107.0.0.0 Safari/537.36","WebKit","Chrome","107.0.0.0","Windows","10.0","1730","s","","muffinS.jpg","3","Heavy_Matched","true",""
"","","","","","fixation","44512","html-keyboard-response","151","405661","0.0-6.0-0.29","95","3","2022-11-17 12:28:19","fd252370c17a9971d68c1d4354a03c2e","","Mozilla/5.0 (Windows NT 10.0) AppleWebKit/537.36 (KHTML, like Gecko) Chrome/107.0.0.0 Safari/537.36","WebKit","Chrome","107.0.0.0","Windows","10.0","null","null","","<p style=""font-size: 48px;"">+</p>","3","Filler","",""
"","","","","","sentence","44512","html-keyboard-response","152","407802","0.0-6.0-1.29","95","3","2022-11-17 12:28:19","fd252370c17a9971d68c1d4354a03c2e","","Mozilla/5.0 (Windows NT 10.0) AppleWebKit/537.36 (KHTML, like Gecko) Chrome/107.0.0.0 Safari/537.36","WebKit","Chrome","107.0.0.0","Windows","10.0","2126"," ","","A man is shaving his beard","3","Filler","",""
"","","","","","fixation","44512","html-keyboard-response","153","408325","0.0-6.0-2.29","95","3","2022-11-17 12:28:19","fd252370c17a9971d68c1d4354a03c2e","","Mozilla/5.0 (Windows NT 10.0) AppleWebKit/537.36 (KHTML, like Gecko) Chrome/107.0.0.0 Safari/537.36","WebKit","Chrome","107.0.0.0","Windows","10.0","null","null","","<p style=""font-size: 48px;"">+</p>","3","Filler","",""
"","","","","","picture","44512","image-keyboard-response","154","409465","0.0-6.0-3.29","95","3","2022-11-17 12:28:19","fd252370c17a9971d68c1d4354a03c2e","","Mozilla/5.0 (Windows NT 10.0) AppleWebKit/537.36 (KHTML, like Gecko) Chrome/107.0.0.0 Safari/537.36","WebKit","Chrome","107.0.0.0","Windows","10.0","1124","n","","clock.jpg","3","Filler","true",""
"","","","","","fixation","44512","html-keyboard-response","155","410484","0.0-6.0-0.30","95","3","2022-11-17 12:28:19","fd252370c17a9971d68c1d4354a03c2e","","Mozilla/5.0 (Windows NT 10.0) AppleWebKit/537.36 (KHTML, like Gecko) Chrome/107.0.0.0 Safari/537.36","WebKit","Chrome","107.0.0.0","Windows","10.0","null","null","","<p style=""font-size: 48px;"">+</p>","3","Filler","",""
"","","","","","sentence","44512","html-keyboard-response","156","411740","0.0-6.0-1.30","95","3","2022-11-17 12:28:19","fd252370c17a9971d68c1d4354a03c2e","","Mozilla/5.0 (Windows NT 10.0) AppleWebKit/537.36 (KHTML, like Gecko) Chrome/107.0.0.0 Safari/537.36","WebKit","Chrome","107.0.0.0","Windows","10.0","1241"," ","","A zebra is playing with a horse","3","Filler","",""
"","","","","","fixation","44512","html-keyboard-response","157","412261","0.0-6.0-2.30","95","3","2022-11-17 12:28:19","fd252370c17a9971d68c1d4354a03c2e","","Mozilla/5.0 (Windows NT 10.0) AppleWebKit/537.36 (KHTML, like Gecko) Chrome/107.0.0.0 Safari/537.36","WebKit","Chrome","107.0.0.0","Windows","10.0","null","null","","<p style=""font-size: 48px;"">+</p>","3","Filler","",""
"","","","","","picture","44512","image-keyboard-response","158","413295","0.0-6.0-3.30","95","3","2022-11-17 12:28:19","fd252370c17a9971d68c1d4354a03c2e","","Mozilla/5.0 (Windows NT 10.0) AppleWebKit/537.36 (KHTML, like Gecko) Chrome/107.0.0.0 Safari/537.36","WebKit","Chrome","107.0.0.0","Windows","10.0","1018","n","","watch.jpg","3","Filler","true",""
"","","","","","fixation","44512","html-keyboard-response","159","414316","0.0-6.0-0.31","95","3","2022-11-17 12:28:19","fd252370c17a9971d68c1d4354a03c2e","","Mozilla/5.0 (Windows NT 10.0) AppleWebKit/537.36 (KHTML, like Gecko) Chrome/107.0.0.0 Safari/537.36","WebKit","Chrome","107.0.0.0","Windows","10.0","null","null","","<p style=""font-size: 48px;"">+</p>","3","Filler","",""
"","","","","","sentence","44512","html-keyboard-response","160","416140","0.0-6.0-1.31","95","3","2022-11-17 12:28:19","fd252370c17a9971d68c1d4354a03c2e","","Mozilla/5.0 (Windows NT 10.0) AppleWebKit/537.36 (KHTML, like Gecko) Chrome/107.0.0.0 Safari/537.36","WebKit","Chrome","107.0.0.0","Windows","10.0","1809"," ","","An old man is hammering a nail","3","Filler","",""
"","","","","","fixation","44512","html-keyboard-response","161","416660","0.0-6.0-2.31","95","3","2022-11-17 12:28:19","fd252370c17a9971d68c1d4354a03c2e","","Mozilla/5.0 (Windows NT 10.0) AppleWebKit/537.36 (KHTML, like Gecko) Chrome/107.0.0.0 Safari/537.36","WebKit","Chrome","107.0.0.0","Windows","10.0","null","null","","<p style=""font-size: 48px;"">+</p>","3","Filler","",""
"","","","","","picture","44512","image-keyboard-response","162","417997","0.0-6.0-3.31","95","3","2022-11-17 12:28:19","fd252370c17a9971d68c1d4354a03c2e","","Mozilla/5.0 (Windows NT 10.0) AppleWebKit/537.36 (KHTML, like Gecko) Chrome/107.0.0.0 Safari/537.36","WebKit","Chrome","107.0.0.0","Windows","10.0","1322","s","","nail.jpg","3","Filler","true",""
"","","","","","fixation","44512","html-keyboard-response","163","419021","0.0-6.0-0.32","95","3","2022-11-17 12:28:19","fd252370c17a9971d68c1d4354a03c2e","","Mozilla/5.0 (Windows NT 10.0) AppleWebKit/537.36 (KHTML, like Gecko) Chrome/107.0.0.0 Safari/537.36","WebKit","Chrome","107.0.0.0","Windows","10.0","null","null","","<p style=""font-size: 48px;"">+</p>","3","Filler","",""
"","","","","","sentence","44512","html-keyboard-response","164","420327","0.0-6.0-1.32","95","3","2022-11-17 12:28:19","fd252370c17a9971d68c1d4354a03c2e","","Mozilla/5.0 (Windows NT 10.0) AppleWebKit/537.36 (KHTML, like Gecko) Chrome/107.0.0.0 Safari/537.36","WebKit","Chrome","107.0.0.0","Windows","10.0","1290"," ","","An owl is sitting on the branch","3","Filler","",""
"","","","","","fixation","44512","html-keyboard-response","165","420853","0.0-6.0-2.32","95","3","2022-11-17 12:28:19","fd252370c17a9971d68c1d4354a03c2e","","Mozilla/5.0 (Windows NT 10.0) AppleWebKit/537.36 (KHTML, like Gecko) Chrome/107.0.0.0 Safari/537.36","WebKit","Chrome","107.0.0.0","Windows","10.0","null","null","","<p style=""font-size: 48px;"">+</p>","3","Filler","",""
"","","","","","picture","44512","image-keyboard-response","166","422015","0.0-6.0-3.32","95","3","2022-11-17 12:28:19","fd252370c17a9971d68c1d4354a03c2e","","Mozilla/5.0 (Windows NT 10.0) AppleWebKit/537.36 (KHTML, like Gecko) Chrome/107.0.0.0 Safari/537.36","WebKit","Chrome","107.0.0.0","Windows","10.0","1146","n","","rubberduck.jpg","3","Filler","true",""
"","","","","","fixation","44512","html-keyboard-response","167","423036","0.0-6.0-0.33","95","3","2022-11-17 12:28:19","fd252370c17a9971d68c1d4354a03c2e","","Mozilla/5.0 (Windows NT 10.0) AppleWebKit/537.36 (KHTML, like Gecko) Chrome/107.0.0.0 Safari/537.36","WebKit","Chrome","107.0.0.0","Windows","10.0","null","null","","<p style=""font-size: 48px;"">+</p>","3","Light_Contradictory","",""
"","","","","","sentence","44512","html-keyboard-response","168","426334","0.0-6.0-1.33","95","3","2022-11-17 12:28:19","fd252370c17a9971d68c1d4354a03c2e","","Mozilla/5.0 (Windows NT 10.0) AppleWebKit/537.36 (KHTML, like Gecko) Chrome/107.0.0.0 Safari/537.36","WebKit","Chrome","107.0.0.0","Windows","10.0","3281"," ","","A balloon dropped and smashed glasses","3","Light_Contradictory","",""
"","","","","","fixation","44512","html-keyboard-response","169","426852","0.0-6.0-2.33","95","3","2022-11-17 12:28:19","fd252370c17a9971d68c1d4354a03c2e","","Mozilla/5.0 (Windows NT 10.0) AppleWebKit/537.36 (KHTML, like Gecko) Chrome/107.0.0.0 Safari/537.36","WebKit","Chrome","107.0.0.0","Windows","10.0","null","null","","<p style=""font-size: 48px;"">+</p>","3","Light_Contradictory","",""
"","","","","","picture","44512","image-keyboard-response","170","428023","0.0-6.0-3.33","95","3","2022-11-17 12:28:19","fd252370c17a9971d68c1d4354a03c2e","","Mozilla/5.0 (Windows NT 10.0) AppleWebKit/537.36 (KHTML, like Gecko) Chrome/107.0.0.0 Safari/537.36","WebKit","Chrome","107.0.0.0","Windows","10.0","1153","n","","glassesS.jpg","3","Light_Contradictory","false",""
"","","","","","fixation","44512","html-keyboard-response","171","429052","0.0-6.0-0.34","95","3","2022-11-17 12:28:19","fd252370c17a9971d68c1d4354a03c2e","","Mozilla/5.0 (Windows NT 10.0) AppleWebKit/537.36 (KHTML, like Gecko) Chrome/107.0.0.0 Safari/537.36","WebKit","Chrome","107.0.0.0","Windows","10.0","null","null","","<p style=""font-size: 48px;"">+</p>","3","Filler","",""
"","","","","","sentence","44512","html-keyboard-response","172","432034","0.0-6.0-1.34","95","3","2022-11-17 12:28:19","fd252370c17a9971d68c1d4354a03c2e","","Mozilla/5.0 (Windows NT 10.0) AppleWebKit/537.36 (KHTML, like Gecko) Chrome/107.0.0.0 Safari/537.36","WebKit","Chrome","107.0.0.0","Windows","10.0","2964"," ","","A pilot is reading a book","3","Filler","",""
"","","","","","fixation","44512","html-keyboard-response","173","432556","0.0-6.0-2.34","95","3","2022-11-17 12:28:19","fd252370c17a9971d68c1d4354a03c2e","","Mozilla/5.0 (Windows NT 10.0) AppleWebKit/537.36 (KHTML, like Gecko) Chrome/107.0.0.0 Safari/537.36","WebKit","Chrome","107.0.0.0","Windows","10.0","null","null","","<p style=""font-size: 48px;"">+</p>","3","Filler","",""
"","","","","","picture","44512","image-keyboard-response","174","433826","0.0-6.0-3.34","95","3","2022-11-17 12:28:19","fd252370c17a9971d68c1d4354a03c2e","","Mozilla/5.0 (Windows NT 10.0) AppleWebKit/537.36 (KHTML, like Gecko) Chrome/107.0.0.0 Safari/537.36","WebKit","Chrome","107.0.0.0","Windows","10.0","1253","n","","spoon.jpg","3","Filler","true",""
"","","","","","fixation","44512","html-keyboard-response","175","434844","0.0-6.0-0.35","95","3","2022-11-17 12:28:19","fd252370c17a9971d68c1d4354a03c2e","","Mozilla/5.0 (Windows NT 10.0) AppleWebKit/537.36 (KHTML, like Gecko) Chrome/107.0.0.0 Safari/537.36","WebKit","Chrome","107.0.0.0","Windows","10.0","null","null","","<p style=""font-size: 48px;"">+</p>","3","Heavy_Contradictory","",""
"","","","","","sentence","44512","html-keyboard-response","176","436960","0.0-6.0-1.35","95","3","2022-11-17 12:28:19","fd252370c17a9971d68c1d4354a03c2e","","Mozilla/5.0 (Windows NT 10.0) AppleWebKit/537.36 (KHTML, like Gecko) Chrome/107.0.0.0 Safari/537.36","WebKit","Chrome","107.0.0.0","Windows","10.0","2099"," ","","A bowling ball dropped and touched a tile","3","Heavy_Contradictory","",""
"","","","","","fixation","44512","html-keyboard-response","177","437476","0.0-6.0-2.35","95","3","2022-11-17 12:28:19","fd252370c17a9971d68c1d4354a03c2e","","Mozilla/5.0 (Windows NT 10.0) AppleWebKit/537.36 (KHTML, like Gecko) Chrome/107.0.0.0 Safari/537.36","WebKit","Chrome","107.0.0.0","Windows","10.0","null","null","","<p style=""font-size: 48px;"">+</p>","3","Heavy_Contradictory","",""
"","","","","","picture","44512","image-keyboard-response","178","438945","0.0-6.0-3.35","95","3","2022-11-17 12:28:19","fd252370c17a9971d68c1d4354a03c2e","","Mozilla/5.0 (Windows NT 10.0) AppleWebKit/537.36 (KHTML, like Gecko) Chrome/107.0.0.0 Safari/537.36","WebKit","Chrome","107.0.0.0","Windows","10.0","1451","s","","tileS.jpg","3","Heavy_Contradictory","true",""
"","","","","","fixation","44512","html-keyboard-response","179","439965","0.0-6.0-0.36","95","3","2022-11-17 12:28:19","fd252370c17a9971d68c1d4354a03c2e","","Mozilla/5.0 (Windows NT 10.0) AppleWebKit/537.36 (KHTML, like Gecko) Chrome/107.0.0.0 Safari/537.36","WebKit","Chrome","107.0.0.0","Windows","10.0","null","null","","<p style=""font-size: 48px;"">+</p>","3","Filler","",""
"","","","","","sentence","44512","html-keyboard-response","180","441262","0.0-6.0-1.36","95","3","2022-11-17 12:28:19","fd252370c17a9971d68c1d4354a03c2e","","Mozilla/5.0 (Windows NT 10.0) AppleWebKit/537.36 (KHTML, like Gecko) Chrome/107.0.0.0 Safari/537.36","WebKit","Chrome","107.0.0.0","Windows","10.0","1282"," ","","A boy is wearing a hat","3","Filler","",""
"","","","","","fixation","44512","html-keyboard-response","181","441780","0.0-6.0-2.36","95","3","2022-11-17 12:28:19","fd252370c17a9971d68c1d4354a03c2e","","Mozilla/5.0 (Windows NT 10.0) AppleWebKit/537.36 (KHTML, like Gecko) Chrome/107.0.0.0 Safari/537.36","WebKit","Chrome","107.0.0.0","Windows","10.0","null","null","","<p style=""font-size: 48px;"">+</p>","3","Filler","",""
"","","","","","picture","44512","image-keyboard-response","182","443885","0.0-6.0-3.36","95","3","2022-11-17 12:28:19","fd252370c17a9971d68c1d4354a03c2e","","Mozilla/5.0 (Windows NT 10.0) AppleWebKit/537.36 (KHTML, like Gecko) Chrome/107.0.0.0 Safari/537.36","WebKit","Chrome","107.0.0.0","Windows","10.0","2087","s","","hat.jpg","3","Filler","true",""
"","","","","","fixation","44512","html-keyboard-response","183","444908","0.0-6.0-0.37","95","3","2022-11-17 12:28:19","fd252370c17a9971d68c1d4354a03c2e","","Mozilla/5.0 (Windows NT 10.0) AppleWebKit/537.36 (KHTML, like Gecko) Chrome/107.0.0.0 Safari/537.36","WebKit","Chrome","107.0.0.0","Windows","10.0","null","null","","<p style=""font-size: 48px;"">+</p>","3","Filler","",""
"","","","","","sentence","44512","html-keyboard-response","184","446586","0.0-6.0-1.37","95","3","2022-11-17 12:28:19","fd252370c17a9971d68c1d4354a03c2e","","Mozilla/5.0 (Windows NT 10.0) AppleWebKit/537.36 (KHTML, like Gecko) Chrome/107.0.0.0 Safari/537.36","WebKit","Chrome","107.0.0.0","Windows","10.0","1661"," ","","A woman is paying with a debit card","3","Filler","",""
"","","","","","fixation","44512","html-keyboard-response","185","447108","0.0-6.0-2.37","95","3","2022-11-17 12:28:19","fd252370c17a9971d68c1d4354a03c2e","","Mozilla/5.0 (Windows NT 10.0) AppleWebKit/537.36 (KHTML, like Gecko) Chrome/107.0.0.0 Safari/537.36","WebKit","Chrome","107.0.0.0","Windows","10.0","null","null","","<p style=""font-size: 48px;"">+</p>","3","Filler","",""
"","","","","","picture","44512","image-keyboard-response","186","448097","0.0-6.0-3.37","95","3","2022-11-17 12:28:19","fd252370c17a9971d68c1d4354a03c2e","","Mozilla/5.0 (Windows NT 10.0) AppleWebKit/537.36 (KHTML, like Gecko) Chrome/107.0.0.0 Safari/537.36","WebKit","Chrome","107.0.0.0","Windows","10.0","969","n","","papercup.jpg","3","Filler","true",""
"","","","","","fixation","44512","html-keyboard-response","187","449117","0.0-6.0-0.38","95","3","2022-11-17 12:28:19","fd252370c17a9971d68c1d4354a03c2e","","Mozilla/5.0 (Windows NT 10.0) AppleWebKit/537.36 (KHTML, like Gecko) Chrome/107.0.0.0 Safari/537.36","WebKit","Chrome","107.0.0.0","Windows","10.0","null","null","","<p style=""font-size: 48px;"">+</p>","3","Filler","",""
"","","","","","sentence","44512","html-keyboard-response","188","450472","0.0-6.0-1.38","95","3","2022-11-17 12:28:19","fd252370c17a9971d68c1d4354a03c2e","","Mozilla/5.0 (Windows NT 10.0) AppleWebKit/537.36 (KHTML, like Gecko) Chrome/107.0.0.0 Safari/537.36","WebKit","Chrome","107.0.0.0","Windows","10.0","1338"," ","","A toothbrush was placed on the sponge","3","Filler","",""
"","","","","","fixation","44512","html-keyboard-response","189","450996","0.0-6.0-2.38","95","3","2022-11-17 12:28:19","fd252370c17a9971d68c1d4354a03c2e","","Mozilla/5.0 (Windows NT 10.0) AppleWebKit/537.36 (KHTML, like Gecko) Chrome/107.0.0.0 Safari/537.36","WebKit","Chrome","107.0.0.0","Windows","10.0","null","null","","<p style=""font-size: 48px;"">+</p>","3","Filler","",""
"","","","","","picture","44512","image-keyboard-response","190","452015","0.0-6.0-3.38","95","3","2022-11-17 12:28:19","fd252370c17a9971d68c1d4354a03c2e","","Mozilla/5.0 (Windows NT 10.0) AppleWebKit/537.36 (KHTML, like Gecko) Chrome/107.0.0.0 Safari/537.36","WebKit","Chrome","107.0.0.0","Windows","10.0","1000","n","","sponge.jpg","3","Filler","false",""
"","","","","","fixation","44512","html-keyboard-response","191","453037","0.0-6.0-0.39","95","3","2022-11-17 12:28:19","fd252370c17a9971d68c1d4354a03c2e","","Mozilla/5.0 (Windows NT 10.0) AppleWebKit/537.36 (KHTML, like Gecko) Chrome/107.0.0.0 Safari/537.36","WebKit","Chrome","107.0.0.0","Windows","10.0","null","null","","<p style=""font-size: 48px;"">+</p>","3","Filler","",""
"","","","","","sentence","44512","html-keyboard-response","192","454721","0.0-6.0-1.39","95","3","2022-11-17 12:28:19","fd252370c17a9971d68c1d4354a03c2e","","Mozilla/5.0 (Windows NT 10.0) AppleWebKit/537.36 (KHTML, like Gecko) Chrome/107.0.0.0 Safari/537.36","WebKit","Chrome","107.0.0.0","Windows","10.0","1666"," ","","An elephant is eating a watermelon","3","Filler","",""
"","","","","","fixation","44512","html-keyboard-response","193","455244","0.0-6.0-2.39","95","3","2022-11-17 12:28:19","fd252370c17a9971d68c1d4354a03c2e","","Mozilla/5.0 (Windows NT 10.0) AppleWebKit/537.36 (KHTML, like Gecko) Chrome/107.0.0.0 Safari/537.36","WebKit","Chrome","107.0.0.0","Windows","10.0","null","null","","<p style=""font-size: 48px;"">+</p>","3","Filler","",""
"","","","","","picture","44512","image-keyboard-response","194","456308","0.0-6.0-3.39","95","3","2022-11-17 12:28:19","fd252370c17a9971d68c1d4354a03c2e","","Mozilla/5.0 (Windows NT 10.0) AppleWebKit/537.36 (KHTML, like Gecko) Chrome/107.0.0.0 Safari/537.36","WebKit","Chrome","107.0.0.0","Windows","10.0","1045","s","","watermelon.jpg","3","Filler","true",""
"","","","","","fixation","44512","html-keyboard-response","195","457333","0.0-6.0-0.40","95","3","2022-11-17 12:28:19","fd252370c17a9971d68c1d4354a03c2e","","Mozilla/5.0 (Windows NT 10.0) AppleWebKit/537.36 (KHTML, like Gecko) Chrome/107.0.0.0 Safari/537.36","WebKit","Chrome","107.0.0.0","Windows","10.0","null","null","","<p style=""font-size: 48px;"">+</p>","3","Filler","",""
"","","","","","sentence","44512","html-keyboard-response","196","458440","0.0-6.0-1.40","95","3","2022-11-17 12:28:19","fd252370c17a9971d68c1d4354a03c2e","","Mozilla/5.0 (Windows NT 10.0) AppleWebKit/537.36 (KHTML, like Gecko) Chrome/107.0.0.0 Safari/537.36","WebKit","Chrome","107.0.0.0","Windows","10.0","1093"," ","","A butterfly is sitting on a flower","3","Filler","",""
"","","","","","fixation","44512","html-keyboard-response","197","458965","0.0-6.0-2.40","95","3","2022-11-17 12:28:19","fd252370c17a9971d68c1d4354a03c2e","","Mozilla/5.0 (Windows NT 10.0) AppleWebKit/537.36 (KHTML, like Gecko) Chrome/107.0.0.0 Safari/537.36","WebKit","Chrome","107.0.0.0","Windows","10.0","null","null","","<p style=""font-size: 48px;"">+</p>","3","Filler","",""
"","","","","","picture","44512","image-keyboard-response","198","459947","0.0-6.0-3.40","95","3","2022-11-17 12:28:19","fd252370c17a9971d68c1d4354a03c2e","","Mozilla/5.0 (Windows NT 10.0) AppleWebKit/537.36 (KHTML, like Gecko) Chrome/107.0.0.0 Safari/537.36","WebKit","Chrome","107.0.0.0","Windows","10.0","967","n","","soap.jpg","3","Filler","true",""
"","","","","","fixation","44512","html-keyboard-response","199","460965","0.0-6.0-0.41","95","3","2022-11-17 12:28:19","fd252370c17a9971d68c1d4354a03c2e","","Mozilla/5.0 (Windows NT 10.0) AppleWebKit/537.36 (KHTML, like Gecko) Chrome/107.0.0.0 Safari/537.36","WebKit","Chrome","107.0.0.0","Windows","10.0","null","null","","<p style=""font-size: 48px;"">+</p>","3","Heavy_Contradictory","",""
"","","","","","sentence","44512","html-keyboard-response","200","462800","0.0-6.0-1.41","95","3","2022-11-17 12:28:19","fd252370c17a9971d68c1d4354a03c2e","","Mozilla/5.0 (Windows NT 10.0) AppleWebKit/537.36 (KHTML, like Gecko) Chrome/107.0.0.0 Safari/537.36","WebKit","Chrome","107.0.0.0","Windows","10.0","1820"," ","","A bowling ball dropped and touched a vase","3","Heavy_Contradictory","",""
"","","","","","fixation","44512","html-keyboard-response","201","463316","0.0-6.0-2.41","95","3","2022-11-17 12:28:19","fd252370c17a9971d68c1d4354a03c2e","","Mozilla/5.0 (Windows NT 10.0) AppleWebKit/537.36 (KHTML, like Gecko) Chrome/107.0.0.0 Safari/537.36","WebKit","Chrome","107.0.0.0","Windows","10.0","null","null","","<p style=""font-size: 48px;"">+</p>","3","Heavy_Contradictory","",""
"","","","","","picture","44512","image-keyboard-response","202","464572","0.0-6.0-3.41","95","3","2022-11-17 12:28:19","fd252370c17a9971d68c1d4354a03c2e","","Mozilla/5.0 (Windows NT 10.0) AppleWebKit/537.36 (KHTML, like Gecko) Chrome/107.0.0.0 Safari/537.36","WebKit","Chrome","107.0.0.0","Windows","10.0","1235","s","","vaseS.jpg","3","Heavy_Contradictory","true",""
"","","","","","fixation","44512","html-keyboard-response","203","465597","0.0-6.0-0.42","95","3","2022-11-17 12:28:19","fd252370c17a9971d68c1d4354a03c2e","","Mozilla/5.0 (Windows NT 10.0) AppleWebKit/537.36 (KHTML, like Gecko) Chrome/107.0.0.0 Safari/537.36","WebKit","Chrome","107.0.0.0","Windows","10.0","null","null","","<p style=""font-size: 48px;"">+</p>","3","Filler","",""
"","","","","","sentence","44512","html-keyboard-response","204","466998","0.0-6.0-1.42","95","3","2022-11-17 12:28:19","fd252370c17a9971d68c1d4354a03c2e","","Mozilla/5.0 (Windows NT 10.0) AppleWebKit/537.36 (KHTML, like Gecko) Chrome/107.0.0.0 Safari/537.36","WebKit","Chrome","107.0.0.0","Windows","10.0","1383"," ","","A photographer is taking a photo of a lion","3","Filler","",""
"","","","","","fixation","44512","html-keyboard-response","205","467524","0.0-6.0-2.42","95","3","2022-11-17 12:28:19","fd252370c17a9971d68c1d4354a03c2e","","Mozilla/5.0 (Windows NT 10.0) AppleWebKit/537.36 (KHTML, like Gecko) Chrome/107.0.0.0 Safari/537.36","WebKit","Chrome","107.0.0.0","Windows","10.0","null","null","","<p style=""font-size: 48px;"">+</p>","3","Filler","",""
"","","","","","picture","44512","image-keyboard-response","206","468628","0.0-6.0-3.42","95","3","2022-11-17 12:28:19","fd252370c17a9971d68c1d4354a03c2e","","Mozilla/5.0 (Windows NT 10.0) AppleWebKit/537.36 (KHTML, like Gecko) Chrome/107.0.0.0 Safari/537.36","WebKit","Chrome","107.0.0.0","Windows","10.0","1084","s","","lion.jpg","3","Filler","true",""
"","","","","","fixation","44512","html-keyboard-response","207","469652","0.0-6.0-0.43","95","3","2022-11-17 12:28:19","fd252370c17a9971d68c1d4354a03c2e","","Mozilla/5.0 (Windows NT 10.0) AppleWebKit/537.36 (KHTML, like Gecko) Chrome/107.0.0.0 Safari/537.36","WebKit","Chrome","107.0.0.0","Windows","10.0","null","null","","<p style=""font-size: 48px;"">+</p>","3","Filler","",""
"","","","","","sentence","44512","html-keyboard-response","208","471191","0.0-6.0-1.43","95","3","2022-11-17 12:28:19","fd252370c17a9971d68c1d4354a03c2e","","Mozilla/5.0 (Windows NT 10.0) AppleWebKit/537.36 (KHTML, like Gecko) Chrome/107.0.0.0 Safari/537.36","WebKit","Chrome","107.0.0.0","Windows","10.0","1523"," ","","A fork was placed on the plate","3","Filler","",""
"","","","","","fixation","44512","html-keyboard-response","209","471708","0.0-6.0-2.43","95","3","2022-11-17 12:28:19","fd252370c17a9971d68c1d4354a03c2e","","Mozilla/5.0 (Windows NT 10.0) AppleWebKit/537.36 (KHTML, like Gecko) Chrome/107.0.0.0 Safari/537.36","WebKit","Chrome","107.0.0.0","Windows","10.0","null","null","","<p style=""font-size: 48px;"">+</p>","3","Filler","",""
"","","","","","picture","44512","image-keyboard-response","210","473162","0.0-6.0-3.43","95","3","2022-11-17 12:28:19","fd252370c17a9971d68c1d4354a03c2e","","Mozilla/5.0 (Windows NT 10.0) AppleWebKit/537.36 (KHTML, like Gecko) Chrome/107.0.0.0 Safari/537.36","WebKit","Chrome","107.0.0.0","Windows","10.0","1434","s","","plate.jpg","3","Filler","true",""
"","","","","","fixation","44512","html-keyboard-response","211","474180","0.0-6.0-0.44","95","3","2022-11-17 12:28:19","fd252370c17a9971d68c1d4354a03c2e","","Mozilla/5.0 (Windows NT 10.0) AppleWebKit/537.36 (KHTML, like Gecko) Chrome/107.0.0.0 Safari/537.36","WebKit","Chrome","107.0.0.0","Windows","10.0","null","null","","<p style=""font-size: 48px;"">+</p>","3","Filler","",""
"","","","","","sentence","44512","html-keyboard-response","212","475833","0.0-6.0-1.44","95","3","2022-11-17 12:28:19","fd252370c17a9971d68c1d4354a03c2e","","Mozilla/5.0 (Windows NT 10.0) AppleWebKit/537.36 (KHTML, like Gecko) Chrome/107.0.0.0 Safari/537.36","WebKit","Chrome","107.0.0.0","Windows","10.0","1636"," ","","A musician is playing a guitar","3","Filler","",""
"","","","","","fixation","44512","html-keyboard-response","213","476357","0.0-6.0-2.44","95","3","2022-11-17 12:28:19","fd252370c17a9971d68c1d4354a03c2e","","Mozilla/5.0 (Windows NT 10.0) AppleWebKit/537.36 (KHTML, like Gecko) Chrome/107.0.0.0 Safari/537.36","WebKit","Chrome","107.0.0.0","Windows","10.0","null","null","","<p style=""font-size: 48px;"">+</p>","3","Filler","",""
"","","","","","picture","44512","image-keyboard-response","214","477387","0.0-6.0-3.44","95","3","2022-11-17 12:28:19","fd252370c17a9971d68c1d4354a03c2e","","Mozilla/5.0 (Windows NT 10.0) AppleWebKit/537.36 (KHTML, like Gecko) Chrome/107.0.0.0 Safari/537.36","WebKit","Chrome","107.0.0.0","Windows","10.0","1010","s","","guitar.jpg","3","Filler","true",""
"","","","","","fixation","44512","html-keyboard-response","215","478413","0.0-6.0-0.45","95","3","2022-11-17 12:28:19","fd252370c17a9971d68c1d4354a03c2e","","Mozilla/5.0 (Windows NT 10.0) AppleWebKit/537.36 (KHTML, like Gecko) Chrome/107.0.0.0 Safari/537.36","WebKit","Chrome","107.0.0.0","Windows","10.0","null","null","","<p style=""font-size: 48px;"">+</p>","3","Filler","",""
"","","","","","sentence","44512","html-keyboard-response","216","479609","0.0-6.0-1.45","95","3","2022-11-17 12:28:19","fd252370c17a9971d68c1d4354a03c2e","","Mozilla/5.0 (Windows NT 10.0) AppleWebKit/537.36 (KHTML, like Gecko) Chrome/107.0.0.0 Safari/537.36","WebKit","Chrome","107.0.0.0","Windows","10.0","1178"," ","","A thief is stealing a wallet","3","Filler","",""
"","","","","","fixation","44512","html-keyboard-response","217","480132","0.0-6.0-2.45","95","3","2022-11-17 12:28:19","fd252370c17a9971d68c1d4354a03c2e","","Mozilla/5.0 (Windows NT 10.0) AppleWebKit/537.36 (KHTML, like Gecko) Chrome/107.0.0.0 Safari/537.36","WebKit","Chrome","107.0.0.0","Windows","10.0","null","null","","<p style=""font-size: 48px;"">+</p>","3","Filler","",""
"","","","","","picture","44512","image-keyboard-response","218","481305","0.0-6.0-3.45","95","3","2022-11-17 12:28:19","fd252370c17a9971d68c1d4354a03c2e","","Mozilla/5.0 (Windows NT 10.0) AppleWebKit/537.36 (KHTML, like Gecko) Chrome/107.0.0.0 Safari/537.36","WebKit","Chrome","107.0.0.0","Windows","10.0","1153","n","","teddybear.jpg","3","Filler","true",""
"","","","","","fixation","44512","html-keyboard-response","219","482332","0.0-6.0-0.46","95","3","2022-11-17 12:28:19","fd252370c17a9971d68c1d4354a03c2e","","Mozilla/5.0 (Windows NT 10.0) AppleWebKit/537.36 (KHTML, like Gecko) Chrome/107.0.0.0 Safari/537.36","WebKit","Chrome","107.0.0.0","Windows","10.0","null","null","","<p style=""font-size: 48px;"">+</p>","3","Light_Matched","",""
"","","","","","sentence","44512","html-keyboard-response","220","483526","0.0-6.0-1.46","95","3","2022-11-17 12:28:19","fd252370c17a9971d68c1d4354a03c2e","","Mozilla/5.0 (Windows NT 10.0) AppleWebKit/537.36 (KHTML, like Gecko) Chrome/107.0.0.0 Safari/537.36","WebKit","Chrome","107.0.0.0","Windows","10.0","1177"," ","","A balloon dropped and touched an egg","3","Light_Matched","",""
"","","","","","fixation","44512","html-keyboard-response","221","484053","0.0-6.0-2.46","95","3","2022-11-17 12:28:19","fd252370c17a9971d68c1d4354a03c2e","","Mozilla/5.0 (Windows NT 10.0) AppleWebKit/537.36 (KHTML, like Gecko) Chrome/107.0.0.0 Safari/537.36","WebKit","Chrome","107.0.0.0","Windows","10.0","null","null","","<p style=""font-size: 48px;"">+</p>","3","Light_Matched","",""
"","","","","","picture","44512","image-keyboard-response","222","485176","0.0-6.0-3.46","95","3","2022-11-17 12:28:19","fd252370c17a9971d68c1d4354a03c2e","","Mozilla/5.0 (Windows NT 10.0) AppleWebKit/537.36 (KHTML, like Gecko) Chrome/107.0.0.0 Safari/537.36","WebKit","Chrome","107.0.0.0","Windows","10.0","1103","s","","eggS.jpg","3","Light_Matched","true",""
"","","","","","fixation","44512","html-keyboard-response","223","486197","0.0-6.0-0.47","95","3","2022-11-17 12:28:19","fd252370c17a9971d68c1d4354a03c2e","","Mozilla/5.0 (Windows NT 10.0) AppleWebKit/537.36 (KHTML, like Gecko) Chrome/107.0.0.0 Safari/537.36","WebKit","Chrome","107.0.0.0","Windows","10.0","null","null","","<p style=""font-size: 48px;"">+</p>","3","Filler","",""
"","","","","","sentence","44512","html-keyboard-response","224","487533","0.0-6.0-1.47","95","3","2022-11-17 12:28:19","fd252370c17a9971d68c1d4354a03c2e","","Mozilla/5.0 (Windows NT 10.0) AppleWebKit/537.36 (KHTML, like Gecko) Chrome/107.0.0.0 Safari/537.36","WebKit","Chrome","107.0.0.0","Windows","10.0","1318"," ","","A puppy is playing with a ball","3","Filler","",""
"","","","","","fixation","44512","html-keyboard-response","225","488060","0.0-6.0-2.47","95","3","2022-11-17 12:28:19","fd252370c17a9971d68c1d4354a03c2e","","Mozilla/5.0 (Windows NT 10.0) AppleWebKit/537.36 (KHTML, like Gecko) Chrome/107.0.0.0 Safari/537.36","WebKit","Chrome","107.0.0.0","Windows","10.0","null","null","","<p style=""font-size: 48px;"">+</p>","3","Filler","",""
"","","","","","picture","44512","image-keyboard-response","226","488904","0.0-6.0-3.47","95","3","2022-11-17 12:28:19","fd252370c17a9971d68c1d4354a03c2e","","Mozilla/5.0 (Windows NT 10.0) AppleWebKit/537.36 (KHTML, like Gecko) Chrome/107.0.0.0 Safari/537.36","WebKit","Chrome","107.0.0.0","Windows","10.0","822","s","","tennisball.jpg","3","Filler","true",""
"","","","","","fixation","44512","html-keyboard-response","227","489924","0.0-6.0-0.48","95","3","2022-11-17 12:28:19","fd252370c17a9971d68c1d4354a03c2e","","Mozilla/5.0 (Windows NT 10.0) AppleWebKit/537.36 (KHTML, like Gecko) Chrome/107.0.0.0 Safari/537.36","WebKit","Chrome","107.0.0.0","Windows","10.0","null","null","","<p style=""font-size: 48px;"">+</p>","3","Heavy_Matched","",""
"","","","","","sentence","44512","html-keyboard-response","228","491404","0.0-6.0-1.48","95","3","2022-11-17 12:28:19","fd252370c17a9971d68c1d4354a03c2e","","Mozilla/5.0 (Windows NT 10.0) AppleWebKit/537.36 (KHTML, like Gecko) Chrome/107.0.0.0 Safari/537.36","WebKit","Chrome","107.0.0.0","Windows","10.0","1460"," ","","A bowling ball dropped and smashed a rice cake","3","Heavy_Matched","",""
"","","","","","fixation","44512","html-keyboard-response","229","491925","0.0-6.0-2.48","95","3","2022-11-17 12:28:19","fd252370c17a9971d68c1d4354a03c2e","","Mozilla/5.0 (Windows NT 10.0) AppleWebKit/537.36 (KHTML, like Gecko) Chrome/107.0.0.0 Safari/537.36","WebKit","Chrome","107.0.0.0","Windows","10.0","null","null","","<p style=""font-size: 48px;"">+</p>","3","Heavy_Matched","",""
"","","","","","picture","44512","image-keyboard-response","230","493559","0.0-6.0-3.48","95","3","2022-11-17 12:28:19","fd252370c17a9971d68c1d4354a03c2e","","Mozilla/5.0 (Windows NT 10.0) AppleWebKit/537.36 (KHTML, like Gecko) Chrome/107.0.0.0 Safari/537.36","WebKit","Chrome","107.0.0.0","Windows","10.0","1614","s","","tortitaS.jpg","3","Heavy_Matched","true",""
"","","","","","fixation","44512","html-keyboard-response","231","494580","0.0-6.0-0.49","95","3","2022-11-17 12:28:19","fd252370c17a9971d68c1d4354a03c2e","","Mozilla/5.0 (Windows NT 10.0) AppleWebKit/537.36 (KHTML, like Gecko) Chrome/107.0.0.0 Safari/537.36","WebKit","Chrome","107.0.0.0","Windows","10.0","null","null","","<p style=""font-size: 48px;"">+</p>","3","Filler","",""
"","","","","","sentence","44512","html-keyboard-response","232","496351","0.0-6.0-1.49","95","3","2022-11-17 12:28:19","fd252370c17a9971d68c1d4354a03c2e","","Mozilla/5.0 (Windows NT 10.0) AppleWebKit/537.36 (KHTML, like Gecko) Chrome/107.0.0.0 Safari/537.36","WebKit","Chrome","107.0.0.0","Windows","10.0","1754"," ","","A kitten is playing in the sandbox","3","Filler","",""
"","","","","","fixation","44512","html-keyboard-response","233","496876","0.0-6.0-2.49","95","3","2022-11-17 12:28:19","fd252370c17a9971d68c1d4354a03c2e","","Mozilla/5.0 (Windows NT 10.0) AppleWebKit/537.36 (KHTML, like Gecko) Chrome/107.0.0.0 Safari/537.36","WebKit","Chrome","107.0.0.0","Windows","10.0","null","null","","<p style=""font-size: 48px;"">+</p>","3","Filler","",""
"","","","","","picture","44512","image-keyboard-response","234","498330","0.0-6.0-3.49","95","3","2022-11-17 12:28:19","fd252370c17a9971d68c1d4354a03c2e","","Mozilla/5.0 (Windows NT 10.0) AppleWebKit/537.36 (KHTML, like Gecko) Chrome/107.0.0.0 Safari/537.36","WebKit","Chrome","107.0.0.0","Windows","10.0","1431","n","","dustbin.jpg","3","Filler","true",""
"","","","","","fixation","44512","html-keyboard-response","235","499356","0.0-6.0-0.50","95","3","2022-11-17 12:28:19","fd252370c17a9971d68c1d4354a03c2e","","Mozilla/5.0 (Windows NT 10.0) AppleWebKit/537.36 (KHTML, like Gecko) Chrome/107.0.0.0 Safari/537.36","WebKit","Chrome","107.0.0.0","Windows","10.0","null","null","","<p style=""font-size: 48px;"">+</p>","3","Light_Contradictory","",""
"","","","","","sentence","44512","html-keyboard-response","236","501338","0.0-6.0-1.50","95","3","2022-11-17 12:28:19","fd252370c17a9971d68c1d4354a03c2e","","Mozilla/5.0 (Windows NT 10.0) AppleWebKit/537.36 (KHTML, like Gecko) Chrome/107.0.0.0 Safari/537.36","WebKit","Chrome","107.0.0.0","Windows","10.0","1963"," ","","A balloon dropped and smashed a chocolate ice-cream","3","Light_Contradictory","",""
"","","","","","fixation","44512","html-keyboard-response","237","501860","0.0-6.0-2.50","95","3","2022-11-17 12:28:19","fd252370c17a9971d68c1d4354a03c2e","","Mozilla/5.0 (Windows NT 10.0) AppleWebKit/537.36 (KHTML, like Gecko) Chrome/107.0.0.0 Safari/537.36","WebKit","Chrome","107.0.0.0","Windows","10.0","null","null","","<p style=""font-size: 48px;"">+</p>","3","Light_Contradictory","",""
"","","","","","picture","44512","image-keyboard-response","238","503206","0.0-6.0-3.50","95","3","2022-11-17 12:28:19","fd252370c17a9971d68c1d4354a03c2e","","Mozilla/5.0 (Windows NT 10.0) AppleWebKit/537.36 (KHTML, like Gecko) Chrome/107.0.0.0 Safari/537.36","WebKit","Chrome","107.0.0.0","Windows","10.0","1326","s","","icecreamS.jpg","3","Light_Contradictory","true",""
"","","","","","fixation","44512","html-keyboard-response","239","504229","0.0-6.0-0.51","95","3","2022-11-17 12:28:19","fd252370c17a9971d68c1d4354a03c2e","","Mozilla/5.0 (Windows NT 10.0) AppleWebKit/537.36 (KHTML, like Gecko) Chrome/107.0.0.0 Safari/537.36","WebKit","Chrome","107.0.0.0","Windows","10.0","null","null","","<p style=""font-size: 48px;"">+</p>","3","Filler","",""
"","","","","","sentence","44512","html-keyboard-response","240","506697","0.0-6.0-1.51","95","3","2022-11-17 12:28:19","fd252370c17a9971d68c1d4354a03c2e","","Mozilla/5.0 (Windows NT 10.0) AppleWebKit/537.36 (KHTML, like Gecko) Chrome/107.0.0.0 Safari/537.36","WebKit","Chrome","107.0.0.0","Windows","10.0","2450"," ","","A nurse is taking a syringe","3","Filler","",""
"","","","","","fixation","44512","html-keyboard-response","241","507220","0.0-6.0-2.51","95","3","2022-11-17 12:28:19","fd252370c17a9971d68c1d4354a03c2e","","Mozilla/5.0 (Windows NT 10.0) AppleWebKit/537.36 (KHTML, like Gecko) Chrome/107.0.0.0 Safari/537.36","WebKit","Chrome","107.0.0.0","Windows","10.0","null","null","","<p style=""font-size: 48px;"">+</p>","3","Filler","",""
"","","","","","picture","44512","image-keyboard-response","242","508169","0.0-6.0-3.51","95","3","2022-11-17 12:28:19","fd252370c17a9971d68c1d4354a03c2e","","Mozilla/5.0 (Windows NT 10.0) AppleWebKit/537.36 (KHTML, like Gecko) Chrome/107.0.0.0 Safari/537.36","WebKit","Chrome","107.0.0.0","Windows","10.0","931","n","","headphones.jpg","3","Filler","true",""
"","","","","","fixation","44512","html-keyboard-response","243","509196","0.0-6.0-0.52","95","3","2022-11-17 12:28:19","fd252370c17a9971d68c1d4354a03c2e","","Mozilla/5.0 (Windows NT 10.0) AppleWebKit/537.36 (KHTML, like Gecko) Chrome/107.0.0.0 Safari/537.36","WebKit","Chrome","107.0.0.0","Windows","10.0","null","null","","<p style=""font-size: 48px;"">+</p>","3","Filler","",""
"","","","","","sentence","44512","html-keyboard-response","244","510339","0.0-6.0-1.52","95","3","2022-11-17 12:28:19","fd252370c17a9971d68c1d4354a03c2e","","Mozilla/5.0 (Windows NT 10.0) AppleWebKit/537.36 (KHTML, like Gecko) Chrome/107.0.0.0 Safari/537.36","WebKit","Chrome","107.0.0.0","Windows","10.0","1123"," ","","A panda is resting on a tree","3","Filler","",""
"","","","","","fixation","44512","html-keyboard-response","245","510859","0.0-6.0-2.52","95","3","2022-11-17 12:28:19","fd252370c17a9971d68c1d4354a03c2e","","Mozilla/5.0 (Windows NT 10.0) AppleWebKit/537.36 (KHTML, like Gecko) Chrome/107.0.0.0 Safari/537.36","WebKit","Chrome","107.0.0.0","Windows","10.0","null","null","","<p style=""font-size: 48px;"">+</p>","3","Filler","",""
"","","","","","picture","44512","image-keyboard-response","246","511803","0.0-6.0-3.52","95","3","2022-11-17 12:28:19","fd252370c17a9971d68c1d4354a03c2e","","Mozilla/5.0 (Windows NT 10.0) AppleWebKit/537.36 (KHTML, like Gecko) Chrome/107.0.0.0 Safari/537.36","WebKit","Chrome","107.0.0.0","Windows","10.0","925","n","","dollar.jpg","3","Filler","true",""
"","","","","","fixation","44512","html-keyboard-response","247","512828","0.0-6.0-0.53","95","3","2022-11-17 12:28:19","fd252370c17a9971d68c1d4354a03c2e","","Mozilla/5.0 (Windows NT 10.0) AppleWebKit/537.36 (KHTML, like Gecko) Chrome/107.0.0.0 Safari/537.36","WebKit","Chrome","107.0.0.0","Windows","10.0","null","null","","<p style=""font-size: 48px;"">+</p>","3","Filler","",""
"","","","","","sentence","44512","html-keyboard-response","248","514348","0.0-6.0-1.53","95","3","2022-11-17 12:28:19","fd252370c17a9971d68c1d4354a03c2e","","Mozilla/5.0 (Windows NT 10.0) AppleWebKit/537.36 (KHTML, like Gecko) Chrome/107.0.0.0 Safari/537.36","WebKit","Chrome","107.0.0.0","Windows","10.0","1503"," ","","An astronaut is putting on a space suit","3","Filler","",""
"","","","","","fixation","44512","html-keyboard-response","249","514869","0.0-6.0-2.53","95","3","2022-11-17 12:28:19","fd252370c17a9971d68c1d4354a03c2e","","Mozilla/5.0 (Windows NT 10.0) AppleWebKit/537.36 (KHTML, like Gecko) Chrome/107.0.0.0 Safari/537.36","WebKit","Chrome","107.0.0.0","Windows","10.0","null","null","","<p style=""font-size: 48px;"">+</p>","3","Filler","",""
"","","","","","picture","44512","image-keyboard-response","250","515972","0.0-6.0-3.53","95","3","2022-11-17 12:28:19","fd252370c17a9971d68c1d4354a03c2e","","Mozilla/5.0 (Windows NT 10.0) AppleWebKit/537.36 (KHTML, like Gecko) Chrome/107.0.0.0 Safari/537.36","WebKit","Chrome","107.0.0.0","Windows","10.0","1084","s","","spacesuit.jpg","3","Filler","true",""
"","","","","","fixation","44512","html-keyboard-response","251","516997","0.0-6.0-0.54","95","3","2022-11-17 12:28:19","fd252370c17a9971d68c1d4354a03c2e","","Mozilla/5.0 (Windows NT 10.0) AppleWebKit/537.36 (KHTML, like Gecko) Chrome/107.0.0.0 Safari/537.36","WebKit","Chrome","107.0.0.0","Windows","10.0","null","null","","<p style=""font-size: 48px;"">+</p>","3","Filler","",""
"","","","","","sentence","44512","html-keyboard-response","252","518569","0.0-6.0-1.54","95","3","2022-11-17 12:28:19","fd252370c17a9971d68c1d4354a03c2e","","Mozilla/5.0 (Windows NT 10.0) AppleWebKit/537.36 (KHTML, like Gecko) Chrome/107.0.0.0 Safari/537.36","WebKit","Chrome","107.0.0.0","Windows","10.0","1553"," ","","A man is playing with a cat","3","Filler","",""
"","","","","","fixation","44512","html-keyboard-response","253","519093","0.0-6.0-2.54","95","3","2022-11-17 12:28:19","fd252370c17a9971d68c1d4354a03c2e","","Mozilla/5.0 (Windows NT 10.0) AppleWebKit/537.36 (KHTML, like Gecko) Chrome/107.0.0.0 Safari/537.36","WebKit","Chrome","107.0.0.0","Windows","10.0","null","null","","<p style=""font-size: 48px;"">+</p>","3","Filler","",""
"","","","","","picture","44512","image-keyboard-response","254","520199","0.0-6.0-3.54","95","3","2022-11-17 12:28:19","fd252370c17a9971d68c1d4354a03c2e","","Mozilla/5.0 (Windows NT 10.0) AppleWebKit/537.36 (KHTML, like Gecko) Chrome/107.0.0.0 Safari/537.36","WebKit","Chrome","107.0.0.0","Windows","10.0","1087","n","","ceramicplate.jpg","3","Filler","true",""
"","","","","","fixation","44512","html-keyboard-response","255","521220","0.0-6.0-0.55","95","3","2022-11-17 12:28:19","fd252370c17a9971d68c1d4354a03c2e","","Mozilla/5.0 (Windows NT 10.0) AppleWebKit/537.36 (KHTML, like Gecko) Chrome/107.0.0.0 Safari/537.36","WebKit","Chrome","107.0.0.0","Windows","10.0","null","null","","<p style=""font-size: 48px;"">+</p>","3","Filler","",""
"","","","","","sentence","44512","html-keyboard-response","256","522774","0.0-6.0-1.55","95","3","2022-11-17 12:28:19","fd252370c17a9971d68c1d4354a03c2e","","Mozilla/5.0 (Windows NT 10.0) AppleWebKit/537.36 (KHTML, like Gecko) Chrome/107.0.0.0 Safari/537.36","WebKit","Chrome","107.0.0.0","Windows","10.0","1534"," ","","A president is writing in the notebook","3","Filler","",""
