"success","timeout","failed_images","failed_audio","failed_video","typeoftrial","subject","trial_type","trial_index","time_elapsed","internal_node_id","run_id","condition","recorded_at","source_code_version","ip","user_agent","device","browser","browser_version","platform","platform_version","rt","response","Experiment","stimulus","list_number","trialcondition","correct","question_order"
"true","false","[]","[]","[]","preload","96217","preload","0","1789","0.0-0.0","65","3","2022-11-17 12:23:39","fd252370c17a9971d68c1d4354a03c2e","","Mozilla/5.0 (Macintosh; Intel Mac OS X 10_15_7) AppleWebKit/537.36 (KHTML, like Gecko) Chrome/106.0.0.0 Safari/537.36","Macintosh","Chrome","106.0.0.0","OS X","10_15_7","","","","","","","",""
"","","","","","ID","96217","survey-text","1","14423","0.0-1.0","65","3","2022-11-17 12:23:39","fd252370c17a9971d68c1d4354a03c2e","","Mozilla/5.0 (Macintosh; Intel Mac OS X 10_15_7) AppleWebKit/537.36 (KHTML, like Gecko) Chrome/106.0.0.0 Safari/537.36","Macintosh","Chrome","106.0.0.0","OS X","10_15_7","12628","{""ID"":""5f33dbb373508a219f18b121""}","","","","","",""
"","","","","","instructions","96217","html-button-response","2","33155","0.0-2.0","65","3","2022-11-17 12:23:39","fd252370c17a9971d68c1d4354a03c2e","","Mozilla/5.0 (Macintosh; Intel Mac OS X 10_15_7) AppleWebKit/537.36 (KHTML, like Gecko) Chrome/106.0.0.0 Safari/537.36","Macintosh","Chrome","106.0.0.0","OS X","10_15_7","18730","0","","
                    <p style=""font-size:20px;""> Welcome to the experiment! </p>
                    <p style=""font-size:20px;""> In this experiment, you will be asked to make judgments about the content of different sentences.</p>
                    <p style=""font-size:20px;""> On each trial, you will read a sentence, and will be shown a picture immediately following the sentence. </p>
                    <p style=""font-size:20px;""> Your task is to decide whether the object displayed in the picture was mentioned in the sentence or not </p>
                    <p style=""font-size:20px;""> and respond as quickly as possible by pressing <strong>S</strong> for yes or <strong>N</strong> for no. </p>
                    <p style=""font-size:20px;""> You will now do a practice session with feedback and instructions. </p>
                    <p style=""font-size:20px;""> Click the button below to continue.</p>
                    ","","","",""
"","","","","","instructions","96217","html-button-response","3","73272","0.0-3.0","65","3","2022-11-17 12:23:39","fd252370c17a9971d68c1d4354a03c2e","","Mozilla/5.0 (Macintosh; Intel Mac OS X 10_15_7) AppleWebKit/537.36 (KHTML, like Gecko) Chrome/106.0.0.0 Safari/537.36","Macintosh","Chrome","106.0.0.0","OS X","10_15_7","40117","0","","
                    <p style=""font-size:20px;""> You are about to begin the practice test. </p>
                    <p style=""font-size:20px;""> On each trial, a sentence will appear on the screen. You should press SPACEBAR when you have read and understood the sentence.</p>
                    <p style=""font-size:20px;""> After you press SPACEBAR, a picture will appear on the screen. </p>
                    <p style=""font-size:20px;""> You need to indicate whether or not the pictured object was mentioned in the sentence. </p>
                    <p style=""font-size:20px;""> If the object WAS mentioned in the preceding sentence, you should press <strong>S</strong> </p>
                    <p style=""font-size:20px;""> If the object was NOT mentioned in the preceding sentence, you should press <strong>N</strong>. </p>
                    <p style=""font-size:20px;""> Click the button below to continue to the practice session.</p>
                    ","","","",""
"","","","","","fixation","96217","html-keyboard-response","4","74276","0.0-4.0-0.0","65","3","2022-11-17 12:23:39","fd252370c17a9971d68c1d4354a03c2e","","Mozilla/5.0 (Macintosh; Intel Mac OS X 10_15_7) AppleWebKit/537.36 (KHTML, like Gecko) Chrome/106.0.0.0 Safari/537.36","Macintosh","Chrome","106.0.0.0","OS X","10_15_7","null","null","","<p style=""font-size: 48px;"">+</p>","practice","practice_n","",""
"","","","","","sentence","96217","html-keyboard-response","5","77908","0.0-4.0-1.0","65","3","2022-11-17 12:23:39","fd252370c17a9971d68c1d4354a03c2e","","Mozilla/5.0 (Macintosh; Intel Mac OS X 10_15_7) AppleWebKit/537.36 (KHTML, like Gecko) Chrome/106.0.0.0 Safari/537.36","Macintosh","Chrome","106.0.0.0","OS X","10_15_7","3632"," ","","A fork was placed on a stool","practice","practice_n","",""
"","","","","","fixation","96217","html-keyboard-response","6","78409","0.0-4.0-2.0","65","3","2022-11-17 12:23:39","fd252370c17a9971d68c1d4354a03c2e","","Mozilla/5.0 (Macintosh; Intel Mac OS X 10_15_7) AppleWebKit/537.36 (KHTML, like Gecko) Chrome/106.0.0.0 Safari/537.36","Macintosh","Chrome","106.0.0.0","OS X","10_15_7","null","null","","<p style=""font-size: 48px;"">+</p>","practice","practice_n","",""
"","","","","","picture","96217","image-keyboard-response","7","79788","0.0-4.0-3.0","65","3","2022-11-17 12:23:39","fd252370c17a9971d68c1d4354a03c2e","","Mozilla/5.0 (Macintosh; Intel Mac OS X 10_15_7) AppleWebKit/537.36 (KHTML, like Gecko) Chrome/106.0.0.0 Safari/537.36","Macintosh","Chrome","106.0.0.0","OS X","10_15_7","1372","s","","tableB.jpg","practice","practice_n","false",""
"","","","","","","","html-keyboard-response","8","81790","0.0-4.0-4.0","65","3","2022-11-17 12:23:39","fd252370c17a9971d68c1d4354a03c2e","","Mozilla/5.0 (Macintosh; Intel Mac OS X 10_15_7) AppleWebKit/537.36 (KHTML, like Gecko) Chrome/106.0.0.0 Safari/537.36","Macintosh","Chrome","106.0.0.0","OS X","10_15_7","null","null","","WRONG!","","","",""
"","","","","","fixation","96217","html-keyboard-response","9","82793","0.0-4.0-0.1","65","3","2022-11-17 12:23:39","fd252370c17a9971d68c1d4354a03c2e","","Mozilla/5.0 (Macintosh; Intel Mac OS X 10_15_7) AppleWebKit/537.36 (KHTML, like Gecko) Chrome/106.0.0.0 Safari/537.36","Macintosh","Chrome","106.0.0.0","OS X","10_15_7","null","null","","<p style=""font-size: 48px;"">+</p>","practice","practice_s","",""
"","","","","","sentence","96217","html-keyboard-response","10","85124","0.0-4.0-1.1","65","3","2022-11-17 12:23:39","fd252370c17a9971d68c1d4354a03c2e","","Mozilla/5.0 (Macintosh; Intel Mac OS X 10_15_7) AppleWebKit/537.36 (KHTML, like Gecko) Chrome/106.0.0.0 Safari/537.36","Macintosh","Chrome","106.0.0.0","OS X","10_15_7","2330"," ","","A knife was placed on a hammer","practice","practice_s","",""
"","","","","","fixation","96217","html-keyboard-response","11","85625","0.0-4.0-2.1","65","3","2022-11-17 12:23:39","fd252370c17a9971d68c1d4354a03c2e","","Mozilla/5.0 (Macintosh; Intel Mac OS X 10_15_7) AppleWebKit/537.36 (KHTML, like Gecko) Chrome/106.0.0.0 Safari/537.36","Macintosh","Chrome","106.0.0.0","OS X","10_15_7","null","null","","<p style=""font-size: 48px;"">+</p>","practice","practice_s","",""
"","","","","","picture","96217","image-keyboard-response","12","86932","0.0-4.0-3.1","65","3","2022-11-17 12:23:39","fd252370c17a9971d68c1d4354a03c2e","","Mozilla/5.0 (Macintosh; Intel Mac OS X 10_15_7) AppleWebKit/537.36 (KHTML, like Gecko) Chrome/106.0.0.0 Safari/537.36","Macintosh","Chrome","106.0.0.0","OS X","10_15_7","1306","n","","hammerB.jpg","practice","practice_s","false",""
"","","","","","","","html-keyboard-response","13","88937","0.0-4.0-4.1","65","3","2022-11-17 12:23:39","fd252370c17a9971d68c1d4354a03c2e","","Mozilla/5.0 (Macintosh; Intel Mac OS X 10_15_7) AppleWebKit/537.36 (KHTML, like Gecko) Chrome/106.0.0.0 Safari/537.36","Macintosh","Chrome","106.0.0.0","OS X","10_15_7","null","null","","WRONG!","","","",""
"","","","","","fixation","96217","html-keyboard-response","14","89940","0.0-4.0-0.2","65","3","2022-11-17 12:23:39","fd252370c17a9971d68c1d4354a03c2e","","Mozilla/5.0 (Macintosh; Intel Mac OS X 10_15_7) AppleWebKit/537.36 (KHTML, like Gecko) Chrome/106.0.0.0 Safari/537.36","Macintosh","Chrome","106.0.0.0","OS X","10_15_7","null","null","","<p style=""font-size: 48px;"">+</p>","practice","practice_n","",""
"","","","","","sentence","96217","html-keyboard-response","15","92964","0.0-4.0-1.2","65","3","2022-11-17 12:23:39","fd252370c17a9971d68c1d4354a03c2e","","Mozilla/5.0 (Macintosh; Intel Mac OS X 10_15_7) AppleWebKit/537.36 (KHTML, like Gecko) Chrome/106.0.0.0 Safari/537.36","Macintosh","Chrome","106.0.0.0","OS X","10_15_7","3023"," ","","A bowling ball dropped and touched a bottle","practice","practice_n","",""
"","","","","","fixation","96217","html-keyboard-response","16","93466","0.0-4.0-2.2","65","3","2022-11-17 12:23:39","fd252370c17a9971d68c1d4354a03c2e","","Mozilla/5.0 (Macintosh; Intel Mac OS X 10_15_7) AppleWebKit/537.36 (KHTML, like Gecko) Chrome/106.0.0.0 Safari/537.36","Macintosh","Chrome","106.0.0.0","OS X","10_15_7","null","null","","<p style=""font-size: 48px;"">+</p>","practice","practice_n","",""
"","","","","","picture","96217","image-keyboard-response","17","94932","0.0-4.0-3.2","65","3","2022-11-17 12:23:39","fd252370c17a9971d68c1d4354a03c2e","","Mozilla/5.0 (Macintosh; Intel Mac OS X 10_15_7) AppleWebKit/537.36 (KHTML, like Gecko) Chrome/106.0.0.0 Safari/537.36","Macintosh","Chrome","106.0.0.0","OS X","10_15_7","1465","n","","bookB.jpg","practice","practice_n","true",""
"","","","","","","","html-keyboard-response","18","96937","0.0-4.0-4.2","65","3","2022-11-17 12:23:39","fd252370c17a9971d68c1d4354a03c2e","","Mozilla/5.0 (Macintosh; Intel Mac OS X 10_15_7) AppleWebKit/537.36 (KHTML, like Gecko) Chrome/106.0.0.0 Safari/537.36","Macintosh","Chrome","106.0.0.0","OS X","10_15_7","null","null","","CORRECT!","","","",""
"","","","","","fixation","96217","html-keyboard-response","19","97939","0.0-4.0-0.3","65","3","2022-11-17 12:23:39","fd252370c17a9971d68c1d4354a03c2e","","Mozilla/5.0 (Macintosh; Intel Mac OS X 10_15_7) AppleWebKit/537.36 (KHTML, like Gecko) Chrome/106.0.0.0 Safari/537.36","Macintosh","Chrome","106.0.0.0","OS X","10_15_7","null","null","","<p style=""font-size: 48px;"">+</p>","practice","practice_s","",""
"","","","","","sentence","96217","html-keyboard-response","20","99819","0.0-4.0-1.3","65","3","2022-11-17 12:23:39","fd252370c17a9971d68c1d4354a03c2e","","Mozilla/5.0 (Macintosh; Intel Mac OS X 10_15_7) AppleWebKit/537.36 (KHTML, like Gecko) Chrome/106.0.0.0 Safari/537.36","Macintosh","Chrome","106.0.0.0","OS X","10_15_7","1879"," ","","A bowling ball dropped and smashed a teacup","practice","practice_s","",""
"","","","","","fixation","96217","html-keyboard-response","21","100323","0.0-4.0-2.3","65","3","2022-11-17 12:23:39","fd252370c17a9971d68c1d4354a03c2e","","Mozilla/5.0 (Macintosh; Intel Mac OS X 10_15_7) AppleWebKit/537.36 (KHTML, like Gecko) Chrome/106.0.0.0 Safari/537.36","Macintosh","Chrome","106.0.0.0","OS X","10_15_7","null","null","","<p style=""font-size: 48px;"">+</p>","practice","practice_s","",""
"","","","","","picture","96217","image-keyboard-response","22","102867","0.0-4.0-3.3","65","3","2022-11-17 12:23:39","fd252370c17a9971d68c1d4354a03c2e","","Mozilla/5.0 (Macintosh; Intel Mac OS X 10_15_7) AppleWebKit/537.36 (KHTML, like Gecko) Chrome/106.0.0.0 Safari/537.36","Macintosh","Chrome","106.0.0.0","OS X","10_15_7","2543","n","","cupB.jpg","practice","practice_s","false",""
"","","","","","","","html-keyboard-response","23","104869","0.0-4.0-4.3","65","3","2022-11-17 12:23:39","fd252370c17a9971d68c1d4354a03c2e","","Mozilla/5.0 (Macintosh; Intel Mac OS X 10_15_7) AppleWebKit/537.36 (KHTML, like Gecko) Chrome/106.0.0.0 Safari/537.36","Macintosh","Chrome","106.0.0.0","OS X","10_15_7","null","null","","WRONG!","","","",""
"","","","","","fixation","96217","html-keyboard-response","24","105875","0.0-4.0-0.4","65","3","2022-11-17 12:23:39","fd252370c17a9971d68c1d4354a03c2e","","Mozilla/5.0 (Macintosh; Intel Mac OS X 10_15_7) AppleWebKit/537.36 (KHTML, like Gecko) Chrome/106.0.0.0 Safari/537.36","Macintosh","Chrome","106.0.0.0","OS X","10_15_7","null","null","","<p style=""font-size: 48px;"">+</p>","practice","practice_s","",""
"","","","","","sentence","96217","html-keyboard-response","25","108516","0.0-4.0-1.4","65","3","2022-11-17 12:23:39","fd252370c17a9971d68c1d4354a03c2e","","Mozilla/5.0 (Macintosh; Intel Mac OS X 10_15_7) AppleWebKit/537.36 (KHTML, like Gecko) Chrome/106.0.0.0 Safari/537.36","Macintosh","Chrome","106.0.0.0","OS X","10_15_7","2640"," ","","A balloon dropped and touched a cigarette","practice","practice_s","",""
"","","","","","fixation","96217","html-keyboard-response","26","109017","0.0-4.0-2.4","65","3","2022-11-17 12:23:39","fd252370c17a9971d68c1d4354a03c2e","","Mozilla/5.0 (Macintosh; Intel Mac OS X 10_15_7) AppleWebKit/537.36 (KHTML, like Gecko) Chrome/106.0.0.0 Safari/537.36","Macintosh","Chrome","106.0.0.0","OS X","10_15_7","null","null","","<p style=""font-size: 48px;"">+</p>","practice","practice_s","",""
"","","","","","picture","96217","image-keyboard-response","27","115364","0.0-4.0-3.4","65","3","2022-11-17 12:23:39","fd252370c17a9971d68c1d4354a03c2e","","Mozilla/5.0 (Macintosh; Intel Mac OS X 10_15_7) AppleWebKit/537.36 (KHTML, like Gecko) Chrome/106.0.0.0 Safari/537.36","Macintosh","Chrome","106.0.0.0","OS X","10_15_7","6345","s","","cigaretteB.jpg","practice","practice_s","true",""
"","","","","","","","html-keyboard-response","28","117369","0.0-4.0-4.4","65","3","2022-11-17 12:23:39","fd252370c17a9971d68c1d4354a03c2e","","Mozilla/5.0 (Macintosh; Intel Mac OS X 10_15_7) AppleWebKit/537.36 (KHTML, like Gecko) Chrome/106.0.0.0 Safari/537.36","Macintosh","Chrome","106.0.0.0","OS X","10_15_7","null","null","","CORRECT!","","","",""
"","","","","","fixation","96217","html-keyboard-response","29","118372","0.0-4.0-0.5","65","3","2022-11-17 12:23:39","fd252370c17a9971d68c1d4354a03c2e","","Mozilla/5.0 (Macintosh; Intel Mac OS X 10_15_7) AppleWebKit/537.36 (KHTML, like Gecko) Chrome/106.0.0.0 Safari/537.36","Macintosh","Chrome","106.0.0.0","OS X","10_15_7","null","null","","<p style=""font-size: 48px;"">+</p>","practice","practice_n","",""
"","","","","","sentence","96217","html-keyboard-response","30","119827","0.0-4.0-1.5","65","3","2022-11-17 12:23:39","fd252370c17a9971d68c1d4354a03c2e","","Mozilla/5.0 (Macintosh; Intel Mac OS X 10_15_7) AppleWebKit/537.36 (KHTML, like Gecko) Chrome/106.0.0.0 Safari/537.36","Macintosh","Chrome","106.0.0.0","OS X","10_15_7","1455"," ","","A balloon dropped and smashed a cup","practice","practice_n","",""
"","","","","","fixation","96217","html-keyboard-response","31","120329","0.0-4.0-2.5","65","3","2022-11-17 12:23:39","fd252370c17a9971d68c1d4354a03c2e","","Mozilla/5.0 (Macintosh; Intel Mac OS X 10_15_7) AppleWebKit/537.36 (KHTML, like Gecko) Chrome/106.0.0.0 Safari/537.36","Macintosh","Chrome","106.0.0.0","OS X","10_15_7","null","null","","<p style=""font-size: 48px;"">+</p>","practice","practice_n","",""
"","","","","","picture","96217","image-keyboard-response","32","121331","0.0-4.0-3.5","65","3","2022-11-17 12:23:39","fd252370c17a9971d68c1d4354a03c2e","","Mozilla/5.0 (Macintosh; Intel Mac OS X 10_15_7) AppleWebKit/537.36 (KHTML, like Gecko) Chrome/106.0.0.0 Safari/537.36","Macintosh","Chrome","106.0.0.0","OS X","10_15_7","1001","n","","bananaB.jpg","practice","practice_n","true",""
"","","","","","","","html-keyboard-response","33","123337","0.0-4.0-4.5","65","3","2022-11-17 12:23:39","fd252370c17a9971d68c1d4354a03c2e","","Mozilla/5.0 (Macintosh; Intel Mac OS X 10_15_7) AppleWebKit/537.36 (KHTML, like Gecko) Chrome/106.0.0.0 Safari/537.36","Macintosh","Chrome","106.0.0.0","OS X","10_15_7","null","null","","CORRECT!","","","",""
"","","","","","movetoexp","96217","html-button-response","34","129782","0.0-5.0","65","3","2022-11-17 12:23:39","fd252370c17a9971d68c1d4354a03c2e","","Mozilla/5.0 (Macintosh; Intel Mac OS X 10_15_7) AppleWebKit/537.36 (KHTML, like Gecko) Chrome/106.0.0.0 Safari/537.36","Macintosh","Chrome","106.0.0.0","OS X","10_15_7","6444","0","","<p style=""font-size:20px;"">You have now completed the practice session! </p>
                    <p style=""font-size:20px;"">You will now move on to the main experiment, where you will not be provided any feedback. </p>
                    <p style=""font-size:20px;"">Remember, you should press <strong>S</strong> if the pictured object was mentioned in the preceding sentence<br> and <strong>N</strong> if the pictured object was not mentioned in the preceding sentence.</p>
                    <p style=""font-size:20px;"">Please click the button below to continue to the main experiment. </p>","","","",""
"","","","","","fixation","96217","html-keyboard-response","35","130787","0.0-6.0-0.0","65","3","2022-11-17 12:23:39","fd252370c17a9971d68c1d4354a03c2e","","Mozilla/5.0 (Macintosh; Intel Mac OS X 10_15_7) AppleWebKit/537.36 (KHTML, like Gecko) Chrome/106.0.0.0 Safari/537.36","Macintosh","Chrome","106.0.0.0","OS X","10_15_7","null","null","","<p style=""font-size: 48px;"">+</p>","3","Filler","",""
"","","","","","sentence","96217","html-keyboard-response","36","132660","0.0-6.0-1.0","65","3","2022-11-17 12:23:39","fd252370c17a9971d68c1d4354a03c2e","","Mozilla/5.0 (Macintosh; Intel Mac OS X 10_15_7) AppleWebKit/537.36 (KHTML, like Gecko) Chrome/106.0.0.0 Safari/537.36","Macintosh","Chrome","106.0.0.0","OS X","10_15_7","1871"," ","","A man is boiling potatoes.","3","Filler","",""
"","","","","","fixation","96217","html-keyboard-response","37","133161","0.0-6.0-2.0","65","3","2022-11-17 12:23:39","fd252370c17a9971d68c1d4354a03c2e","","Mozilla/5.0 (Macintosh; Intel Mac OS X 10_15_7) AppleWebKit/537.36 (KHTML, like Gecko) Chrome/106.0.0.0 Safari/537.36","Macintosh","Chrome","106.0.0.0","OS X","10_15_7","null","null","","<p style=""font-size: 48px;"">+</p>","3","Filler","",""
"","","","","","picture","96217","image-keyboard-response","38","134315","0.0-6.0-3.0","65","3","2022-11-17 12:23:39","fd252370c17a9971d68c1d4354a03c2e","","Mozilla/5.0 (Macintosh; Intel Mac OS X 10_15_7) AppleWebKit/537.36 (KHTML, like Gecko) Chrome/106.0.0.0 Safari/537.36","Macintosh","Chrome","106.0.0.0","OS X","10_15_7","1153","n","","cup.jpg","3","Filler","true",""
"","","","","","fixation","96217","html-keyboard-response","39","135321","0.0-6.0-0.1","65","3","2022-11-17 12:23:39","fd252370c17a9971d68c1d4354a03c2e","","Mozilla/5.0 (Macintosh; Intel Mac OS X 10_15_7) AppleWebKit/537.36 (KHTML, like Gecko) Chrome/106.0.0.0 Safari/537.36","Macintosh","Chrome","106.0.0.0","OS X","10_15_7","null","null","","<p style=""font-size: 48px;"">+</p>","3","Filler","",""
"","","","","","sentence","96217","html-keyboard-response","40","136243","0.0-6.0-1.1","65","3","2022-11-17 12:23:39","fd252370c17a9971d68c1d4354a03c2e","","Mozilla/5.0 (Macintosh; Intel Mac OS X 10_15_7) AppleWebKit/537.36 (KHTML, like Gecko) Chrome/106.0.0.0 Safari/537.36","Macintosh","Chrome","106.0.0.0","OS X","10_15_7","922"," ","","A puppy is playing with a ball","3","Filler","",""
"","","","","","fixation","96217","html-keyboard-response","41","136745","0.0-6.0-2.1","65","3","2022-11-17 12:23:39","fd252370c17a9971d68c1d4354a03c2e","","Mozilla/5.0 (Macintosh; Intel Mac OS X 10_15_7) AppleWebKit/537.36 (KHTML, like Gecko) Chrome/106.0.0.0 Safari/537.36","Macintosh","Chrome","106.0.0.0","OS X","10_15_7","null","null","","<p style=""font-size: 48px;"">+</p>","3","Filler","",""
"","","","","","picture","96217","image-keyboard-response","42","137907","0.0-6.0-3.1","65","3","2022-11-17 12:23:39","fd252370c17a9971d68c1d4354a03c2e","","Mozilla/5.0 (Macintosh; Intel Mac OS X 10_15_7) AppleWebKit/537.36 (KHTML, like Gecko) Chrome/106.0.0.0 Safari/537.36","Macintosh","Chrome","106.0.0.0","OS X","10_15_7","1161","s","","tennisball.jpg","3","Filler","true",""
"","","","","","fixation","96217","html-keyboard-response","43","138910","0.0-6.0-0.2","65","3","2022-11-17 12:23:39","fd252370c17a9971d68c1d4354a03c2e","","Mozilla/5.0 (Macintosh; Intel Mac OS X 10_15_7) AppleWebKit/537.36 (KHTML, like Gecko) Chrome/106.0.0.0 Safari/537.36","Macintosh","Chrome","106.0.0.0","OS X","10_15_7","null","null","","<p style=""font-size: 48px;"">+</p>","3","Filler","",""
"","","","","","sentence","96217","html-keyboard-response","44","141363","0.0-6.0-1.2","65","3","2022-11-17 12:23:39","fd252370c17a9971d68c1d4354a03c2e","","Mozilla/5.0 (Macintosh; Intel Mac OS X 10_15_7) AppleWebKit/537.36 (KHTML, like Gecko) Chrome/106.0.0.0 Safari/537.36","Macintosh","Chrome","106.0.0.0","OS X","10_15_7","2453"," ","","A man is playing with a cat","3","Filler","",""
"","","","","","fixation","96217","html-keyboard-response","45","141865","0.0-6.0-2.2","65","3","2022-11-17 12:23:39","fd252370c17a9971d68c1d4354a03c2e","","Mozilla/5.0 (Macintosh; Intel Mac OS X 10_15_7) AppleWebKit/537.36 (KHTML, like Gecko) Chrome/106.0.0.0 Safari/537.36","Macintosh","Chrome","106.0.0.0","OS X","10_15_7","null","null","","<p style=""font-size: 48px;"">+</p>","3","Filler","",""
"","","","","","picture","96217","image-keyboard-response","46","142915","0.0-6.0-3.2","65","3","2022-11-17 12:23:39","fd252370c17a9971d68c1d4354a03c2e","","Mozilla/5.0 (Macintosh; Intel Mac OS X 10_15_7) AppleWebKit/537.36 (KHTML, like Gecko) Chrome/106.0.0.0 Safari/537.36","Macintosh","Chrome","106.0.0.0","OS X","10_15_7","1049","n","","ceramicplate.jpg","3","Filler","true",""
"","","","","","fixation","96217","html-keyboard-response","47","143918","0.0-6.0-0.3","65","3","2022-11-17 12:23:39","fd252370c17a9971d68c1d4354a03c2e","","Mozilla/5.0 (Macintosh; Intel Mac OS X 10_15_7) AppleWebKit/537.36 (KHTML, like Gecko) Chrome/106.0.0.0 Safari/537.36","Macintosh","Chrome","106.0.0.0","OS X","10_15_7","null","null","","<p style=""font-size: 48px;"">+</p>","3","Filler","",""
"","","","","","sentence","96217","html-keyboard-response","48","145427","0.0-6.0-1.3","65","3","2022-11-17 12:23:39","fd252370c17a9971d68c1d4354a03c2e","","Mozilla/5.0 (Macintosh; Intel Mac OS X 10_15_7) AppleWebKit/537.36 (KHTML, like Gecko) Chrome/106.0.0.0 Safari/537.36","Macintosh","Chrome","106.0.0.0","OS X","10_15_7","1508"," ","","A giraffe is playing with a zebra","3","Filler","",""
"","","","","","fixation","96217","html-keyboard-response","49","145929","0.0-6.0-2.3","65","3","2022-11-17 12:23:39","fd252370c17a9971d68c1d4354a03c2e","","Mozilla/5.0 (Macintosh; Intel Mac OS X 10_15_7) AppleWebKit/537.36 (KHTML, like Gecko) Chrome/106.0.0.0 Safari/537.36","Macintosh","Chrome","106.0.0.0","OS X","10_15_7","null","null","","<p style=""font-size: 48px;"">+</p>","3","Filler","",""
"","","","","","picture","96217","image-keyboard-response","50","146867","0.0-6.0-3.3","65","3","2022-11-17 12:23:39","fd252370c17a9971d68c1d4354a03c2e","","Mozilla/5.0 (Macintosh; Intel Mac OS X 10_15_7) AppleWebKit/537.36 (KHTML, like Gecko) Chrome/106.0.0.0 Safari/537.36","Macintosh","Chrome","106.0.0.0","OS X","10_15_7","936","n","","wallet.jpg","3","Filler","true",""
"","","","","","fixation","96217","html-keyboard-response","51","147869","0.0-6.0-0.4","65","3","2022-11-17 12:23:39","fd252370c17a9971d68c1d4354a03c2e","","Mozilla/5.0 (Macintosh; Intel Mac OS X 10_15_7) AppleWebKit/537.36 (KHTML, like Gecko) Chrome/106.0.0.0 Safari/537.36","Macintosh","Chrome","106.0.0.0","OS X","10_15_7","null","null","","<p style=""font-size: 48px;"">+</p>","3","Filler","",""
"","","","","","sentence","96217","html-keyboard-response","52","148875","0.0-6.0-1.4","65","3","2022-11-17 12:23:39","fd252370c17a9971d68c1d4354a03c2e","","Mozilla/5.0 (Macintosh; Intel Mac OS X 10_15_7) AppleWebKit/537.36 (KHTML, like Gecko) Chrome/106.0.0.0 Safari/537.36","Macintosh","Chrome","106.0.0.0","OS X","10_15_7","1005"," ","","A watch was placed on the laptop","3","Filler","",""
"","","","","","fixation","96217","html-keyboard-response","53","149379","0.0-6.0-2.4","65","3","2022-11-17 12:23:39","fd252370c17a9971d68c1d4354a03c2e","","Mozilla/5.0 (Macintosh; Intel Mac OS X 10_15_7) AppleWebKit/537.36 (KHTML, like Gecko) Chrome/106.0.0.0 Safari/537.36","Macintosh","Chrome","106.0.0.0","OS X","10_15_7","null","null","","<p style=""font-size: 48px;"">+</p>","3","Filler","",""
"","","","","","picture","96217","image-keyboard-response","54","150091","0.0-6.0-3.4","65","3","2022-11-17 12:23:39","fd252370c17a9971d68c1d4354a03c2e","","Mozilla/5.0 (Macintosh; Intel Mac OS X 10_15_7) AppleWebKit/537.36 (KHTML, like Gecko) Chrome/106.0.0.0 Safari/537.36","Macintosh","Chrome","106.0.0.0","OS X","10_15_7","710","n","","bow.jpg","3","Filler","true",""
"","","","","","fixation","96217","html-keyboard-response","55","151096","0.0-6.0-0.5","65","3","2022-11-17 12:23:39","fd252370c17a9971d68c1d4354a03c2e","","Mozilla/5.0 (Macintosh; Intel Mac OS X 10_15_7) AppleWebKit/537.36 (KHTML, like Gecko) Chrome/106.0.0.0 Safari/537.36","Macintosh","Chrome","106.0.0.0","OS X","10_15_7","null","null","","<p style=""font-size: 48px;"">+</p>","3","Heavy_Matched","",""
"","","","","","sentence","96217","html-keyboard-response","56","152787","0.0-6.0-1.5","65","3","2022-11-17 12:23:39","fd252370c17a9971d68c1d4354a03c2e","","Mozilla/5.0 (Macintosh; Intel Mac OS X 10_15_7) AppleWebKit/537.36 (KHTML, like Gecko) Chrome/106.0.0.0 Safari/537.36","Macintosh","Chrome","106.0.0.0","OS X","10_15_7","1689"," ","","A bowling ball dropped and smashed a mirror","3","Heavy_Matched","",""
"","","","","","fixation","96217","html-keyboard-response","57","153289","0.0-6.0-2.5","65","3","2022-11-17 12:23:39","fd252370c17a9971d68c1d4354a03c2e","","Mozilla/5.0 (Macintosh; Intel Mac OS X 10_15_7) AppleWebKit/537.36 (KHTML, like Gecko) Chrome/106.0.0.0 Safari/537.36","Macintosh","Chrome","106.0.0.0","OS X","10_15_7","null","null","","<p style=""font-size: 48px;"">+</p>","3","Heavy_Matched","",""
"","","","","","picture","96217","image-keyboard-response","58","154355","0.0-6.0-3.5","65","3","2022-11-17 12:23:39","fd252370c17a9971d68c1d4354a03c2e","","Mozilla/5.0 (Macintosh; Intel Mac OS X 10_15_7) AppleWebKit/537.36 (KHTML, like Gecko) Chrome/106.0.0.0 Safari/537.36","Macintosh","Chrome","106.0.0.0","OS X","10_15_7","1065","s","","mirrorS.jpg","3","Heavy_Matched","true",""
"","","","","","fixation","96217","html-keyboard-response","59","155357","0.0-6.0-0.6","65","3","2022-11-17 12:23:39","fd252370c17a9971d68c1d4354a03c2e","","Mozilla/5.0 (Macintosh; Intel Mac OS X 10_15_7) AppleWebKit/537.36 (KHTML, like Gecko) Chrome/106.0.0.0 Safari/537.36","Macintosh","Chrome","106.0.0.0","OS X","10_15_7","null","null","","<p style=""font-size: 48px;"">+</p>","3","Filler","",""
"","","","","","sentence","96217","html-keyboard-response","60","157234","0.0-6.0-1.6","65","3","2022-11-17 12:23:39","fd252370c17a9971d68c1d4354a03c2e","","Mozilla/5.0 (Macintosh; Intel Mac OS X 10_15_7) AppleWebKit/537.36 (KHTML, like Gecko) Chrome/106.0.0.0 Safari/537.36","Macintosh","Chrome","106.0.0.0","OS X","10_15_7","1876"," ","","A toothbrush was placed on the sponge","3","Filler","",""
"","","","","","fixation","96217","html-keyboard-response","61","157736","0.0-6.0-2.6","65","3","2022-11-17 12:23:39","fd252370c17a9971d68c1d4354a03c2e","","Mozilla/5.0 (Macintosh; Intel Mac OS X 10_15_7) AppleWebKit/537.36 (KHTML, like Gecko) Chrome/106.0.0.0 Safari/537.36","Macintosh","Chrome","106.0.0.0","OS X","10_15_7","null","null","","<p style=""font-size: 48px;"">+</p>","3","Filler","",""
"","","","","","picture","96217","image-keyboard-response","62","158754","0.0-6.0-3.6","65","3","2022-11-17 12:23:39","fd252370c17a9971d68c1d4354a03c2e","","Mozilla/5.0 (Macintosh; Intel Mac OS X 10_15_7) AppleWebKit/537.36 (KHTML, like Gecko) Chrome/106.0.0.0 Safari/537.36","Macintosh","Chrome","106.0.0.0","OS X","10_15_7","1016","s","","sponge.jpg","3","Filler","true",""
"","","","","","fixation","96217","html-keyboard-response","63","159757","0.0-6.0-0.7","65","3","2022-11-17 12:23:39","fd252370c17a9971d68c1d4354a03c2e","","Mozilla/5.0 (Macintosh; Intel Mac OS X 10_15_7) AppleWebKit/537.36 (KHTML, like Gecko) Chrome/106.0.0.0 Safari/537.36","Macintosh","Chrome","106.0.0.0","OS X","10_15_7","null","null","","<p style=""font-size: 48px;"">+</p>","3","Filler","",""
"","","","","","sentence","96217","html-keyboard-response","64","161490","0.0-6.0-1.7","65","3","2022-11-17 12:23:39","fd252370c17a9971d68c1d4354a03c2e","","Mozilla/5.0 (Macintosh; Intel Mac OS X 10_15_7) AppleWebKit/537.36 (KHTML, like Gecko) Chrome/106.0.0.0 Safari/537.36","Macintosh","Chrome","106.0.0.0","OS X","10_15_7","1731"," ","","A student is writing on a board","3","Filler","",""
"","","","","","fixation","96217","html-keyboard-response","65","161992","0.0-6.0-2.7","65","3","2022-11-17 12:23:39","fd252370c17a9971d68c1d4354a03c2e","","Mozilla/5.0 (Macintosh; Intel Mac OS X 10_15_7) AppleWebKit/537.36 (KHTML, like Gecko) Chrome/106.0.0.0 Safari/537.36","Macintosh","Chrome","106.0.0.0","OS X","10_15_7","null","null","","<p style=""font-size: 48px;"">+</p>","3","Filler","",""
"","","","","","picture","96217","image-keyboard-response","66","162770","0.0-6.0-3.7","65","3","2022-11-17 12:23:39","fd252370c17a9971d68c1d4354a03c2e","","Mozilla/5.0 (Macintosh; Intel Mac OS X 10_15_7) AppleWebKit/537.36 (KHTML, like Gecko) Chrome/106.0.0.0 Safari/537.36","Macintosh","Chrome","106.0.0.0","OS X","10_15_7","776","n","","owl.jpg","3","Filler","true",""
"","","","","","fixation","96217","html-keyboard-response","67","163773","0.0-6.0-0.8","65","3","2022-11-17 12:23:39","fd252370c17a9971d68c1d4354a03c2e","","Mozilla/5.0 (Macintosh; Intel Mac OS X 10_15_7) AppleWebKit/537.36 (KHTML, like Gecko) Chrome/106.0.0.0 Safari/537.36","Macintosh","Chrome","106.0.0.0","OS X","10_15_7","null","null","","<p style=""font-size: 48px;"">+</p>","3","Filler","",""
"","","","","","sentence","96217","html-keyboard-response","68","172354","0.0-6.0-1.8","65","3","2022-11-17 12:23:39","fd252370c17a9971d68c1d4354a03c2e","","Mozilla/5.0 (Macintosh; Intel Mac OS X 10_15_7) AppleWebKit/537.36 (KHTML, like Gecko) Chrome/106.0.0.0 Safari/537.36","Macintosh","Chrome","106.0.0.0","OS X","10_15_7","8580"," ","","A cat is drinking water from a bowl","3","Filler","",""
"","","","","","fixation","96217","html-keyboard-response","69","172856","0.0-6.0-2.8","65","3","2022-11-17 12:23:39","fd252370c17a9971d68c1d4354a03c2e","","Mozilla/5.0 (Macintosh; Intel Mac OS X 10_15_7) AppleWebKit/537.36 (KHTML, like Gecko) Chrome/106.0.0.0 Safari/537.36","Macintosh","Chrome","106.0.0.0","OS X","10_15_7","null","null","","<p style=""font-size: 48px;"">+</p>","3","Filler","",""
"","","","","","picture","96217","image-keyboard-response","70","173946","0.0-6.0-3.8","65","3","2022-11-17 12:23:39","fd252370c17a9971d68c1d4354a03c2e","","Mozilla/5.0 (Macintosh; Intel Mac OS X 10_15_7) AppleWebKit/537.36 (KHTML, like Gecko) Chrome/106.0.0.0 Safari/537.36","Macintosh","Chrome","106.0.0.0","OS X","10_15_7","1088","s","","bowl.jpg","3","Filler","true",""
"","","","","","fixation","96217","html-keyboard-response","71","174951","0.0-6.0-0.9","65","3","2022-11-17 12:23:39","fd252370c17a9971d68c1d4354a03c2e","","Mozilla/5.0 (Macintosh; Intel Mac OS X 10_15_7) AppleWebKit/537.36 (KHTML, like Gecko) Chrome/106.0.0.0 Safari/537.36","Macintosh","Chrome","106.0.0.0","OS X","10_15_7","null","null","","<p style=""font-size: 48px;"">+</p>","3","Filler","",""
"","","","","","sentence","96217","html-keyboard-response","72","176178","0.0-6.0-1.9","65","3","2022-11-17 12:23:39","fd252370c17a9971d68c1d4354a03c2e","","Mozilla/5.0 (Macintosh; Intel Mac OS X 10_15_7) AppleWebKit/537.36 (KHTML, like Gecko) Chrome/106.0.0.0 Safari/537.36","Macintosh","Chrome","106.0.0.0","OS X","10_15_7","1225"," ","","A president is writing in the notebook","3","Filler","",""
"","","","","","fixation","96217","html-keyboard-response","73","176680","0.0-6.0-2.9","65","3","2022-11-17 12:23:39","fd252370c17a9971d68c1d4354a03c2e","","Mozilla/5.0 (Macintosh; Intel Mac OS X 10_15_7) AppleWebKit/537.36 (KHTML, like Gecko) Chrome/106.0.0.0 Safari/537.36","Macintosh","Chrome","106.0.0.0","OS X","10_15_7","null","null","","<p style=""font-size: 48px;"">+</p>","3","Filler","",""
"","","","","","picture","96217","image-keyboard-response","74","177554","0.0-6.0-3.9","65","3","2022-11-17 12:23:39","fd252370c17a9971d68c1d4354a03c2e","","Mozilla/5.0 (Macintosh; Intel Mac OS X 10_15_7) AppleWebKit/537.36 (KHTML, like Gecko) Chrome/106.0.0.0 Safari/537.36","Macintosh","Chrome","106.0.0.0","OS X","10_15_7","872","n","","can.jpg","3","Filler","true",""
"","","","","","fixation","96217","html-keyboard-response","75","178556","0.0-6.0-0.10","65","3","2022-11-17 12:23:39","fd252370c17a9971d68c1d4354a03c2e","","Mozilla/5.0 (Macintosh; Intel Mac OS X 10_15_7) AppleWebKit/537.36 (KHTML, like Gecko) Chrome/106.0.0.0 Safari/537.36","Macintosh","Chrome","106.0.0.0","OS X","10_15_7","null","null","","<p style=""font-size: 48px;"">+</p>","3","Light_Contradictory","",""
"","","","","","sentence","96217","html-keyboard-response","76","180953","0.0-6.0-1.10","65","3","2022-11-17 12:23:39","fd252370c17a9971d68c1d4354a03c2e","","Mozilla/5.0 (Macintosh; Intel Mac OS X 10_15_7) AppleWebKit/537.36 (KHTML, like Gecko) Chrome/106.0.0.0 Safari/537.36","Macintosh","Chrome","106.0.0.0","OS X","10_15_7","2395"," ","","A balloon dropped and smashed an iPAD","3","Light_Contradictory","",""
"","","","","","fixation","96217","html-keyboard-response","77","181458","0.0-6.0-2.10","65","3","2022-11-17 12:23:39","fd252370c17a9971d68c1d4354a03c2e","","Mozilla/5.0 (Macintosh; Intel Mac OS X 10_15_7) AppleWebKit/537.36 (KHTML, like Gecko) Chrome/106.0.0.0 Safari/537.36","Macintosh","Chrome","106.0.0.0","OS X","10_15_7","null","null","","<p style=""font-size: 48px;"">+</p>","3","Light_Contradictory","",""
"","","","","","picture","96217","image-keyboard-response","78","182538","0.0-6.0-3.10","65","3","2022-11-17 12:23:39","fd252370c17a9971d68c1d4354a03c2e","","Mozilla/5.0 (Macintosh; Intel Mac OS X 10_15_7) AppleWebKit/537.36 (KHTML, like Gecko) Chrome/106.0.0.0 Safari/537.36","Macintosh","Chrome","106.0.0.0","OS X","10_15_7","1078","s","","iPadS.jpg","3","Light_Contradictory","true",""
"","","","","","fixation","96217","html-keyboard-response","79","183540","0.0-6.0-0.11","65","3","2022-11-17 12:23:39","fd252370c17a9971d68c1d4354a03c2e","","Mozilla/5.0 (Macintosh; Intel Mac OS X 10_15_7) AppleWebKit/537.36 (KHTML, like Gecko) Chrome/106.0.0.0 Safari/537.36","Macintosh","Chrome","106.0.0.0","OS X","10_15_7","null","null","","<p style=""font-size: 48px;"">+</p>","3","Filler","",""
"","","","","","sentence","96217","html-keyboard-response","80","184858","0.0-6.0-1.11","65","3","2022-11-17 12:23:39","fd252370c17a9971d68c1d4354a03c2e","","Mozilla/5.0 (Macintosh; Intel Mac OS X 10_15_7) AppleWebKit/537.36 (KHTML, like Gecko) Chrome/106.0.0.0 Safari/537.36","Macintosh","Chrome","106.0.0.0","OS X","10_15_7","1316"," ","","An elephant is eating a watermelon","3","Filler","",""
"","","","","","fixation","96217","html-keyboard-response","81","185362","0.0-6.0-2.11","65","3","2022-11-17 12:23:39","fd252370c17a9971d68c1d4354a03c2e","","Mozilla/5.0 (Macintosh; Intel Mac OS X 10_15_7) AppleWebKit/537.36 (KHTML, like Gecko) Chrome/106.0.0.0 Safari/537.36","Macintosh","Chrome","106.0.0.0","OS X","10_15_7","null","null","","<p style=""font-size: 48px;"">+</p>","3","Filler","",""
"","","","","","picture","96217","image-keyboard-response","82","186266","0.0-6.0-3.11","65","3","2022-11-17 12:23:39","fd252370c17a9971d68c1d4354a03c2e","","Mozilla/5.0 (Macintosh; Intel Mac OS X 10_15_7) AppleWebKit/537.36 (KHTML, like Gecko) Chrome/106.0.0.0 Safari/537.36","Macintosh","Chrome","106.0.0.0","OS X","10_15_7","902","s","","watermelon.jpg","3","Filler","true",""
"","","","","","fixation","96217","html-keyboard-response","83","187271","0.0-6.0-0.12","65","3","2022-11-17 12:23:39","fd252370c17a9971d68c1d4354a03c2e","","Mozilla/5.0 (Macintosh; Intel Mac OS X 10_15_7) AppleWebKit/537.36 (KHTML, like Gecko) Chrome/106.0.0.0 Safari/537.36","Macintosh","Chrome","106.0.0.0","OS X","10_15_7","null","null","","<p style=""font-size: 48px;"">+</p>","3","Filler","",""
"","","","","","sentence","96217","html-keyboard-response","84","188170","0.0-6.0-1.12","65","3","2022-11-17 12:23:39","fd252370c17a9971d68c1d4354a03c2e","","Mozilla/5.0 (Macintosh; Intel Mac OS X 10_15_7) AppleWebKit/537.36 (KHTML, like Gecko) Chrome/106.0.0.0 Safari/537.36","Macintosh","Chrome","106.0.0.0","OS X","10_15_7","897"," ","","A teenage girl is playing the piano","3","Filler","",""
"","","","","","fixation","96217","html-keyboard-response","85","188674","0.0-6.0-2.12","65","3","2022-11-17 12:23:39","fd252370c17a9971d68c1d4354a03c2e","","Mozilla/5.0 (Macintosh; Intel Mac OS X 10_15_7) AppleWebKit/537.36 (KHTML, like Gecko) Chrome/106.0.0.0 Safari/537.36","Macintosh","Chrome","106.0.0.0","OS X","10_15_7","null","null","","<p style=""font-size: 48px;"">+</p>","3","Filler","",""
"","","","","","picture","96217","image-keyboard-response","86","190002","0.0-6.0-3.12","65","3","2022-11-17 12:23:39","fd252370c17a9971d68c1d4354a03c2e","","Mozilla/5.0 (Macintosh; Intel Mac OS X 10_15_7) AppleWebKit/537.36 (KHTML, like Gecko) Chrome/106.0.0.0 Safari/537.36","Macintosh","Chrome","106.0.0.0","OS X","10_15_7","1326","n","","pillow.jpg","3","Filler","true",""
"","","","","","fixation","96217","html-keyboard-response","87","191004","0.0-6.0-0.13","65","3","2022-11-17 12:23:39","fd252370c17a9971d68c1d4354a03c2e","","Mozilla/5.0 (Macintosh; Intel Mac OS X 10_15_7) AppleWebKit/537.36 (KHTML, like Gecko) Chrome/106.0.0.0 Safari/537.36","Macintosh","Chrome","106.0.0.0","OS X","10_15_7","null","null","","<p style=""font-size: 48px;"">+</p>","3","Light_Matched","",""
"","","","","","sentence","96217","html-keyboard-response","88","192314","0.0-6.0-1.13","65","3","2022-11-17 12:23:39","fd252370c17a9971d68c1d4354a03c2e","","Mozilla/5.0 (Macintosh; Intel Mac OS X 10_15_7) AppleWebKit/537.36 (KHTML, like Gecko) Chrome/106.0.0.0 Safari/537.36","Macintosh","Chrome","106.0.0.0","OS X","10_15_7","1307"," ","","A balloon dropped and touched an egg","3","Light_Matched","",""
"","","","","","fixation","96217","html-keyboard-response","89","192817","0.0-6.0-2.13","65","3","2022-11-17 12:23:39","fd252370c17a9971d68c1d4354a03c2e","","Mozilla/5.0 (Macintosh; Intel Mac OS X 10_15_7) AppleWebKit/537.36 (KHTML, like Gecko) Chrome/106.0.0.0 Safari/537.36","Macintosh","Chrome","106.0.0.0","OS X","10_15_7","null","null","","<p style=""font-size: 48px;"">+</p>","3","Light_Matched","",""
"","","","","","picture","96217","image-keyboard-response","90","194665","0.0-6.0-3.13","65","3","2022-11-17 12:23:39","fd252370c17a9971d68c1d4354a03c2e","","Mozilla/5.0 (Macintosh; Intel Mac OS X 10_15_7) AppleWebKit/537.36 (KHTML, like Gecko) Chrome/106.0.0.0 Safari/537.36","Macintosh","Chrome","106.0.0.0","OS X","10_15_7","1846","s","","eggS.jpg","3","Light_Matched","true",""
"","","","","","fixation","96217","html-keyboard-response","91","195671","0.0-6.0-0.14","65","3","2022-11-17 12:23:39","fd252370c17a9971d68c1d4354a03c2e","","Mozilla/5.0 (Macintosh; Intel Mac OS X 10_15_7) AppleWebKit/537.36 (KHTML, like Gecko) Chrome/106.0.0.0 Safari/537.36","Macintosh","Chrome","106.0.0.0","OS X","10_15_7","null","null","","<p style=""font-size: 48px;"">+</p>","3","Filler","",""
"","","","","","sentence","96217","html-keyboard-response","92","196354","0.0-6.0-1.14","65","3","2022-11-17 12:23:39","fd252370c17a9971d68c1d4354a03c2e","","Mozilla/5.0 (Macintosh; Intel Mac OS X 10_15_7) AppleWebKit/537.36 (KHTML, like Gecko) Chrome/106.0.0.0 Safari/537.36","Macintosh","Chrome","106.0.0.0","OS X","10_15_7","680"," ","","A postman is driving a car","3","Filler","",""
"","","","","","fixation","96217","html-keyboard-response","93","196856","0.0-6.0-2.14","65","3","2022-11-17 12:23:39","fd252370c17a9971d68c1d4354a03c2e","","Mozilla/5.0 (Macintosh; Intel Mac OS X 10_15_7) AppleWebKit/537.36 (KHTML, like Gecko) Chrome/106.0.0.0 Safari/537.36","Macintosh","Chrome","106.0.0.0","OS X","10_15_7","null","null","","<p style=""font-size: 48px;"">+</p>","3","Filler","",""
"","","","","","picture","96217","image-keyboard-response","94","197945","0.0-6.0-3.14","65","3","2022-11-17 12:23:39","fd252370c17a9971d68c1d4354a03c2e","","Mozilla/5.0 (Macintosh; Intel Mac OS X 10_15_7) AppleWebKit/537.36 (KHTML, like Gecko) Chrome/106.0.0.0 Safari/537.36","Macintosh","Chrome","106.0.0.0","OS X","10_15_7","1086","s","","car.jpg","3","Filler","true",""
"","","","","","fixation","96217","html-keyboard-response","95","198950","0.0-6.0-0.15","65","3","2022-11-17 12:23:39","fd252370c17a9971d68c1d4354a03c2e","","Mozilla/5.0 (Macintosh; Intel Mac OS X 10_15_7) AppleWebKit/537.36 (KHTML, like Gecko) Chrome/106.0.0.0 Safari/537.36","Macintosh","Chrome","106.0.0.0","OS X","10_15_7","null","null","","<p style=""font-size: 48px;"">+</p>","3","Filler","",""
"","","","","","sentence","96217","html-keyboard-response","96","199801","0.0-6.0-1.15","65","3","2022-11-17 12:23:39","fd252370c17a9971d68c1d4354a03c2e","","Mozilla/5.0 (Macintosh; Intel Mac OS X 10_15_7) AppleWebKit/537.36 (KHTML, like Gecko) Chrome/106.0.0.0 Safari/537.36","Macintosh","Chrome","106.0.0.0","OS X","10_15_7","848"," ","","A thermometer was placed on the box","3","Filler","",""
"","","","","","fixation","96217","html-keyboard-response","97","200305","0.0-6.0-2.15","65","3","2022-11-17 12:23:39","fd252370c17a9971d68c1d4354a03c2e","","Mozilla/5.0 (Macintosh; Intel Mac OS X 10_15_7) AppleWebKit/537.36 (KHTML, like Gecko) Chrome/106.0.0.0 Safari/537.36","Macintosh","Chrome","106.0.0.0","OS X","10_15_7","null","null","","<p style=""font-size: 48px;"">+</p>","3","Filler","",""
"","","","","","picture","96217","image-keyboard-response","98","200905","0.0-6.0-3.15","65","3","2022-11-17 12:23:39","fd252370c17a9971d68c1d4354a03c2e","","Mozilla/5.0 (Macintosh; Intel Mac OS X 10_15_7) AppleWebKit/537.36 (KHTML, like Gecko) Chrome/106.0.0.0 Safari/537.36","Macintosh","Chrome","106.0.0.0","OS X","10_15_7","598","n","","button.jpg","3","Filler","true",""
"","","","","","fixation","96217","html-keyboard-response","99","201911","0.0-6.0-0.16","65","3","2022-11-17 12:23:39","fd252370c17a9971d68c1d4354a03c2e","","Mozilla/5.0 (Macintosh; Intel Mac OS X 10_15_7) AppleWebKit/537.36 (KHTML, like Gecko) Chrome/106.0.0.0 Safari/537.36","Macintosh","Chrome","106.0.0.0","OS X","10_15_7","null","null","","<p style=""font-size: 48px;"">+</p>","3","Filler","",""
"","","","","","sentence","96217","html-keyboard-response","100","202609","0.0-6.0-1.16","65","3","2022-11-17 12:23:39","fd252370c17a9971d68c1d4354a03c2e","","Mozilla/5.0 (Macintosh; Intel Mac OS X 10_15_7) AppleWebKit/537.36 (KHTML, like Gecko) Chrome/106.0.0.0 Safari/537.36","Macintosh","Chrome","106.0.0.0","OS X","10_15_7","697"," ","","A pencil was placed on the shoe","3","Filler","",""
"","","","","","fixation","96217","html-keyboard-response","101","203111","0.0-6.0-2.16","65","3","2022-11-17 12:23:39","fd252370c17a9971d68c1d4354a03c2e","","Mozilla/5.0 (Macintosh; Intel Mac OS X 10_15_7) AppleWebKit/537.36 (KHTML, like Gecko) Chrome/106.0.0.0 Safari/537.36","Macintosh","Chrome","106.0.0.0","OS X","10_15_7","null","null","","<p style=""font-size: 48px;"">+</p>","3","Filler","",""
"","","","","","picture","96217","image-keyboard-response","102","203865","0.0-6.0-3.16","65","3","2022-11-17 12:23:39","fd252370c17a9971d68c1d4354a03c2e","","Mozilla/5.0 (Macintosh; Intel Mac OS X 10_15_7) AppleWebKit/537.36 (KHTML, like Gecko) Chrome/106.0.0.0 Safari/537.36","Macintosh","Chrome","106.0.0.0","OS X","10_15_7","752","n","","perfume.jpg","3","Filler","true",""
"","","","","","fixation","96217","html-keyboard-response","103","204871","0.0-6.0-0.17","65","3","2022-11-17 12:23:39","fd252370c17a9971d68c1d4354a03c2e","","Mozilla/5.0 (Macintosh; Intel Mac OS X 10_15_7) AppleWebKit/537.36 (KHTML, like Gecko) Chrome/106.0.0.0 Safari/537.36","Macintosh","Chrome","106.0.0.0","OS X","10_15_7","null","null","","<p style=""font-size: 48px;"">+</p>","3","Filler","",""
"","","","","","sentence","96217","html-keyboard-response","104","205441","0.0-6.0-1.17","65","3","2022-11-17 12:23:39","fd252370c17a9971d68c1d4354a03c2e","","Mozilla/5.0 (Macintosh; Intel Mac OS X 10_15_7) AppleWebKit/537.36 (KHTML, like Gecko) Chrome/106.0.0.0 Safari/537.36","Macintosh","Chrome","106.0.0.0","OS X","10_15_7","569"," ","","An owl is sitting on the branch","3","Filler","",""
"","","","","","fixation","96217","html-keyboard-response","105","205943","0.0-6.0-2.17","65","3","2022-11-17 12:23:39","fd252370c17a9971d68c1d4354a03c2e","","Mozilla/5.0 (Macintosh; Intel Mac OS X 10_15_7) AppleWebKit/537.36 (KHTML, like Gecko) Chrome/106.0.0.0 Safari/537.36","Macintosh","Chrome","106.0.0.0","OS X","10_15_7","null","null","","<p style=""font-size: 48px;"">+</p>","3","Filler","",""
"","","","","","picture","96217","image-keyboard-response","106","206738","0.0-6.0-3.17","65","3","2022-11-17 12:23:39","fd252370c17a9971d68c1d4354a03c2e","","Mozilla/5.0 (Macintosh; Intel Mac OS X 10_15_7) AppleWebKit/537.36 (KHTML, like Gecko) Chrome/106.0.0.0 Safari/537.36","Macintosh","Chrome","106.0.0.0","OS X","10_15_7","792","n","","rubberduck.jpg","3","Filler","true",""
"","","","","","fixation","96217","html-keyboard-response","107","207740","0.0-6.0-0.18","65","3","2022-11-17 12:23:39","fd252370c17a9971d68c1d4354a03c2e","","Mozilla/5.0 (Macintosh; Intel Mac OS X 10_15_7) AppleWebKit/537.36 (KHTML, like Gecko) Chrome/106.0.0.0 Safari/537.36","Macintosh","Chrome","106.0.0.0","OS X","10_15_7","null","null","","<p style=""font-size: 48px;"">+</p>","3","Filler","",""
"","","","","","sentence","96217","html-keyboard-response","108","208193","0.0-6.0-1.18","65","3","2022-11-17 12:23:39","fd252370c17a9971d68c1d4354a03c2e","","Mozilla/5.0 (Macintosh; Intel Mac OS X 10_15_7) AppleWebKit/537.36 (KHTML, like Gecko) Chrome/106.0.0.0 Safari/537.36","Macintosh","Chrome","106.0.0.0","OS X","10_15_7","452"," ","","A nurse is taking a syringe","3","Filler","",""
"","","","","","fixation","96217","html-keyboard-response","109","208695","0.0-6.0-2.18","65","3","2022-11-17 12:23:39","fd252370c17a9971d68c1d4354a03c2e","","Mozilla/5.0 (Macintosh; Intel Mac OS X 10_15_7) AppleWebKit/537.36 (KHTML, like Gecko) Chrome/106.0.0.0 Safari/537.36","Macintosh","Chrome","106.0.0.0","OS X","10_15_7","null","null","","<p style=""font-size: 48px;"">+</p>","3","Filler","",""
"","","","","","picture","96217","image-keyboard-response","110","209361","0.0-6.0-3.18","65","3","2022-11-17 12:23:39","fd252370c17a9971d68c1d4354a03c2e","","Mozilla/5.0 (Macintosh; Intel Mac OS X 10_15_7) AppleWebKit/537.36 (KHTML, like Gecko) Chrome/106.0.0.0 Safari/537.36","Macintosh","Chrome","106.0.0.0","OS X","10_15_7","664","n","","headphones.jpg","3","Filler","true",""
"","","","","","fixation","96217","html-keyboard-response","111","210364","0.0-6.0-0.19","65","3","2022-11-17 12:23:39","fd252370c17a9971d68c1d4354a03c2e","","Mozilla/5.0 (Macintosh; Intel Mac OS X 10_15_7) AppleWebKit/537.36 (KHTML, like Gecko) Chrome/106.0.0.0 Safari/537.36","Macintosh","Chrome","106.0.0.0","OS X","10_15_7","null","null","","<p style=""font-size: 48px;"">+</p>","3","Filler","",""
"","","","","","sentence","96217","html-keyboard-response","112","211049","0.0-6.0-1.19","65","3","2022-11-17 12:23:39","fd252370c17a9971d68c1d4354a03c2e","","Mozilla/5.0 (Macintosh; Intel Mac OS X 10_15_7) AppleWebKit/537.36 (KHTML, like Gecko) Chrome/106.0.0.0 Safari/537.36","Macintosh","Chrome","106.0.0.0","OS X","10_15_7","683"," ","","An old man is hammering a nail","3","Filler","",""
"","","","","","fixation","96217","html-keyboard-response","113","211553","0.0-6.0-2.19","65","3","2022-11-17 12:23:39","fd252370c17a9971d68c1d4354a03c2e","","Mozilla/5.0 (Macintosh; Intel Mac OS X 10_15_7) AppleWebKit/537.36 (KHTML, like Gecko) Chrome/106.0.0.0 Safari/537.36","Macintosh","Chrome","106.0.0.0","OS X","10_15_7","null","null","","<p style=""font-size: 48px;"">+</p>","3","Filler","",""
"","","","","","picture","96217","image-keyboard-response","114","212217","0.0-6.0-3.19","65","3","2022-11-17 12:23:39","fd252370c17a9971d68c1d4354a03c2e","","Mozilla/5.0 (Macintosh; Intel Mac OS X 10_15_7) AppleWebKit/537.36 (KHTML, like Gecko) Chrome/106.0.0.0 Safari/537.36","Macintosh","Chrome","106.0.0.0","OS X","10_15_7","661","s","","nail.jpg","3","Filler","true",""
"","","","","","fixation","96217","html-keyboard-response","115","213223","0.0-6.0-0.20","65","3","2022-11-17 12:23:39","fd252370c17a9971d68c1d4354a03c2e","","Mozilla/5.0 (Macintosh; Intel Mac OS X 10_15_7) AppleWebKit/537.36 (KHTML, like Gecko) Chrome/106.0.0.0 Safari/537.36","Macintosh","Chrome","106.0.0.0","OS X","10_15_7","null","null","","<p style=""font-size: 48px;"">+</p>","3","Filler","",""
"","","","","","sentence","96217","html-keyboard-response","116","243465","0.0-6.0-1.20","65","3","2022-11-17 12:23:39","fd252370c17a9971d68c1d4354a03c2e","","Mozilla/5.0 (Macintosh; Intel Mac OS X 10_15_7) AppleWebKit/537.36 (KHTML, like Gecko) Chrome/106.0.0.0 Safari/537.36","Macintosh","Chrome","106.0.0.0","OS X","10_15_7","30241"," ","","A pilot is reading a book","3","Filler","",""
"","","","","","fixation","96217","html-keyboard-response","117","243969","0.0-6.0-2.20","65","3","2022-11-17 12:23:39","fd252370c17a9971d68c1d4354a03c2e","","Mozilla/5.0 (Macintosh; Intel Mac OS X 10_15_7) AppleWebKit/537.36 (KHTML, like Gecko) Chrome/106.0.0.0 Safari/537.36","Macintosh","Chrome","106.0.0.0","OS X","10_15_7","null","null","","<p style=""font-size: 48px;"">+</p>","3","Filler","",""
"","","","","","picture","96217","image-keyboard-response","118","245169","0.0-6.0-3.20","65","3","2022-11-17 12:23:39","fd252370c17a9971d68c1d4354a03c2e","","Mozilla/5.0 (Macintosh; Intel Mac OS X 10_15_7) AppleWebKit/537.36 (KHTML, like Gecko) Chrome/106.0.0.0 Safari/537.36","Macintosh","Chrome","106.0.0.0","OS X","10_15_7","1197","n","","spoon.jpg","3","Filler","true",""
"","","","","","fixation","96217","html-keyboard-response","119","246177","0.0-6.0-0.21","65","3","2022-11-17 12:23:39","fd252370c17a9971d68c1d4354a03c2e","","Mozilla/5.0 (Macintosh; Intel Mac OS X 10_15_7) AppleWebKit/537.36 (KHTML, like Gecko) Chrome/106.0.0.0 Safari/537.36","Macintosh","Chrome","106.0.0.0","OS X","10_15_7","null","null","","<p style=""font-size: 48px;"">+</p>","3","Filler","",""
"","","","","","sentence","96217","html-keyboard-response","120","247305","0.0-6.0-1.21","65","3","2022-11-17 12:23:39","fd252370c17a9971d68c1d4354a03c2e","","Mozilla/5.0 (Macintosh; Intel Mac OS X 10_15_7) AppleWebKit/537.36 (KHTML, like Gecko) Chrome/106.0.0.0 Safari/537.36","Macintosh","Chrome","106.0.0.0","OS X","10_15_7","1126"," ","","A doctor is taking a stethoscope","3","Filler","",""
"","","","","","fixation","96217","html-keyboard-response","121","247809","0.0-6.0-2.21","65","3","2022-11-17 12:23:39","fd252370c17a9971d68c1d4354a03c2e","","Mozilla/5.0 (Macintosh; Intel Mac OS X 10_15_7) AppleWebKit/537.36 (KHTML, like Gecko) Chrome/106.0.0.0 Safari/537.36","Macintosh","Chrome","106.0.0.0","OS X","10_15_7","null","null","","<p style=""font-size: 48px;"">+</p>","3","Filler","",""
"","","","","","picture","96217","image-keyboard-response","122","248497","0.0-6.0-3.21","65","3","2022-11-17 12:23:39","fd252370c17a9971d68c1d4354a03c2e","","Mozilla/5.0 (Macintosh; Intel Mac OS X 10_15_7) AppleWebKit/537.36 (KHTML, like Gecko) Chrome/106.0.0.0 Safari/537.36","Macintosh","Chrome","106.0.0.0","OS X","10_15_7","684","n","","matchesbox.jpg","3","Filler","true",""
"","","","","","fixation","96217","html-keyboard-response","123","249500","0.0-6.0-0.22","65","3","2022-11-17 12:23:39","fd252370c17a9971d68c1d4354a03c2e","","Mozilla/5.0 (Macintosh; Intel Mac OS X 10_15_7) AppleWebKit/537.36 (KHTML, like Gecko) Chrome/106.0.0.0 Safari/537.36","Macintosh","Chrome","106.0.0.0","OS X","10_15_7","null","null","","<p style=""font-size: 48px;"">+</p>","3","Filler","",""
"","","","","","sentence","96217","html-keyboard-response","124","250417","0.0-6.0-1.22","65","3","2022-11-17 12:23:39","fd252370c17a9971d68c1d4354a03c2e","","Mozilla/5.0 (Macintosh; Intel Mac OS X 10_15_7) AppleWebKit/537.36 (KHTML, like Gecko) Chrome/106.0.0.0 Safari/537.36","Macintosh","Chrome","106.0.0.0","OS X","10_15_7","915"," ","","A cabbage was placed on the table","3","Filler","",""
"","","","","","fixation","96217","html-keyboard-response","125","250920","0.0-6.0-2.22","65","3","2022-11-17 12:23:39","fd252370c17a9971d68c1d4354a03c2e","","Mozilla/5.0 (Macintosh; Intel Mac OS X 10_15_7) AppleWebKit/537.36 (KHTML, like Gecko) Chrome/106.0.0.0 Safari/537.36","Macintosh","Chrome","106.0.0.0","OS X","10_15_7","null","null","","<p style=""font-size: 48px;"">+</p>","3","Filler","",""
"","","","","","picture","96217","image-keyboard-response","126","251641","0.0-6.0-3.22","65","3","2022-11-17 12:23:39","fd252370c17a9971d68c1d4354a03c2e","","Mozilla/5.0 (Macintosh; Intel Mac OS X 10_15_7) AppleWebKit/537.36 (KHTML, like Gecko) Chrome/106.0.0.0 Safari/537.36","Macintosh","Chrome","106.0.0.0","OS X","10_15_7","718","n","","ladder.jpg","3","Filler","true",""
"","","","","","fixation","96217","html-keyboard-response","127","252646","0.0-6.0-0.23","65","3","2022-11-17 12:23:39","fd252370c17a9971d68c1d4354a03c2e","","Mozilla/5.0 (Macintosh; Intel Mac OS X 10_15_7) AppleWebKit/537.36 (KHTML, like Gecko) Chrome/106.0.0.0 Safari/537.36","Macintosh","Chrome","106.0.0.0","OS X","10_15_7","null","null","","<p style=""font-size: 48px;"">+</p>","3","Filler","",""
"","","","","","sentence","96217","html-keyboard-response","128","253305","0.0-6.0-1.23","65","3","2022-11-17 12:23:39","fd252370c17a9971d68c1d4354a03c2e","","Mozilla/5.0 (Macintosh; Intel Mac OS X 10_15_7) AppleWebKit/537.36 (KHTML, like Gecko) Chrome/106.0.0.0 Safari/537.36","Macintosh","Chrome","106.0.0.0","OS X","10_15_7","656"," ","","A zebra is playing with a horse","3","Filler","",""
"","","","","","fixation","96217","html-keyboard-response","129","253809","0.0-6.0-2.23","65","3","2022-11-17 12:23:39","fd252370c17a9971d68c1d4354a03c2e","","Mozilla/5.0 (Macintosh; Intel Mac OS X 10_15_7) AppleWebKit/537.36 (KHTML, like Gecko) Chrome/106.0.0.0 Safari/537.36","Macintosh","Chrome","106.0.0.0","OS X","10_15_7","null","null","","<p style=""font-size: 48px;"">+</p>","3","Filler","",""
"","","","","","picture","96217","image-keyboard-response","130","254329","0.0-6.0-3.23","65","3","2022-11-17 12:23:39","fd252370c17a9971d68c1d4354a03c2e","","Mozilla/5.0 (Macintosh; Intel Mac OS X 10_15_7) AppleWebKit/537.36 (KHTML, like Gecko) Chrome/106.0.0.0 Safari/537.36","Macintosh","Chrome","106.0.0.0","OS X","10_15_7","517","n","","watch.jpg","3","Filler","true",""
"","","","","","fixation","96217","html-keyboard-response","131","255334","0.0-6.0-0.24","65","3","2022-11-17 12:23:39","fd252370c17a9971d68c1d4354a03c2e","","Mozilla/5.0 (Macintosh; Intel Mac OS X 10_15_7) AppleWebKit/537.36 (KHTML, like Gecko) Chrome/106.0.0.0 Safari/537.36","Macintosh","Chrome","106.0.0.0","OS X","10_15_7","null","null","","<p style=""font-size: 48px;"">+</p>","3","Filler","",""
"","","","","","sentence","96217","html-keyboard-response","132","256073","0.0-6.0-1.24","65","3","2022-11-17 12:23:39","fd252370c17a9971d68c1d4354a03c2e","","Mozilla/5.0 (Macintosh; Intel Mac OS X 10_15_7) AppleWebKit/537.36 (KHTML, like Gecko) Chrome/106.0.0.0 Safari/537.36","Macintosh","Chrome","106.0.0.0","OS X","10_15_7","736"," ","","A panda is resting on a tree","3","Filler","",""
"","","","","","fixation","96217","html-keyboard-response","133","256577","0.0-6.0-2.24","65","3","2022-11-17 12:23:39","fd252370c17a9971d68c1d4354a03c2e","","Mozilla/5.0 (Macintosh; Intel Mac OS X 10_15_7) AppleWebKit/537.36 (KHTML, like Gecko) Chrome/106.0.0.0 Safari/537.36","Macintosh","Chrome","106.0.0.0","OS X","10_15_7","null","null","","<p style=""font-size: 48px;"">+</p>","3","Filler","",""
"","","","","","picture","96217","image-keyboard-response","134","257113","0.0-6.0-3.24","65","3","2022-11-17 12:23:39","fd252370c17a9971d68c1d4354a03c2e","","Mozilla/5.0 (Macintosh; Intel Mac OS X 10_15_7) AppleWebKit/537.36 (KHTML, like Gecko) Chrome/106.0.0.0 Safari/537.36","Macintosh","Chrome","106.0.0.0","OS X","10_15_7","533","n","","dollar.jpg","3","Filler","true",""
"","","","","","fixation","96217","html-keyboard-response","135","258118","0.0-6.0-0.25","65","3","2022-11-17 12:23:39","fd252370c17a9971d68c1d4354a03c2e","","Mozilla/5.0 (Macintosh; Intel Mac OS X 10_15_7) AppleWebKit/537.36 (KHTML, like Gecko) Chrome/106.0.0.0 Safari/537.36","Macintosh","Chrome","106.0.0.0","OS X","10_15_7","null","null","","<p style=""font-size: 48px;"">+</p>","3","Filler","",""
"","","","","","sentence","96217","html-keyboard-response","136","259585","0.0-6.0-1.25","65","3","2022-11-17 12:23:39","fd252370c17a9971d68c1d4354a03c2e","","Mozilla/5.0 (Macintosh; Intel Mac OS X 10_15_7) AppleWebKit/537.36 (KHTML, like Gecko) Chrome/106.0.0.0 Safari/537.36","Macintosh","Chrome","106.0.0.0","OS X","10_15_7","1465"," ","","A boy is wearing a hat","3","Filler","",""
"","","","","","fixation","96217","html-keyboard-response","137","260088","0.0-6.0-2.25","65","3","2022-11-17 12:23:39","fd252370c17a9971d68c1d4354a03c2e","","Mozilla/5.0 (Macintosh; Intel Mac OS X 10_15_7) AppleWebKit/537.36 (KHTML, like Gecko) Chrome/106.0.0.0 Safari/537.36","Macintosh","Chrome","106.0.0.0","OS X","10_15_7","null","null","","<p style=""font-size: 48px;"">+</p>","3","Filler","",""
"","","","","","picture","96217","image-keyboard-response","138","260761","0.0-6.0-3.25","65","3","2022-11-17 12:23:39","fd252370c17a9971d68c1d4354a03c2e","","Mozilla/5.0 (Macintosh; Intel Mac OS X 10_15_7) AppleWebKit/537.36 (KHTML, like Gecko) Chrome/106.0.0.0 Safari/537.36","Macintosh","Chrome","106.0.0.0","OS X","10_15_7","671","s","","hat.jpg","3","Filler","true",""
"","","","","","fixation","96217","html-keyboard-response","139","261766","0.0-6.0-0.26","65","3","2022-11-17 12:23:39","fd252370c17a9971d68c1d4354a03c2e","","Mozilla/5.0 (Macintosh; Intel Mac OS X 10_15_7) AppleWebKit/537.36 (KHTML, like Gecko) Chrome/106.0.0.0 Safari/537.36","Macintosh","Chrome","106.0.0.0","OS X","10_15_7","null","null","","<p style=""font-size: 48px;"">+</p>","3","Light_Contradictory","",""
"","","","","","sentence","96217","html-keyboard-response","140","262569","0.0-6.0-1.26","65","3","2022-11-17 12:23:39","fd252370c17a9971d68c1d4354a03c2e","","Mozilla/5.0 (Macintosh; Intel Mac OS X 10_15_7) AppleWebKit/537.36 (KHTML, like Gecko) Chrome/106.0.0.0 Safari/537.36","Macintosh","Chrome","106.0.0.0","OS X","10_15_7","801"," ","","A balloon dropped and smashed a banana","3","Light_Contradictory","",""
"","","","","","fixation","96217","html-keyboard-response","141","263073","0.0-6.0-2.26","65","3","2022-11-17 12:23:39","fd252370c17a9971d68c1d4354a03c2e","","Mozilla/5.0 (Macintosh; Intel Mac OS X 10_15_7) AppleWebKit/537.36 (KHTML, like Gecko) Chrome/106.0.0.0 Safari/537.36","Macintosh","Chrome","106.0.0.0","OS X","10_15_7","null","null","","<p style=""font-size: 48px;"">+</p>","3","Light_Contradictory","",""
"","","","","","picture","96217","image-keyboard-response","142","263977","0.0-6.0-3.26","65","3","2022-11-17 12:23:39","fd252370c17a9971d68c1d4354a03c2e","","Mozilla/5.0 (Macintosh; Intel Mac OS X 10_15_7) AppleWebKit/537.36 (KHTML, like Gecko) Chrome/106.0.0.0 Safari/537.36","Macintosh","Chrome","106.0.0.0","OS X","10_15_7","901","s","","bananaS.jpg","3","Light_Contradictory","true",""
"","","","","","fixation","96217","html-keyboard-response","143","264982","0.0-6.0-0.27","65","3","2022-11-17 12:23:39","fd252370c17a9971d68c1d4354a03c2e","","Mozilla/5.0 (Macintosh; Intel Mac OS X 10_15_7) AppleWebKit/537.36 (KHTML, like Gecko) Chrome/106.0.0.0 Safari/537.36","Macintosh","Chrome","106.0.0.0","OS X","10_15_7","null","null","","<p style=""font-size: 48px;"">+</p>","3","Light_Matched","",""
"","","","","","sentence","96217","html-keyboard-response","144","266257","0.0-6.0-1.27","65","3","2022-11-17 12:23:39","fd252370c17a9971d68c1d4354a03c2e","","Mozilla/5.0 (Macintosh; Intel Mac OS X 10_15_7) AppleWebKit/537.36 (KHTML, like Gecko) Chrome/106.0.0.0 Safari/537.36","Macintosh","Chrome","106.0.0.0","OS X","10_15_7","1273"," ","","A balloon dropped and touched a cracker","3","Light_Matched","",""
"","","","","","fixation","96217","html-keyboard-response","145","266760","0.0-6.0-2.27","65","3","2022-11-17 12:23:39","fd252370c17a9971d68c1d4354a03c2e","","Mozilla/5.0 (Macintosh; Intel Mac OS X 10_15_7) AppleWebKit/537.36 (KHTML, like Gecko) Chrome/106.0.0.0 Safari/537.36","Macintosh","Chrome","106.0.0.0","OS X","10_15_7","null","null","","<p style=""font-size: 48px;"">+</p>","3","Light_Matched","",""
"","","","","","picture","96217","image-keyboard-response","146","267553","0.0-6.0-3.27","65","3","2022-11-17 12:23:39","fd252370c17a9971d68c1d4354a03c2e","","Mozilla/5.0 (Macintosh; Intel Mac OS X 10_15_7) AppleWebKit/537.36 (KHTML, like Gecko) Chrome/106.0.0.0 Safari/537.36","Macintosh","Chrome","106.0.0.0","OS X","10_15_7","789","s","","crackerS.jpg","3","Light_Matched","true",""
"","","","","","fixation","96217","html-keyboard-response","147","268561","0.0-6.0-0.28","65","3","2022-11-17 12:23:39","fd252370c17a9971d68c1d4354a03c2e","","Mozilla/5.0 (Macintosh; Intel Mac OS X 10_15_7) AppleWebKit/537.36 (KHTML, like Gecko) Chrome/106.0.0.0 Safari/537.36","Macintosh","Chrome","106.0.0.0","OS X","10_15_7","null","null","","<p style=""font-size: 48px;"">+</p>","3","Filler","",""
"","","","","","sentence","96217","html-keyboard-response","148","269321","0.0-6.0-1.28","65","3","2022-11-17 12:23:39","fd252370c17a9971d68c1d4354a03c2e","","Mozilla/5.0 (Macintosh; Intel Mac OS X 10_15_7) AppleWebKit/537.36 (KHTML, like Gecko) Chrome/106.0.0.0 Safari/537.36","Macintosh","Chrome","106.0.0.0","OS X","10_15_7","757"," ","","A musician is playing a guitar","3","Filler","",""
"","","","","","fixation","96217","html-keyboard-response","149","269825","0.0-6.0-2.28","65","3","2022-11-17 12:23:39","fd252370c17a9971d68c1d4354a03c2e","","Mozilla/5.0 (Macintosh; Intel Mac OS X 10_15_7) AppleWebKit/537.36 (KHTML, like Gecko) Chrome/106.0.0.0 Safari/537.36","Macintosh","Chrome","106.0.0.0","OS X","10_15_7","null","null","","<p style=""font-size: 48px;"">+</p>","3","Filler","",""
"","","","","","picture","96217","image-keyboard-response","150","270481","0.0-6.0-3.28","65","3","2022-11-17 12:23:39","fd252370c17a9971d68c1d4354a03c2e","","Mozilla/5.0 (Macintosh; Intel Mac OS X 10_15_7) AppleWebKit/537.36 (KHTML, like Gecko) Chrome/106.0.0.0 Safari/537.36","Macintosh","Chrome","106.0.0.0","OS X","10_15_7","653","s","","guitar.jpg","3","Filler","true",""
"","","","","","fixation","96217","html-keyboard-response","151","271487","0.0-6.0-0.29","65","3","2022-11-17 12:23:39","fd252370c17a9971d68c1d4354a03c2e","","Mozilla/5.0 (Macintosh; Intel Mac OS X 10_15_7) AppleWebKit/537.36 (KHTML, like Gecko) Chrome/106.0.0.0 Safari/537.36","Macintosh","Chrome","106.0.0.0","OS X","10_15_7","null","null","","<p style=""font-size: 48px;"">+</p>","3","Light_Matched","",""
"","","","","","sentence","96217","html-keyboard-response","152","272585","0.0-6.0-1.29","65","3","2022-11-17 12:23:39","fd252370c17a9971d68c1d4354a03c2e","","Mozilla/5.0 (Macintosh; Intel Mac OS X 10_15_7) AppleWebKit/537.36 (KHTML, like Gecko) Chrome/106.0.0.0 Safari/537.36","Macintosh","Chrome","106.0.0.0","OS X","10_15_7","1095"," ","","A balloon dropped and touched a TV","3","Light_Matched","",""
"","","","","","fixation","96217","html-keyboard-response","153","273089","0.0-6.0-2.29","65","3","2022-11-17 12:23:39","fd252370c17a9971d68c1d4354a03c2e","","Mozilla/5.0 (Macintosh; Intel Mac OS X 10_15_7) AppleWebKit/537.36 (KHTML, like Gecko) Chrome/106.0.0.0 Safari/537.36","Macintosh","Chrome","106.0.0.0","OS X","10_15_7","null","null","","<p style=""font-size: 48px;"">+</p>","3","Light_Matched","",""
"","","","","","picture","96217","image-keyboard-response","154","273929","0.0-6.0-3.29","65","3","2022-11-17 12:23:39","fd252370c17a9971d68c1d4354a03c2e","","Mozilla/5.0 (Macintosh; Intel Mac OS X 10_15_7) AppleWebKit/537.36 (KHTML, like Gecko) Chrome/106.0.0.0 Safari/537.36","Macintosh","Chrome","106.0.0.0","OS X","10_15_7","837","s","","tvS.jpg","3","Light_Matched","true",""
"","","","","","fixation","96217","html-keyboard-response","155","274934","0.0-6.0-0.30","65","3","2022-11-17 12:23:39","fd252370c17a9971d68c1d4354a03c2e","","Mozilla/5.0 (Macintosh; Intel Mac OS X 10_15_7) AppleWebKit/537.36 (KHTML, like Gecko) Chrome/106.0.0.0 Safari/537.36","Macintosh","Chrome","106.0.0.0","OS X","10_15_7","null","null","","<p style=""font-size: 48px;"">+</p>","3","Light_Matched","",""
"","","","","","sentence","96217","html-keyboard-response","156","276033","0.0-6.0-1.30","65","3","2022-11-17 12:23:39","fd252370c17a9971d68c1d4354a03c2e","","Mozilla/5.0 (Macintosh; Intel Mac OS X 10_15_7) AppleWebKit/537.36 (KHTML, like Gecko) Chrome/106.0.0.0 Safari/537.36","Macintosh","Chrome","106.0.0.0","OS X","10_15_7","1096"," ","","A balloon dropped and touched a piece of cake","3","Light_Matched","",""
"","","","","","fixation","96217","html-keyboard-response","157","276537","0.0-6.0-2.30","65","3","2022-11-17 12:23:39","fd252370c17a9971d68c1d4354a03c2e","","Mozilla/5.0 (Macintosh; Intel Mac OS X 10_15_7) AppleWebKit/537.36 (KHTML, like Gecko) Chrome/106.0.0.0 Safari/537.36","Macintosh","Chrome","106.0.0.0","OS X","10_15_7","null","null","","<p style=""font-size: 48px;"">+</p>","3","Light_Matched","",""
"","","","","","picture","96217","image-keyboard-response","158","277241","0.0-6.0-3.30","65","3","2022-11-17 12:23:39","fd252370c17a9971d68c1d4354a03c2e","","Mozilla/5.0 (Macintosh; Intel Mac OS X 10_15_7) AppleWebKit/537.36 (KHTML, like Gecko) Chrome/106.0.0.0 Safari/537.36","Macintosh","Chrome","106.0.0.0","OS X","10_15_7","700","s","","cakeS.jpg","3","Light_Matched","true",""
"","","","","","fixation","96217","html-keyboard-response","159","278246","0.0-6.0-0.31","65","3","2022-11-17 12:23:39","fd252370c17a9971d68c1d4354a03c2e","","Mozilla/5.0 (Macintosh; Intel Mac OS X 10_15_7) AppleWebKit/537.36 (KHTML, like Gecko) Chrome/106.0.0.0 Safari/537.36","Macintosh","Chrome","106.0.0.0","OS X","10_15_7","null","null","","<p style=""font-size: 48px;"">+</p>","3","Light_Matched","",""
"","","","","","sentence","96217","html-keyboard-response","160","279761","0.0-6.0-1.31","65","3","2022-11-17 12:23:39","fd252370c17a9971d68c1d4354a03c2e","","Mozilla/5.0 (Macintosh; Intel Mac OS X 10_15_7) AppleWebKit/537.36 (KHTML, like Gecko) Chrome/106.0.0.0 Safari/537.36","Macintosh","Chrome","106.0.0.0","OS X","10_15_7","1512"," ","","A balloon dropped and touched a wineglass","3","Light_Matched","",""
"","","","","","fixation","96217","html-keyboard-response","161","280264","0.0-6.0-2.31","65","3","2022-11-17 12:23:39","fd252370c17a9971d68c1d4354a03c2e","","Mozilla/5.0 (Macintosh; Intel Mac OS X 10_15_7) AppleWebKit/537.36 (KHTML, like Gecko) Chrome/106.0.0.0 Safari/537.36","Macintosh","Chrome","106.0.0.0","OS X","10_15_7","null","null","","<p style=""font-size: 48px;"">+</p>","3","Light_Matched","",""
"","","","","","picture","96217","image-keyboard-response","162","280713","0.0-6.0-3.31","65","3","2022-11-17 12:23:39","fd252370c17a9971d68c1d4354a03c2e","","Mozilla/5.0 (Macintosh; Intel Mac OS X 10_15_7) AppleWebKit/537.36 (KHTML, like Gecko) Chrome/106.0.0.0 Safari/537.36","Macintosh","Chrome","106.0.0.0","OS X","10_15_7","445","s","","wineglassS.jpg","3","Light_Matched","true",""
"","","","","","fixation","96217","html-keyboard-response","163","281718","0.0-6.0-0.32","65","3","2022-11-17 12:23:39","fd252370c17a9971d68c1d4354a03c2e","","Mozilla/5.0 (Macintosh; Intel Mac OS X 10_15_7) AppleWebKit/537.36 (KHTML, like Gecko) Chrome/106.0.0.0 Safari/537.36","Macintosh","Chrome","106.0.0.0","OS X","10_15_7","null","null","","<p style=""font-size: 48px;"">+</p>","3","Heavy_Matched","",""
"","","","","","sentence","96217","html-keyboard-response","164","283353","0.0-6.0-1.32","65","3","2022-11-17 12:23:39","fd252370c17a9971d68c1d4354a03c2e","","Mozilla/5.0 (Macintosh; Intel Mac OS X 10_15_7) AppleWebKit/537.36 (KHTML, like Gecko) Chrome/106.0.0.0 Safari/537.36","Macintosh","Chrome","106.0.0.0","OS X","10_15_7","1632"," ","","A bowling ball dropped and smashed a rice cake","3","Heavy_Matched","",""
"","","","","","fixation","96217","html-keyboard-response","165","283857","0.0-6.0-2.32","65","3","2022-11-17 12:23:39","fd252370c17a9971d68c1d4354a03c2e","","Mozilla/5.0 (Macintosh; Intel Mac OS X 10_15_7) AppleWebKit/537.36 (KHTML, like Gecko) Chrome/106.0.0.0 Safari/537.36","Macintosh","Chrome","106.0.0.0","OS X","10_15_7","null","null","","<p style=""font-size: 48px;"">+</p>","3","Heavy_Matched","",""
"","","","","","picture","96217","image-keyboard-response","166","284433","0.0-6.0-3.32","65","3","2022-11-17 12:23:39","fd252370c17a9971d68c1d4354a03c2e","","Mozilla/5.0 (Macintosh; Intel Mac OS X 10_15_7) AppleWebKit/537.36 (KHTML, like Gecko) Chrome/106.0.0.0 Safari/537.36","Macintosh","Chrome","106.0.0.0","OS X","10_15_7","573","s","","tortitaS.jpg","3","Heavy_Matched","true",""
"","","","","","fixation","96217","html-keyboard-response","167","285441","0.0-6.0-0.33","65","3","2022-11-17 12:23:39","fd252370c17a9971d68c1d4354a03c2e","","Mozilla/5.0 (Macintosh; Intel Mac OS X 10_15_7) AppleWebKit/537.36 (KHTML, like Gecko) Chrome/106.0.0.0 Safari/537.36","Macintosh","Chrome","106.0.0.0","OS X","10_15_7","null","null","","<p style=""font-size: 48px;"">+</p>","3","Filler","",""
"","","","","","sentence","96217","html-keyboard-response","168","300241","0.0-6.0-1.33","65","3","2022-11-17 12:23:39","fd252370c17a9971d68c1d4354a03c2e","","Mozilla/5.0 (Macintosh; Intel Mac OS X 10_15_7) AppleWebKit/537.36 (KHTML, like Gecko) Chrome/106.0.0.0 Safari/537.36","Macintosh","Chrome","106.0.0.0","OS X","10_15_7","14797"," ","","A woman is taking money out of a wallet","3","Filler","",""
"","","","","","fixation","96217","html-keyboard-response","169","300744","0.0-6.0-2.33","65","3","2022-11-17 12:23:39","fd252370c17a9971d68c1d4354a03c2e","","Mozilla/5.0 (Macintosh; Intel Mac OS X 10_15_7) AppleWebKit/537.36 (KHTML, like Gecko) Chrome/106.0.0.0 Safari/537.36","Macintosh","Chrome","106.0.0.0","OS X","10_15_7","null","null","","<p style=""font-size: 48px;"">+</p>","3","Filler","",""
"","","","","","picture","96217","image-keyboard-response","170","301441","0.0-6.0-3.33","65","3","2022-11-17 12:23:39","fd252370c17a9971d68c1d4354a03c2e","","Mozilla/5.0 (Macintosh; Intel Mac OS X 10_15_7) AppleWebKit/537.36 (KHTML, like Gecko) Chrome/106.0.0.0 Safari/537.36","Macintosh","Chrome","106.0.0.0","OS X","10_15_7","693","n","","coconut.jpg","3","Filler","true",""
"","","","","","fixation","96217","html-keyboard-response","171","302449","0.0-6.0-0.34","65","3","2022-11-17 12:23:39","fd252370c17a9971d68c1d4354a03c2e","","Mozilla/5.0 (Macintosh; Intel Mac OS X 10_15_7) AppleWebKit/537.36 (KHTML, like Gecko) Chrome/106.0.0.0 Safari/537.36","Macintosh","Chrome","106.0.0.0","OS X","10_15_7","null","null","","<p style=""font-size: 48px;"">+</p>","3","Filler","",""
"","","","","","sentence","96217","html-keyboard-response","172","303273","0.0-6.0-1.34","65","3","2022-11-17 12:23:39","fd252370c17a9971d68c1d4354a03c2e","","Mozilla/5.0 (Macintosh; Intel Mac OS X 10_15_7) AppleWebKit/537.36 (KHTML, like Gecko) Chrome/106.0.0.0 Safari/537.36","Macintosh","Chrome","106.0.0.0","OS X","10_15_7","821"," ","","A butterfly is sitting on a flower","3","Filler","",""
"","","","","","fixation","96217","html-keyboard-response","173","303777","0.0-6.0-2.34","65","3","2022-11-17 12:23:39","fd252370c17a9971d68c1d4354a03c2e","","Mozilla/5.0 (Macintosh; Intel Mac OS X 10_15_7) AppleWebKit/537.36 (KHTML, like Gecko) Chrome/106.0.0.0 Safari/537.36","Macintosh","Chrome","106.0.0.0","OS X","10_15_7","null","null","","<p style=""font-size: 48px;"">+</p>","3","Filler","",""
"","","","","","picture","96217","image-keyboard-response","174","306121","0.0-6.0-3.34","65","3","2022-11-17 12:23:39","fd252370c17a9971d68c1d4354a03c2e","","Mozilla/5.0 (Macintosh; Intel Mac OS X 10_15_7) AppleWebKit/537.36 (KHTML, like Gecko) Chrome/106.0.0.0 Safari/537.36","Macintosh","Chrome","106.0.0.0","OS X","10_15_7","2340","n","","soap.jpg","3","Filler","true",""
"","","","","","fixation","96217","html-keyboard-response","175","307126","0.0-6.0-0.35","65","3","2022-11-17 12:23:39","fd252370c17a9971d68c1d4354a03c2e","","Mozilla/5.0 (Macintosh; Intel Mac OS X 10_15_7) AppleWebKit/537.36 (KHTML, like Gecko) Chrome/106.0.0.0 Safari/537.36","Macintosh","Chrome","106.0.0.0","OS X","10_15_7","null","null","","<p style=""font-size: 48px;"">+</p>","3","Heavy_Contradictory","",""
"","","","","","sentence","96217","html-keyboard-response","176","307977","0.0-6.0-1.35","65","3","2022-11-17 12:23:39","fd252370c17a9971d68c1d4354a03c2e","","Mozilla/5.0 (Macintosh; Intel Mac OS X 10_15_7) AppleWebKit/537.36 (KHTML, like Gecko) Chrome/106.0.0.0 Safari/537.36","Macintosh","Chrome","106.0.0.0","OS X","10_15_7","847"," ","","A bowling ball dropped and touched a vase","3","Heavy_Contradictory","",""
"","","","","","fixation","96217","html-keyboard-response","177","308481","0.0-6.0-2.35","65","3","2022-11-17 12:23:39","fd252370c17a9971d68c1d4354a03c2e","","Mozilla/5.0 (Macintosh; Intel Mac OS X 10_15_7) AppleWebKit/537.36 (KHTML, like Gecko) Chrome/106.0.0.0 Safari/537.36","Macintosh","Chrome","106.0.0.0","OS X","10_15_7","null","null","","<p style=""font-size: 48px;"">+</p>","3","Heavy_Contradictory","",""
"","","","","","picture","96217","image-keyboard-response","178","309281","0.0-6.0-3.35","65","3","2022-11-17 12:23:39","fd252370c17a9971d68c1d4354a03c2e","","Mozilla/5.0 (Macintosh; Intel Mac OS X 10_15_7) AppleWebKit/537.36 (KHTML, like Gecko) Chrome/106.0.0.0 Safari/537.36","Macintosh","Chrome","106.0.0.0","OS X","10_15_7","797","s","","vaseS.jpg","3","Heavy_Contradictory","true",""
"","","","","","fixation","96217","html-keyboard-response","179","310289","0.0-6.0-0.36","65","3","2022-11-17 12:23:39","fd252370c17a9971d68c1d4354a03c2e","","Mozilla/5.0 (Macintosh; Intel Mac OS X 10_15_7) AppleWebKit/537.36 (KHTML, like Gecko) Chrome/106.0.0.0 Safari/537.36","Macintosh","Chrome","106.0.0.0","OS X","10_15_7","null","null","","<p style=""font-size: 48px;"">+</p>","3","Light_Contradictory","",""
"","","","","","sentence","96217","html-keyboard-response","180","311297","0.0-6.0-1.36","65","3","2022-11-17 12:23:39","fd252370c17a9971d68c1d4354a03c2e","","Mozilla/5.0 (Macintosh; Intel Mac OS X 10_15_7) AppleWebKit/537.36 (KHTML, like Gecko) Chrome/106.0.0.0 Safari/537.36","Macintosh","Chrome","106.0.0.0","OS X","10_15_7","1005"," ","","A balloon dropped and smashed glasses","3","Light_Contradictory","",""
"","","","","","fixation","96217","html-keyboard-response","181","311801","0.0-6.0-2.36","65","3","2022-11-17 12:23:39","fd252370c17a9971d68c1d4354a03c2e","","Mozilla/5.0 (Macintosh; Intel Mac OS X 10_15_7) AppleWebKit/537.36 (KHTML, like Gecko) Chrome/106.0.0.0 Safari/537.36","Macintosh","Chrome","106.0.0.0","OS X","10_15_7","null","null","","<p style=""font-size: 48px;"">+</p>","3","Light_Contradictory","",""
"","","","","","picture","96217","image-keyboard-response","182","312881","0.0-6.0-3.36","65","3","2022-11-17 12:23:39","fd252370c17a9971d68c1d4354a03c2e","","Mozilla/5.0 (Macintosh; Intel Mac OS X 10_15_7) AppleWebKit/537.36 (KHTML, like Gecko) Chrome/106.0.0.0 Safari/537.36","Macintosh","Chrome","106.0.0.0","OS X","10_15_7","1076","s","","glassesS.jpg","3","Light_Contradictory","true",""
"","","","","","fixation","96217","html-keyboard-response","183","313889","0.0-6.0-0.37","65","3","2022-11-17 12:23:39","fd252370c17a9971d68c1d4354a03c2e","","Mozilla/5.0 (Macintosh; Intel Mac OS X 10_15_7) AppleWebKit/537.36 (KHTML, like Gecko) Chrome/106.0.0.0 Safari/537.36","Macintosh","Chrome","106.0.0.0","OS X","10_15_7","null","null","","<p style=""font-size: 48px;"">+</p>","3","Filler","",""
"","","","","","sentence","96217","html-keyboard-response","184","314937","0.0-6.0-1.37","65","3","2022-11-17 12:23:39","fd252370c17a9971d68c1d4354a03c2e","","Mozilla/5.0 (Macintosh; Intel Mac OS X 10_15_7) AppleWebKit/537.36 (KHTML, like Gecko) Chrome/106.0.0.0 Safari/537.36","Macintosh","Chrome","106.0.0.0","OS X","10_15_7","1045"," ","","A cushion was placed on the magazine","3","Filler","",""
"","","","","","fixation","96217","html-keyboard-response","185","315441","0.0-6.0-2.37","65","3","2022-11-17 12:23:39","fd252370c17a9971d68c1d4354a03c2e","","Mozilla/5.0 (Macintosh; Intel Mac OS X 10_15_7) AppleWebKit/537.36 (KHTML, like Gecko) Chrome/106.0.0.0 Safari/537.36","Macintosh","Chrome","106.0.0.0","OS X","10_15_7","null","null","","<p style=""font-size: 48px;"">+</p>","3","Filler","",""
"","","","","","picture","96217","image-keyboard-response","186","316297","0.0-6.0-3.37","65","3","2022-11-17 12:23:39","fd252370c17a9971d68c1d4354a03c2e","","Mozilla/5.0 (Macintosh; Intel Mac OS X 10_15_7) AppleWebKit/537.36 (KHTML, like Gecko) Chrome/106.0.0.0 Safari/537.36","Macintosh","Chrome","106.0.0.0","OS X","10_15_7","853","n","","box.jpg","3","Filler","true",""
"","","","","","fixation","96217","html-keyboard-response","187","317302","0.0-6.0-0.38","65","3","2022-11-17 12:23:39","fd252370c17a9971d68c1d4354a03c2e","","Mozilla/5.0 (Macintosh; Intel Mac OS X 10_15_7) AppleWebKit/537.36 (KHTML, like Gecko) Chrome/106.0.0.0 Safari/537.36","Macintosh","Chrome","106.0.0.0","OS X","10_15_7","null","null","","<p style=""font-size: 48px;"">+</p>","3","Filler","",""
"","","","","","sentence","96217","html-keyboard-response","188","318097","0.0-6.0-1.38","65","3","2022-11-17 12:23:39","fd252370c17a9971d68c1d4354a03c2e","","Mozilla/5.0 (Macintosh; Intel Mac OS X 10_15_7) AppleWebKit/537.36 (KHTML, like Gecko) Chrome/106.0.0.0 Safari/537.36","Macintosh","Chrome","106.0.0.0","OS X","10_15_7","792"," ","","A photographer is taking a photo of a lion","3","Filler","",""
"","","","","","fixation","96217","html-keyboard-response","189","318600","0.0-6.0-2.38","65","3","2022-11-17 12:23:39","fd252370c17a9971d68c1d4354a03c2e","","Mozilla/5.0 (Macintosh; Intel Mac OS X 10_15_7) AppleWebKit/537.36 (KHTML, like Gecko) Chrome/106.0.0.0 Safari/537.36","Macintosh","Chrome","106.0.0.0","OS X","10_15_7","null","null","","<p style=""font-size: 48px;"">+</p>","3","Filler","",""
"","","","","","picture","96217","image-keyboard-response","190","319289","0.0-6.0-3.38","65","3","2022-11-17 12:23:39","fd252370c17a9971d68c1d4354a03c2e","","Mozilla/5.0 (Macintosh; Intel Mac OS X 10_15_7) AppleWebKit/537.36 (KHTML, like Gecko) Chrome/106.0.0.0 Safari/537.36","Macintosh","Chrome","106.0.0.0","OS X","10_15_7","685","s","","lion.jpg","3","Filler","true",""
"","","","","","fixation","96217","html-keyboard-response","191","320294","0.0-6.0-0.39","65","3","2022-11-17 12:23:39","fd252370c17a9971d68c1d4354a03c2e","","Mozilla/5.0 (Macintosh; Intel Mac OS X 10_15_7) AppleWebKit/537.36 (KHTML, like Gecko) Chrome/106.0.0.0 Safari/537.36","Macintosh","Chrome","106.0.0.0","OS X","10_15_7","null","null","","<p style=""font-size: 48px;"">+</p>","3","Heavy_Matched","",""
"","","","","","sentence","96217","html-keyboard-response","192","321193","0.0-6.0-1.39","65","3","2022-11-17 12:23:39","fd252370c17a9971d68c1d4354a03c2e","","Mozilla/5.0 (Macintosh; Intel Mac OS X 10_15_7) AppleWebKit/537.36 (KHTML, like Gecko) Chrome/106.0.0.0 Safari/537.36","Macintosh","Chrome","106.0.0.0","OS X","10_15_7","896"," ","","A bowling ball dropped and smashed an iPhone","3","Heavy_Matched","",""
"","","","","","fixation","96217","html-keyboard-response","193","321697","0.0-6.0-2.39","65","3","2022-11-17 12:23:39","fd252370c17a9971d68c1d4354a03c2e","","Mozilla/5.0 (Macintosh; Intel Mac OS X 10_15_7) AppleWebKit/537.36 (KHTML, like Gecko) Chrome/106.0.0.0 Safari/537.36","Macintosh","Chrome","106.0.0.0","OS X","10_15_7","null","null","","<p style=""font-size: 48px;"">+</p>","3","Heavy_Matched","",""
"","","","","","picture","96217","image-keyboard-response","194","322128","0.0-6.0-3.39","65","3","2022-11-17 12:23:39","fd252370c17a9971d68c1d4354a03c2e","","Mozilla/5.0 (Macintosh; Intel Mac OS X 10_15_7) AppleWebKit/537.36 (KHTML, like Gecko) Chrome/106.0.0.0 Safari/537.36","Macintosh","Chrome","106.0.0.0","OS X","10_15_7","428","s","","iphoneS.png","3","Heavy_Matched","true",""
"","","","","","fixation","96217","html-keyboard-response","195","323132","0.0-6.0-0.40","65","3","2022-11-17 12:23:39","fd252370c17a9971d68c1d4354a03c2e","","Mozilla/5.0 (Macintosh; Intel Mac OS X 10_15_7) AppleWebKit/537.36 (KHTML, like Gecko) Chrome/106.0.0.0 Safari/537.36","Macintosh","Chrome","106.0.0.0","OS X","10_15_7","null","null","","<p style=""font-size: 48px;"">+</p>","3","Filler","",""
"","","","","","sentence","96217","html-keyboard-response","196","324505","0.0-6.0-1.40","65","3","2022-11-17 12:23:39","fd252370c17a9971d68c1d4354a03c2e","","Mozilla/5.0 (Macintosh; Intel Mac OS X 10_15_7) AppleWebKit/537.36 (KHTML, like Gecko) Chrome/106.0.0.0 Safari/537.36","Macintosh","Chrome","106.0.0.0","OS X","10_15_7","1370"," ","","A needle was placed on the mouse pad","3","Filler","",""
"","","","","","fixation","96217","html-keyboard-response","197","325009","0.0-6.0-2.40","65","3","2022-11-17 12:23:39","fd252370c17a9971d68c1d4354a03c2e","","Mozilla/5.0 (Macintosh; Intel Mac OS X 10_15_7) AppleWebKit/537.36 (KHTML, like Gecko) Chrome/106.0.0.0 Safari/537.36","Macintosh","Chrome","106.0.0.0","OS X","10_15_7","null","null","","<p style=""font-size: 48px;"">+</p>","3","Filler","",""
"","","","","","picture","96217","image-keyboard-response","198","325833","0.0-6.0-3.40","65","3","2022-11-17 12:23:39","fd252370c17a9971d68c1d4354a03c2e","","Mozilla/5.0 (Macintosh; Intel Mac OS X 10_15_7) AppleWebKit/537.36 (KHTML, like Gecko) Chrome/106.0.0.0 Safari/537.36","Macintosh","Chrome","106.0.0.0","OS X","10_15_7","820","n","","chocolate.jpg","3","Filler","true",""
"","","","","","fixation","96217","html-keyboard-response","199","326838","0.0-6.0-0.41","65","3","2022-11-17 12:23:39","fd252370c17a9971d68c1d4354a03c2e","","Mozilla/5.0 (Macintosh; Intel Mac OS X 10_15_7) AppleWebKit/537.36 (KHTML, like Gecko) Chrome/106.0.0.0 Safari/537.36","Macintosh","Chrome","106.0.0.0","OS X","10_15_7","null","null","","<p style=""font-size: 48px;"">+</p>","3","Light_Contradictory","",""
"","","","","","sentence","96217","html-keyboard-response","200","327769","0.0-6.0-1.41","65","3","2022-11-17 12:23:39","fd252370c17a9971d68c1d4354a03c2e","","Mozilla/5.0 (Macintosh; Intel Mac OS X 10_15_7) AppleWebKit/537.36 (KHTML, like Gecko) Chrome/106.0.0.0 Safari/537.36","Macintosh","Chrome","106.0.0.0","OS X","10_15_7","927"," ","","A balloon dropped and smashed a blackberry","3","Light_Contradictory","",""
"","","","","","fixation","96217","html-keyboard-response","201","328273","0.0-6.0-2.41","65","3","2022-11-17 12:23:39","fd252370c17a9971d68c1d4354a03c2e","","Mozilla/5.0 (Macintosh; Intel Mac OS X 10_15_7) AppleWebKit/537.36 (KHTML, like Gecko) Chrome/106.0.0.0 Safari/537.36","Macintosh","Chrome","106.0.0.0","OS X","10_15_7","null","null","","<p style=""font-size: 48px;"">+</p>","3","Light_Contradictory","",""
"","","","","","picture","96217","image-keyboard-response","202","328937","0.0-6.0-3.41","65","3","2022-11-17 12:23:39","fd252370c17a9971d68c1d4354a03c2e","","Mozilla/5.0 (Macintosh; Intel Mac OS X 10_15_7) AppleWebKit/537.36 (KHTML, like Gecko) Chrome/106.0.0.0 Safari/537.36","Macintosh","Chrome","106.0.0.0","OS X","10_15_7","660","s","","blackberryS.jpg","3","Light_Contradictory","true",""
"","","","","","fixation","96217","html-keyboard-response","203","329942","0.0-6.0-0.42","65","3","2022-11-17 12:23:39","fd252370c17a9971d68c1d4354a03c2e","","Mozilla/5.0 (Macintosh; Intel Mac OS X 10_15_7) AppleWebKit/537.36 (KHTML, like Gecko) Chrome/106.0.0.0 Safari/537.36","Macintosh","Chrome","106.0.0.0","OS X","10_15_7","null","null","","<p style=""font-size: 48px;"">+</p>","3","Filler","",""
"","","","","","sentence","96217","html-keyboard-response","204","330577","0.0-6.0-1.42","65","3","2022-11-17 12:23:39","fd252370c17a9971d68c1d4354a03c2e","","Mozilla/5.0 (Macintosh; Intel Mac OS X 10_15_7) AppleWebKit/537.36 (KHTML, like Gecko) Chrome/106.0.0.0 Safari/537.36","Macintosh","Chrome","106.0.0.0","OS X","10_15_7","632"," ","","A man is shaving his beard","3","Filler","",""
"","","","","","fixation","96217","html-keyboard-response","205","331081","0.0-6.0-2.42","65","3","2022-11-17 12:23:39","fd252370c17a9971d68c1d4354a03c2e","","Mozilla/5.0 (Macintosh; Intel Mac OS X 10_15_7) AppleWebKit/537.36 (KHTML, like Gecko) Chrome/106.0.0.0 Safari/537.36","Macintosh","Chrome","106.0.0.0","OS X","10_15_7","null","null","","<p style=""font-size: 48px;"">+</p>","3","Filler","",""
"","","","","","picture","96217","image-keyboard-response","206","331601","0.0-6.0-3.42","65","3","2022-11-17 12:23:39","fd252370c17a9971d68c1d4354a03c2e","","Mozilla/5.0 (Macintosh; Intel Mac OS X 10_15_7) AppleWebKit/537.36 (KHTML, like Gecko) Chrome/106.0.0.0 Safari/537.36","Macintosh","Chrome","106.0.0.0","OS X","10_15_7","516","n","","clock.jpg","3","Filler","true",""
"","","","","","fixation","96217","html-keyboard-response","207","332609","0.0-6.0-0.43","65","3","2022-11-17 12:23:39","fd252370c17a9971d68c1d4354a03c2e","","Mozilla/5.0 (Macintosh; Intel Mac OS X 10_15_7) AppleWebKit/537.36 (KHTML, like Gecko) Chrome/106.0.0.0 Safari/537.36","Macintosh","Chrome","106.0.0.0","OS X","10_15_7","null","null","","<p style=""font-size: 48px;"">+</p>","3","Filler","",""
"","","","","","sentence","96217","html-keyboard-response","208","333129","0.0-6.0-1.43","65","3","2022-11-17 12:23:39","fd252370c17a9971d68c1d4354a03c2e","","Mozilla/5.0 (Macintosh; Intel Mac OS X 10_15_7) AppleWebKit/537.36 (KHTML, like Gecko) Chrome/106.0.0.0 Safari/537.36","Macintosh","Chrome","106.0.0.0","OS X","10_15_7","517"," ","","A remote was placed on the rug","3","Filler","",""
"","","","","","fixation","96217","html-keyboard-response","209","333633","0.0-6.0-2.43","65","3","2022-11-17 12:23:39","fd252370c17a9971d68c1d4354a03c2e","","Mozilla/5.0 (Macintosh; Intel Mac OS X 10_15_7) AppleWebKit/537.36 (KHTML, like Gecko) Chrome/106.0.0.0 Safari/537.36","Macintosh","Chrome","106.0.0.0","OS X","10_15_7","null","null","","<p style=""font-size: 48px;"">+</p>","3","Filler","",""
"","","","","","picture","96217","image-keyboard-response","210","334457","0.0-6.0-3.43","65","3","2022-11-17 12:23:39","fd252370c17a9971d68c1d4354a03c2e","","Mozilla/5.0 (Macintosh; Intel Mac OS X 10_15_7) AppleWebKit/537.36 (KHTML, like Gecko) Chrome/106.0.0.0 Safari/537.36","Macintosh","Chrome","106.0.0.0","OS X","10_15_7","821","n","","CD.jpg","3","Filler","true",""
"","","","","","fixation","96217","html-keyboard-response","211","335462","0.0-6.0-0.44","65","3","2022-11-17 12:23:39","fd252370c17a9971d68c1d4354a03c2e","","Mozilla/5.0 (Macintosh; Intel Mac OS X 10_15_7) AppleWebKit/537.36 (KHTML, like Gecko) Chrome/106.0.0.0 Safari/537.36","Macintosh","Chrome","106.0.0.0","OS X","10_15_7","null","null","","<p style=""font-size: 48px;"">+</p>","3","Filler","",""
"","","","","","sentence","96217","html-keyboard-response","212","336721","0.0-6.0-1.44","65","3","2022-11-17 12:23:39","fd252370c17a9971d68c1d4354a03c2e","","Mozilla/5.0 (Macintosh; Intel Mac OS X 10_15_7) AppleWebKit/537.36 (KHTML, like Gecko) Chrome/106.0.0.0 Safari/537.36","Macintosh","Chrome","106.0.0.0","OS X","10_15_7","1256"," ","","A police officer is talking on the phone","3","Filler","",""
"","","","","","fixation","96217","html-keyboard-response","213","337225","0.0-6.0-2.44","65","3","2022-11-17 12:23:39","fd252370c17a9971d68c1d4354a03c2e","","Mozilla/5.0 (Macintosh; Intel Mac OS X 10_15_7) AppleWebKit/537.36 (KHTML, like Gecko) Chrome/106.0.0.0 Safari/537.36","Macintosh","Chrome","106.0.0.0","OS X","10_15_7","null","null","","<p style=""font-size: 48px;"">+</p>","3","Filler","",""
"","","","","","picture","96217","image-keyboard-response","214","337777","0.0-6.0-3.44","65","3","2022-11-17 12:23:39","fd252370c17a9971d68c1d4354a03c2e","","Mozilla/5.0 (Macintosh; Intel Mac OS X 10_15_7) AppleWebKit/537.36 (KHTML, like Gecko) Chrome/106.0.0.0 Safari/537.36","Macintosh","Chrome","106.0.0.0","OS X","10_15_7","548","n","","tissuebox.jpg","3","Filler","true",""
"","","","","","fixation","96217","html-keyboard-response","215","338785","0.0-6.0-0.45","65","3","2022-11-17 12:23:39","fd252370c17a9971d68c1d4354a03c2e","","Mozilla/5.0 (Macintosh; Intel Mac OS X 10_15_7) AppleWebKit/537.36 (KHTML, like Gecko) Chrome/106.0.0.0 Safari/537.36","Macintosh","Chrome","106.0.0.0","OS X","10_15_7","null","null","","<p style=""font-size: 48px;"">+</p>","3","Filler","",""
"","","","","","sentence","96217","html-keyboard-response","216","339857","0.0-6.0-1.45","65","3","2022-11-17 12:23:39","fd252370c17a9971d68c1d4354a03c2e","","Mozilla/5.0 (Macintosh; Intel Mac OS X 10_15_7) AppleWebKit/537.36 (KHTML, like Gecko) Chrome/106.0.0.0 Safari/537.36","Macintosh","Chrome","106.0.0.0","OS X","10_15_7","1069"," ","","A dentist is drinking a can of cola","3","Filler","",""
"","","","","","fixation","96217","html-keyboard-response","217","340361","0.0-6.0-2.45","65","3","2022-11-17 12:23:39","fd252370c17a9971d68c1d4354a03c2e","","Mozilla/5.0 (Macintosh; Intel Mac OS X 10_15_7) AppleWebKit/537.36 (KHTML, like Gecko) Chrome/106.0.0.0 Safari/537.36","Macintosh","Chrome","106.0.0.0","OS X","10_15_7","null","null","","<p style=""font-size: 48px;"">+</p>","3","Filler","",""
"","","","","","picture","96217","image-keyboard-response","218","340865","0.0-6.0-3.45","65","3","2022-11-17 12:23:39","fd252370c17a9971d68c1d4354a03c2e","","Mozilla/5.0 (Macintosh; Intel Mac OS X 10_15_7) AppleWebKit/537.36 (KHTML, like Gecko) Chrome/106.0.0.0 Safari/537.36","Macintosh","Chrome","106.0.0.0","OS X","10_15_7","500","n","","doll.jpg","3","Filler","true",""
"","","","","","fixation","96217","html-keyboard-response","219","341873","0.0-6.0-0.46","65","3","2022-11-17 12:23:39","fd252370c17a9971d68c1d4354a03c2e","","Mozilla/5.0 (Macintosh; Intel Mac OS X 10_15_7) AppleWebKit/537.36 (KHTML, like Gecko) Chrome/106.0.0.0 Safari/537.36","Macintosh","Chrome","106.0.0.0","OS X","10_15_7","null","null","","<p style=""font-size: 48px;"">+</p>","3","Filler","",""
"","","","","","sentence","96217","html-keyboard-response","220","342689","0.0-6.0-1.46","65","3","2022-11-17 12:23:39","fd252370c17a9971d68c1d4354a03c2e","","Mozilla/5.0 (Macintosh; Intel Mac OS X 10_15_7) AppleWebKit/537.36 (KHTML, like Gecko) Chrome/106.0.0.0 Safari/537.36","Macintosh","Chrome","106.0.0.0","OS X","10_15_7","813"," ","","A cook is taking a knife","3","Filler","",""
"","","","","","fixation","96217","html-keyboard-response","221","343192","0.0-6.0-2.46","65","3","2022-11-17 12:23:39","fd252370c17a9971d68c1d4354a03c2e","","Mozilla/5.0 (Macintosh; Intel Mac OS X 10_15_7) AppleWebKit/537.36 (KHTML, like Gecko) Chrome/106.0.0.0 Safari/537.36","Macintosh","Chrome","106.0.0.0","OS X","10_15_7","null","null","","<p style=""font-size: 48px;"">+</p>","3","Filler","",""
"","","","","","picture","96217","image-keyboard-response","222","343969","0.0-6.0-3.46","65","3","2022-11-17 12:23:39","fd252370c17a9971d68c1d4354a03c2e","","Mozilla/5.0 (Macintosh; Intel Mac OS X 10_15_7) AppleWebKit/537.36 (KHTML, like Gecko) Chrome/106.0.0.0 Safari/537.36","Macintosh","Chrome","106.0.0.0","OS X","10_15_7","773","s","","knife.jpg","3","Filler","true",""
"","","","","","fixation","96217","html-keyboard-response","223","344977","0.0-6.0-0.47","65","3","2022-11-17 12:23:39","fd252370c17a9971d68c1d4354a03c2e","","Mozilla/5.0 (Macintosh; Intel Mac OS X 10_15_7) AppleWebKit/537.36 (KHTML, like Gecko) Chrome/106.0.0.0 Safari/537.36","Macintosh","Chrome","106.0.0.0","OS X","10_15_7","null","null","","<p style=""font-size: 48px;"">+</p>","3","Filler","",""
"","","","","","sentence","96217","html-keyboard-response","224","345825","0.0-6.0-1.47","65","3","2022-11-17 12:23:39","fd252370c17a9971d68c1d4354a03c2e","","Mozilla/5.0 (Macintosh; Intel Mac OS X 10_15_7) AppleWebKit/537.36 (KHTML, like Gecko) Chrome/106.0.0.0 Safari/537.36","Macintosh","Chrome","106.0.0.0","OS X","10_15_7","845"," ","","A ring was placed on the newspaper","3","Filler","",""
"","","","","","fixation","96217","html-keyboard-response","225","346329","0.0-6.0-2.47","65","3","2022-11-17 12:23:39","fd252370c17a9971d68c1d4354a03c2e","","Mozilla/5.0 (Macintosh; Intel Mac OS X 10_15_7) AppleWebKit/537.36 (KHTML, like Gecko) Chrome/106.0.0.0 Safari/537.36","Macintosh","Chrome","106.0.0.0","OS X","10_15_7","null","null","","<p style=""font-size: 48px;"">+</p>","3","Filler","",""
"","","","","","picture","96217","image-keyboard-response","226","346840","0.0-6.0-3.47","65","3","2022-11-17 12:23:39","fd252370c17a9971d68c1d4354a03c2e","","Mozilla/5.0 (Macintosh; Intel Mac OS X 10_15_7) AppleWebKit/537.36 (KHTML, like Gecko) Chrome/106.0.0.0 Safari/537.36","Macintosh","Chrome","106.0.0.0","OS X","10_15_7","508","n","","cat.jpg","3","Filler","true",""
"","","","","","fixation","96217","html-keyboard-response","227","347846","0.0-6.0-0.48","65","3","2022-11-17 12:23:39","fd252370c17a9971d68c1d4354a03c2e","","Mozilla/5.0 (Macintosh; Intel Mac OS X 10_15_7) AppleWebKit/537.36 (KHTML, like Gecko) Chrome/106.0.0.0 Safari/537.36","Macintosh","Chrome","106.0.0.0","OS X","10_15_7","null","null","","<p style=""font-size: 48px;"">+</p>","3","Filler","",""
"","","","","","sentence","96217","html-keyboard-response","228","348809","0.0-6.0-1.48","65","3","2022-11-17 12:23:39","fd252370c17a9971d68c1d4354a03c2e","","Mozilla/5.0 (Macintosh; Intel Mac OS X 10_15_7) AppleWebKit/537.36 (KHTML, like Gecko) Chrome/106.0.0.0 Safari/537.36","Macintosh","Chrome","106.0.0.0","OS X","10_15_7","960"," ","","An astronaut is putting on a space suit","3","Filler","",""
"","","","","","fixation","96217","html-keyboard-response","229","349313","0.0-6.0-2.48","65","3","2022-11-17 12:23:39","fd252370c17a9971d68c1d4354a03c2e","","Mozilla/5.0 (Macintosh; Intel Mac OS X 10_15_7) AppleWebKit/537.36 (KHTML, like Gecko) Chrome/106.0.0.0 Safari/537.36","Macintosh","Chrome","106.0.0.0","OS X","10_15_7","null","null","","<p style=""font-size: 48px;"">+</p>","3","Filler","",""
"","","","","","picture","96217","image-keyboard-response","230","350001","0.0-6.0-3.48","65","3","2022-11-17 12:23:39","fd252370c17a9971d68c1d4354a03c2e","","Mozilla/5.0 (Macintosh; Intel Mac OS X 10_15_7) AppleWebKit/537.36 (KHTML, like Gecko) Chrome/106.0.0.0 Safari/537.36","Macintosh","Chrome","106.0.0.0","OS X","10_15_7","685","s","","spacesuit.jpg","3","Filler","true",""
"","","","","","fixation","96217","html-keyboard-response","231","351008","0.0-6.0-0.49","65","3","2022-11-17 12:23:39","fd252370c17a9971d68c1d4354a03c2e","","Mozilla/5.0 (Macintosh; Intel Mac OS X 10_15_7) AppleWebKit/537.36 (KHTML, like Gecko) Chrome/106.0.0.0 Safari/537.36","Macintosh","Chrome","106.0.0.0","OS X","10_15_7","null","null","","<p style=""font-size: 48px;"">+</p>","3","Filler","",""
"","","","","","sentence","96217","html-keyboard-response","232","351793","0.0-6.0-1.49","65","3","2022-11-17 12:23:39","fd252370c17a9971d68c1d4354a03c2e","","Mozilla/5.0 (Macintosh; Intel Mac OS X 10_15_7) AppleWebKit/537.36 (KHTML, like Gecko) Chrome/106.0.0.0 Safari/537.36","Macintosh","Chrome","106.0.0.0","OS X","10_15_7","781"," ","","A keyboard was placed on the bed","3","Filler","",""
"","","","","","fixation","96217","html-keyboard-response","233","352296","0.0-6.0-2.49","65","3","2022-11-17 12:23:39","fd252370c17a9971d68c1d4354a03c2e","","Mozilla/5.0 (Macintosh; Intel Mac OS X 10_15_7) AppleWebKit/537.36 (KHTML, like Gecko) Chrome/106.0.0.0 Safari/537.36","Macintosh","Chrome","106.0.0.0","OS X","10_15_7","null","null","","<p style=""font-size: 48px;"">+</p>","3","Filler","",""
"","","","","","picture","96217","image-keyboard-response","234","352833","0.0-6.0-3.49","65","3","2022-11-17 12:23:39","fd252370c17a9971d68c1d4354a03c2e","","Mozilla/5.0 (Macintosh; Intel Mac OS X 10_15_7) AppleWebKit/537.36 (KHTML, like Gecko) Chrome/106.0.0.0 Safari/537.36","Macintosh","Chrome","106.0.0.0","OS X","10_15_7","533","n","","bottlecap.jpg","3","Filler","true",""
"","","","","","fixation","96217","html-keyboard-response","235","353841","0.0-6.0-0.50","65","3","2022-11-17 12:23:39","fd252370c17a9971d68c1d4354a03c2e","","Mozilla/5.0 (Macintosh; Intel Mac OS X 10_15_7) AppleWebKit/537.36 (KHTML, like Gecko) Chrome/106.0.0.0 Safari/537.36","Macintosh","Chrome","106.0.0.0","OS X","10_15_7","null","null","","<p style=""font-size: 48px;"">+</p>","3","Filler","",""
"","","","","","sentence","96217","html-keyboard-response","236","354473","0.0-6.0-1.50","65","3","2022-11-17 12:23:39","fd252370c17a9971d68c1d4354a03c2e","","Mozilla/5.0 (Macintosh; Intel Mac OS X 10_15_7) AppleWebKit/537.36 (KHTML, like Gecko) Chrome/106.0.0.0 Safari/537.36","Macintosh","Chrome","106.0.0.0","OS X","10_15_7","628"," ","","An actress is taking a microphone","3","Filler","",""
"","","","","","fixation","96217","html-keyboard-response","237","354976","0.0-6.0-2.50","65","3","2022-11-17 12:23:39","fd252370c17a9971d68c1d4354a03c2e","","Mozilla/5.0 (Macintosh; Intel Mac OS X 10_15_7) AppleWebKit/537.36 (KHTML, like Gecko) Chrome/106.0.0.0 Safari/537.36","Macintosh","Chrome","106.0.0.0","OS X","10_15_7","null","null","","<p style=""font-size: 48px;"">+</p>","3","Filler","",""
"","","","","","picture","96217","image-keyboard-response","238","355608","0.0-6.0-3.50","65","3","2022-11-17 12:23:39","fd252370c17a9971d68c1d4354a03c2e","","Mozilla/5.0 (Macintosh; Intel Mac OS X 10_15_7) AppleWebKit/537.36 (KHTML, like Gecko) Chrome/106.0.0.0 Safari/537.36","Macintosh","Chrome","106.0.0.0","OS X","10_15_7","628","n","","pants.jpg","3","Filler","true",""
"","","","","","fixation","96217","html-keyboard-response","239","356614","0.0-6.0-0.51","65","3","2022-11-17 12:23:39","fd252370c17a9971d68c1d4354a03c2e","","Mozilla/5.0 (Macintosh; Intel Mac OS X 10_15_7) AppleWebKit/537.36 (KHTML, like Gecko) Chrome/106.0.0.0 Safari/537.36","Macintosh","Chrome","106.0.0.0","OS X","10_15_7","null","null","","<p style=""font-size: 48px;"">+</p>","3","Filler","",""
"","","","","","sentence","96217","html-keyboard-response","240","357313","0.0-6.0-1.51","65","3","2022-11-17 12:23:39","fd252370c17a9971d68c1d4354a03c2e","","Mozilla/5.0 (Macintosh; Intel Mac OS X 10_15_7) AppleWebKit/537.36 (KHTML, like Gecko) Chrome/106.0.0.0 Safari/537.36","Macintosh","Chrome","106.0.0.0","OS X","10_15_7","694"," ","","A thief is stealing a wallet","3","Filler","",""
"","","","","","fixation","96217","html-keyboard-response","241","357817","0.0-6.0-2.51","65","3","2022-11-17 12:23:39","fd252370c17a9971d68c1d4354a03c2e","","Mozilla/5.0 (Macintosh; Intel Mac OS X 10_15_7) AppleWebKit/537.36 (KHTML, like Gecko) Chrome/106.0.0.0 Safari/537.36","Macintosh","Chrome","106.0.0.0","OS X","10_15_7","null","null","","<p style=""font-size: 48px;"">+</p>","3","Filler","",""
"","","","","","picture","96217","image-keyboard-response","242","358257","0.0-6.0-3.51","65","3","2022-11-17 12:23:39","fd252370c17a9971d68c1d4354a03c2e","","Mozilla/5.0 (Macintosh; Intel Mac OS X 10_15_7) AppleWebKit/537.36 (KHTML, like Gecko) Chrome/106.0.0.0 Safari/537.36","Macintosh","Chrome","106.0.0.0","OS X","10_15_7","436","n","","teddybear.jpg","3","Filler","true",""
"","","","","","fixation","96217","html-keyboard-response","243","359265","0.0-6.0-0.52","65","3","2022-11-17 12:23:39","fd252370c17a9971d68c1d4354a03c2e","","Mozilla/5.0 (Macintosh; Intel Mac OS X 10_15_7) AppleWebKit/537.36 (KHTML, like Gecko) Chrome/106.0.0.0 Safari/537.36","Macintosh","Chrome","106.0.0.0","OS X","10_15_7","null","null","","<p style=""font-size: 48px;"">+</p>","3","Heavy_Matched","",""
