"success","timeout","failed_images","failed_audio","failed_video","typeoftrial","subject","trial_type","trial_index","time_elapsed","internal_node_id","run_id","condition","recorded_at","source_code_version","ip","user_agent","device","browser","browser_version","platform","platform_version","rt","response","Experiment","stimulus","list_number","trialcondition","correct","question_order"
"true","false","[]","[]","[]","preload","16640","preload","0","10005","0.0-0.0","94","2","2022-11-17 12:28:18","fd252370c17a9971d68c1d4354a03c2e","","Mozilla/5.0 (Macintosh; Intel Mac OS X 10_15_7) AppleWebKit/537.36 (KHTML, like Gecko) Chrome/107.0.0.0 Safari/537.36","Macintosh","Chrome","107.0.0.0","OS X","10_15_7","","","","","","","",""
"","","","","","ID","16640","survey-text","1","26380","0.0-1.0","94","2","2022-11-17 12:28:18","fd252370c17a9971d68c1d4354a03c2e","","Mozilla/5.0 (Macintosh; Intel Mac OS X 10_15_7) AppleWebKit/537.36 (KHTML, like Gecko) Chrome/107.0.0.0 Safari/537.36","Macintosh","Chrome","107.0.0.0","OS X","10_15_7","16361","{""ID"":""60721c2da01b3a616edba9a7""}","","","","","",""
"","","","","","instructions","16640","html-button-response","2","27756","0.0-2.0","94","2","2022-11-17 12:28:18","fd252370c17a9971d68c1d4354a03c2e","","Mozilla/5.0 (Macintosh; Intel Mac OS X 10_15_7) AppleWebKit/537.36 (KHTML, like Gecko) Chrome/107.0.0.0 Safari/537.36","Macintosh","Chrome","107.0.0.0","OS X","10_15_7","1374","0","","
                    <p style=""font-size:20px;""> Welcome to the experiment! </p>
                    <p style=""font-size:20px;""> In this experiment, you will be asked to make judgments about the content of different sentences.</p>
                    <p style=""font-size:20px;""> On each trial, you will read a sentence, and will be shown a picture immediately following the sentence. </p>
                    <p style=""font-size:20px;""> Your task is to decide whether the object displayed in the picture was mentioned in the sentence or not </p>
                    <p style=""font-size:20px;""> and respond as quickly as possible by pressing <strong>S</strong> for yes or <strong>N</strong> for no. </p>
                    <p style=""font-size:20px;""> You will now do a practice session with feedback and instructions. </p>
                    <p style=""font-size:20px;""> Click the button below to continue.</p>
                    ","","","",""
"","","","","","instructions","16640","html-button-response","3","60482","0.0-3.0","94","2","2022-11-17 12:28:18","fd252370c17a9971d68c1d4354a03c2e","","Mozilla/5.0 (Macintosh; Intel Mac OS X 10_15_7) AppleWebKit/537.36 (KHTML, like Gecko) Chrome/107.0.0.0 Safari/537.36","Macintosh","Chrome","107.0.0.0","OS X","10_15_7","32726","0","","
                    <p style=""font-size:20px;""> You are about to begin the practice test. </p>
                    <p style=""font-size:20px;""> On each trial, a sentence will appear on the screen. You should press SPACEBAR when you have read and understood the sentence.</p>
                    <p style=""font-size:20px;""> After you press SPACEBAR, a picture will appear on the screen. </p>
                    <p style=""font-size:20px;""> You need to indicate whether or not the pictured object was mentioned in the sentence. </p>
                    <p style=""font-size:20px;""> If the object WAS mentioned in the preceding sentence, you should press <strong>S</strong> </p>
                    <p style=""font-size:20px;""> If the object was NOT mentioned in the preceding sentence, you should press <strong>N</strong>. </p>
                    <p style=""font-size:20px;""> Click the button below to continue to the practice session.</p>
                    ","","","",""
"","","","","","fixation","16640","html-keyboard-response","4","61489","0.0-4.0-0.0","94","2","2022-11-17 12:28:18","fd252370c17a9971d68c1d4354a03c2e","","Mozilla/5.0 (Macintosh; Intel Mac OS X 10_15_7) AppleWebKit/537.36 (KHTML, like Gecko) Chrome/107.0.0.0 Safari/537.36","Macintosh","Chrome","107.0.0.0","OS X","10_15_7","null","null","","<p style=""font-size: 48px;"">+</p>","practice","practice_n","",""
"","","","","","sentence","16640","html-keyboard-response","5","73646","0.0-4.0-1.0","94","2","2022-11-17 12:28:18","fd252370c17a9971d68c1d4354a03c2e","","Mozilla/5.0 (Macintosh; Intel Mac OS X 10_15_7) AppleWebKit/537.36 (KHTML, like Gecko) Chrome/107.0.0.0 Safari/537.36","Macintosh","Chrome","107.0.0.0","OS X","10_15_7","12156"," ","","A bowling ball dropped and touched a bottle","practice","practice_n","",""
"","","","","","fixation","16640","html-keyboard-response","6","74153","0.0-4.0-2.0","94","2","2022-11-17 12:28:18","fd252370c17a9971d68c1d4354a03c2e","","Mozilla/5.0 (Macintosh; Intel Mac OS X 10_15_7) AppleWebKit/537.36 (KHTML, like Gecko) Chrome/107.0.0.0 Safari/537.36","Macintosh","Chrome","107.0.0.0","OS X","10_15_7","null","null","","<p style=""font-size: 48px;"">+</p>","practice","practice_n","",""
"","","","","","picture","16640","image-keyboard-response","7","76892","0.0-4.0-3.0","94","2","2022-11-17 12:28:18","fd252370c17a9971d68c1d4354a03c2e","","Mozilla/5.0 (Macintosh; Intel Mac OS X 10_15_7) AppleWebKit/537.36 (KHTML, like Gecko) Chrome/107.0.0.0 Safari/537.36","Macintosh","Chrome","107.0.0.0","OS X","10_15_7","2730","n","","bookB.jpg","practice","practice_n","true",""
"","","","","","","","html-keyboard-response","8","78897","0.0-4.0-4.0","94","2","2022-11-17 12:28:18","fd252370c17a9971d68c1d4354a03c2e","","Mozilla/5.0 (Macintosh; Intel Mac OS X 10_15_7) AppleWebKit/537.36 (KHTML, like Gecko) Chrome/107.0.0.0 Safari/537.36","Macintosh","Chrome","107.0.0.0","OS X","10_15_7","null","null","","CORRECT!","","","",""
"","","","","","fixation","16640","html-keyboard-response","9","79904","0.0-4.0-0.1","94","2","2022-11-17 12:28:18","fd252370c17a9971d68c1d4354a03c2e","","Mozilla/5.0 (Macintosh; Intel Mac OS X 10_15_7) AppleWebKit/537.36 (KHTML, like Gecko) Chrome/107.0.0.0 Safari/537.36","Macintosh","Chrome","107.0.0.0","OS X","10_15_7","null","null","","<p style=""font-size: 48px;"">+</p>","practice","practice_s","",""
"","","","","","sentence","16640","html-keyboard-response","10","82748","0.0-4.0-1.1","94","2","2022-11-17 12:28:18","fd252370c17a9971d68c1d4354a03c2e","","Mozilla/5.0 (Macintosh; Intel Mac OS X 10_15_7) AppleWebKit/537.36 (KHTML, like Gecko) Chrome/107.0.0.0 Safari/537.36","Macintosh","Chrome","107.0.0.0","OS X","10_15_7","2843"," ","","A balloon dropped and touched a cigarette","practice","practice_s","",""
"","","","","","fixation","16640","html-keyboard-response","11","83257","0.0-4.0-2.1","94","2","2022-11-17 12:28:18","fd252370c17a9971d68c1d4354a03c2e","","Mozilla/5.0 (Macintosh; Intel Mac OS X 10_15_7) AppleWebKit/537.36 (KHTML, like Gecko) Chrome/107.0.0.0 Safari/537.36","Macintosh","Chrome","107.0.0.0","OS X","10_15_7","null","null","","<p style=""font-size: 48px;"">+</p>","practice","practice_s","",""
"","","","","","picture","16640","image-keyboard-response","12","85732","0.0-4.0-3.1","94","2","2022-11-17 12:28:18","fd252370c17a9971d68c1d4354a03c2e","","Mozilla/5.0 (Macintosh; Intel Mac OS X 10_15_7) AppleWebKit/537.36 (KHTML, like Gecko) Chrome/107.0.0.0 Safari/537.36","Macintosh","Chrome","107.0.0.0","OS X","10_15_7","2473","s","","cigaretteB.jpg","practice","practice_s","true",""
"","","","","","","","html-keyboard-response","13","87737","0.0-4.0-4.1","94","2","2022-11-17 12:28:18","fd252370c17a9971d68c1d4354a03c2e","","Mozilla/5.0 (Macintosh; Intel Mac OS X 10_15_7) AppleWebKit/537.36 (KHTML, like Gecko) Chrome/107.0.0.0 Safari/537.36","Macintosh","Chrome","107.0.0.0","OS X","10_15_7","null","null","","CORRECT!","","","",""
"","","","","","fixation","16640","html-keyboard-response","14","88745","0.0-4.0-0.2","94","2","2022-11-17 12:28:18","fd252370c17a9971d68c1d4354a03c2e","","Mozilla/5.0 (Macintosh; Intel Mac OS X 10_15_7) AppleWebKit/537.36 (KHTML, like Gecko) Chrome/107.0.0.0 Safari/537.36","Macintosh","Chrome","107.0.0.0","OS X","10_15_7","null","null","","<p style=""font-size: 48px;"">+</p>","practice","practice_n","",""
"","","","","","sentence","16640","html-keyboard-response","15","90587","0.0-4.0-1.2","94","2","2022-11-17 12:28:18","fd252370c17a9971d68c1d4354a03c2e","","Mozilla/5.0 (Macintosh; Intel Mac OS X 10_15_7) AppleWebKit/537.36 (KHTML, like Gecko) Chrome/107.0.0.0 Safari/537.36","Macintosh","Chrome","107.0.0.0","OS X","10_15_7","1841"," ","","A fork was placed on a stool","practice","practice_n","",""
"","","","","","fixation","16640","html-keyboard-response","16","91089","0.0-4.0-2.2","94","2","2022-11-17 12:28:18","fd252370c17a9971d68c1d4354a03c2e","","Mozilla/5.0 (Macintosh; Intel Mac OS X 10_15_7) AppleWebKit/537.36 (KHTML, like Gecko) Chrome/107.0.0.0 Safari/537.36","Macintosh","Chrome","107.0.0.0","OS X","10_15_7","null","null","","<p style=""font-size: 48px;"">+</p>","practice","practice_n","",""
"","","","","","picture","16640","image-keyboard-response","17","94076","0.0-4.0-3.2","94","2","2022-11-17 12:28:18","fd252370c17a9971d68c1d4354a03c2e","","Mozilla/5.0 (Macintosh; Intel Mac OS X 10_15_7) AppleWebKit/537.36 (KHTML, like Gecko) Chrome/107.0.0.0 Safari/537.36","Macintosh","Chrome","107.0.0.0","OS X","10_15_7","2985","s","","tableB.jpg","practice","practice_n","false",""
"","","","","","","","html-keyboard-response","18","96080","0.0-4.0-4.2","94","2","2022-11-17 12:28:18","fd252370c17a9971d68c1d4354a03c2e","","Mozilla/5.0 (Macintosh; Intel Mac OS X 10_15_7) AppleWebKit/537.36 (KHTML, like Gecko) Chrome/107.0.0.0 Safari/537.36","Macintosh","Chrome","107.0.0.0","OS X","10_15_7","null","null","","WRONG!","","","",""
"","","","","","fixation","16640","html-keyboard-response","19","97088","0.0-4.0-0.3","94","2","2022-11-17 12:28:18","fd252370c17a9971d68c1d4354a03c2e","","Mozilla/5.0 (Macintosh; Intel Mac OS X 10_15_7) AppleWebKit/537.36 (KHTML, like Gecko) Chrome/107.0.0.0 Safari/537.36","Macintosh","Chrome","107.0.0.0","OS X","10_15_7","null","null","","<p style=""font-size: 48px;"">+</p>","practice","practice_n","",""
"","","","","","sentence","16640","html-keyboard-response","20","99491","0.0-4.0-1.3","94","2","2022-11-17 12:28:18","fd252370c17a9971d68c1d4354a03c2e","","Mozilla/5.0 (Macintosh; Intel Mac OS X 10_15_7) AppleWebKit/537.36 (KHTML, like Gecko) Chrome/107.0.0.0 Safari/537.36","Macintosh","Chrome","107.0.0.0","OS X","10_15_7","2401"," ","","A balloon dropped and smashed a cup","practice","practice_n","",""
"","","","","","fixation","16640","html-keyboard-response","21","100000","0.0-4.0-2.3","94","2","2022-11-17 12:28:18","fd252370c17a9971d68c1d4354a03c2e","","Mozilla/5.0 (Macintosh; Intel Mac OS X 10_15_7) AppleWebKit/537.36 (KHTML, like Gecko) Chrome/107.0.0.0 Safari/537.36","Macintosh","Chrome","107.0.0.0","OS X","10_15_7","null","null","","<p style=""font-size: 48px;"">+</p>","practice","practice_n","",""
"","","","","","picture","16640","image-keyboard-response","22","101971","0.0-4.0-3.3","94","2","2022-11-17 12:28:18","fd252370c17a9971d68c1d4354a03c2e","","Mozilla/5.0 (Macintosh; Intel Mac OS X 10_15_7) AppleWebKit/537.36 (KHTML, like Gecko) Chrome/107.0.0.0 Safari/537.36","Macintosh","Chrome","107.0.0.0","OS X","10_15_7","1969","n","","bananaB.jpg","practice","practice_n","true",""
"","","","","","","","html-keyboard-response","23","103976","0.0-4.0-4.3","94","2","2022-11-17 12:28:18","fd252370c17a9971d68c1d4354a03c2e","","Mozilla/5.0 (Macintosh; Intel Mac OS X 10_15_7) AppleWebKit/537.36 (KHTML, like Gecko) Chrome/107.0.0.0 Safari/537.36","Macintosh","Chrome","107.0.0.0","OS X","10_15_7","null","null","","CORRECT!","","","",""
"","","","","","fixation","16640","html-keyboard-response","24","104984","0.0-4.0-0.4","94","2","2022-11-17 12:28:18","fd252370c17a9971d68c1d4354a03c2e","","Mozilla/5.0 (Macintosh; Intel Mac OS X 10_15_7) AppleWebKit/537.36 (KHTML, like Gecko) Chrome/107.0.0.0 Safari/537.36","Macintosh","Chrome","107.0.0.0","OS X","10_15_7","null","null","","<p style=""font-size: 48px;"">+</p>","practice","practice_s","",""
"","","","","","sentence","16640","html-keyboard-response","25","107860","0.0-4.0-1.4","94","2","2022-11-17 12:28:18","fd252370c17a9971d68c1d4354a03c2e","","Mozilla/5.0 (Macintosh; Intel Mac OS X 10_15_7) AppleWebKit/537.36 (KHTML, like Gecko) Chrome/107.0.0.0 Safari/537.36","Macintosh","Chrome","107.0.0.0","OS X","10_15_7","2874"," ","","A bowling ball dropped and smashed a teacup","practice","practice_s","",""
"","","","","","fixation","16640","html-keyboard-response","26","108368","0.0-4.0-2.4","94","2","2022-11-17 12:28:18","fd252370c17a9971d68c1d4354a03c2e","","Mozilla/5.0 (Macintosh; Intel Mac OS X 10_15_7) AppleWebKit/537.36 (KHTML, like Gecko) Chrome/107.0.0.0 Safari/537.36","Macintosh","Chrome","107.0.0.0","OS X","10_15_7","null","null","","<p style=""font-size: 48px;"">+</p>","practice","practice_s","",""
"","","","","","picture","16640","image-keyboard-response","27","111643","0.0-4.0-3.4","94","2","2022-11-17 12:28:18","fd252370c17a9971d68c1d4354a03c2e","","Mozilla/5.0 (Macintosh; Intel Mac OS X 10_15_7) AppleWebKit/537.36 (KHTML, like Gecko) Chrome/107.0.0.0 Safari/537.36","Macintosh","Chrome","107.0.0.0","OS X","10_15_7","3273","n","","cupB.jpg","practice","practice_s","false",""
"","","","","","","","html-keyboard-response","28","113648","0.0-4.0-4.4","94","2","2022-11-17 12:28:18","fd252370c17a9971d68c1d4354a03c2e","","Mozilla/5.0 (Macintosh; Intel Mac OS X 10_15_7) AppleWebKit/537.36 (KHTML, like Gecko) Chrome/107.0.0.0 Safari/537.36","Macintosh","Chrome","107.0.0.0","OS X","10_15_7","null","null","","WRONG!","","","",""
"","","","","","fixation","16640","html-keyboard-response","29","114655","0.0-4.0-0.5","94","2","2022-11-17 12:28:18","fd252370c17a9971d68c1d4354a03c2e","","Mozilla/5.0 (Macintosh; Intel Mac OS X 10_15_7) AppleWebKit/537.36 (KHTML, like Gecko) Chrome/107.0.0.0 Safari/537.36","Macintosh","Chrome","107.0.0.0","OS X","10_15_7","null","null","","<p style=""font-size: 48px;"">+</p>","practice","practice_s","",""
"","","","","","sentence","16640","html-keyboard-response","30","116522","0.0-4.0-1.5","94","2","2022-11-17 12:28:18","fd252370c17a9971d68c1d4354a03c2e","","Mozilla/5.0 (Macintosh; Intel Mac OS X 10_15_7) AppleWebKit/537.36 (KHTML, like Gecko) Chrome/107.0.0.0 Safari/537.36","Macintosh","Chrome","107.0.0.0","OS X","10_15_7","1866"," ","","A knife was placed on a hammer","practice","practice_s","",""
"","","","","","fixation","16640","html-keyboard-response","31","117024","0.0-4.0-2.5","94","2","2022-11-17 12:28:18","fd252370c17a9971d68c1d4354a03c2e","","Mozilla/5.0 (Macintosh; Intel Mac OS X 10_15_7) AppleWebKit/537.36 (KHTML, like Gecko) Chrome/107.0.0.0 Safari/537.36","Macintosh","Chrome","107.0.0.0","OS X","10_15_7","null","null","","<p style=""font-size: 48px;"">+</p>","practice","practice_s","",""
"","","","","","picture","16640","image-keyboard-response","32","119243","0.0-4.0-3.5","94","2","2022-11-17 12:28:18","fd252370c17a9971d68c1d4354a03c2e","","Mozilla/5.0 (Macintosh; Intel Mac OS X 10_15_7) AppleWebKit/537.36 (KHTML, like Gecko) Chrome/107.0.0.0 Safari/537.36","Macintosh","Chrome","107.0.0.0","OS X","10_15_7","2217","s","","hammerB.jpg","practice","practice_s","true",""
"","","","","","","","html-keyboard-response","33","121247","0.0-4.0-4.5","94","2","2022-11-17 12:28:18","fd252370c17a9971d68c1d4354a03c2e","","Mozilla/5.0 (Macintosh; Intel Mac OS X 10_15_7) AppleWebKit/537.36 (KHTML, like Gecko) Chrome/107.0.0.0 Safari/537.36","Macintosh","Chrome","107.0.0.0","OS X","10_15_7","null","null","","CORRECT!","","","",""
"","","","","","movetoexp","16640","html-button-response","34","144280","0.0-5.0","94","2","2022-11-17 12:28:18","fd252370c17a9971d68c1d4354a03c2e","","Mozilla/5.0 (Macintosh; Intel Mac OS X 10_15_7) AppleWebKit/537.36 (KHTML, like Gecko) Chrome/107.0.0.0 Safari/537.36","Macintosh","Chrome","107.0.0.0","OS X","10_15_7","23032","0","","<p style=""font-size:20px;"">You have now completed the practice session! </p>
                    <p style=""font-size:20px;"">You will now move on to the main experiment, where you will not be provided any feedback. </p>
                    <p style=""font-size:20px;"">Remember, you should press <strong>S</strong> if the pictured object was mentioned in the preceding sentence<br> and <strong>N</strong> if the pictured object was not mentioned in the preceding sentence.</p>
                    <p style=""font-size:20px;"">Please click the button below to continue to the main experiment. </p>","","","",""
"","","","","","fixation","16640","html-keyboard-response","35","145287","0.0-6.0-0.0","94","2","2022-11-17 12:28:18","fd252370c17a9971d68c1d4354a03c2e","","Mozilla/5.0 (Macintosh; Intel Mac OS X 10_15_7) AppleWebKit/537.36 (KHTML, like Gecko) Chrome/107.0.0.0 Safari/537.36","Macintosh","Chrome","107.0.0.0","OS X","10_15_7","null","null","","<p style=""font-size: 48px;"">+</p>","2","Filler","",""
"","","","","","sentence","16640","html-keyboard-response","36","147794","0.0-6.0-1.0","94","2","2022-11-17 12:28:18","fd252370c17a9971d68c1d4354a03c2e","","Mozilla/5.0 (Macintosh; Intel Mac OS X 10_15_7) AppleWebKit/537.36 (KHTML, like Gecko) Chrome/107.0.0.0 Safari/537.36","Macintosh","Chrome","107.0.0.0","OS X","10_15_7","2506"," ","","A zebra is playing with a horse","2","Filler","",""
"","","","","","fixation","16640","html-keyboard-response","37","148303","0.0-6.0-2.0","94","2","2022-11-17 12:28:18","fd252370c17a9971d68c1d4354a03c2e","","Mozilla/5.0 (Macintosh; Intel Mac OS X 10_15_7) AppleWebKit/537.36 (KHTML, like Gecko) Chrome/107.0.0.0 Safari/537.36","Macintosh","Chrome","107.0.0.0","OS X","10_15_7","null","null","","<p style=""font-size: 48px;"">+</p>","2","Filler","",""
"","","","","","picture","16640","image-keyboard-response","38","149946","0.0-6.0-3.0","94","2","2022-11-17 12:28:18","fd252370c17a9971d68c1d4354a03c2e","","Mozilla/5.0 (Macintosh; Intel Mac OS X 10_15_7) AppleWebKit/537.36 (KHTML, like Gecko) Chrome/107.0.0.0 Safari/537.36","Macintosh","Chrome","107.0.0.0","OS X","10_15_7","1640","n","","watch.jpg","2","Filler","true",""
"","","","","","fixation","16640","html-keyboard-response","39","150950","0.0-6.0-0.1","94","2","2022-11-17 12:28:18","fd252370c17a9971d68c1d4354a03c2e","","Mozilla/5.0 (Macintosh; Intel Mac OS X 10_15_7) AppleWebKit/537.36 (KHTML, like Gecko) Chrome/107.0.0.0 Safari/537.36","Macintosh","Chrome","107.0.0.0","OS X","10_15_7","null","null","","<p style=""font-size: 48px;"">+</p>","2","Filler","",""
"","","","","","sentence","16640","html-keyboard-response","40","153874","0.0-6.0-1.1","94","2","2022-11-17 12:28:18","fd252370c17a9971d68c1d4354a03c2e","","Mozilla/5.0 (Macintosh; Intel Mac OS X 10_15_7) AppleWebKit/537.36 (KHTML, like Gecko) Chrome/107.0.0.0 Safari/537.36","Macintosh","Chrome","107.0.0.0","OS X","10_15_7","2922"," ","","An old man is hammering a nail","2","Filler","",""
"","","","","","fixation","16640","html-keyboard-response","41","154383","0.0-6.0-2.1","94","2","2022-11-17 12:28:18","fd252370c17a9971d68c1d4354a03c2e","","Mozilla/5.0 (Macintosh; Intel Mac OS X 10_15_7) AppleWebKit/537.36 (KHTML, like Gecko) Chrome/107.0.0.0 Safari/537.36","Macintosh","Chrome","107.0.0.0","OS X","10_15_7","null","null","","<p style=""font-size: 48px;"">+</p>","2","Filler","",""
"","","","","","picture","16640","image-keyboard-response","42","156578","0.0-6.0-3.1","94","2","2022-11-17 12:28:18","fd252370c17a9971d68c1d4354a03c2e","","Mozilla/5.0 (Macintosh; Intel Mac OS X 10_15_7) AppleWebKit/537.36 (KHTML, like Gecko) Chrome/107.0.0.0 Safari/537.36","Macintosh","Chrome","107.0.0.0","OS X","10_15_7","2193","s","","nail.jpg","2","Filler","true",""
"","","","","","fixation","16640","html-keyboard-response","43","157583","0.0-6.0-0.2","94","2","2022-11-17 12:28:18","fd252370c17a9971d68c1d4354a03c2e","","Mozilla/5.0 (Macintosh; Intel Mac OS X 10_15_7) AppleWebKit/537.36 (KHTML, like Gecko) Chrome/107.0.0.0 Safari/537.36","Macintosh","Chrome","107.0.0.0","OS X","10_15_7","null","null","","<p style=""font-size: 48px;"">+</p>","2","Filler","",""
"","","","","","sentence","16640","html-keyboard-response","44","159982","0.0-6.0-1.2","94","2","2022-11-17 12:28:18","fd252370c17a9971d68c1d4354a03c2e","","Mozilla/5.0 (Macintosh; Intel Mac OS X 10_15_7) AppleWebKit/537.36 (KHTML, like Gecko) Chrome/107.0.0.0 Safari/537.36","Macintosh","Chrome","107.0.0.0","OS X","10_15_7","2397"," ","","A student is writing on a board","2","Filler","",""
"","","","","","fixation","16640","html-keyboard-response","45","160487","0.0-6.0-2.2","94","2","2022-11-17 12:28:18","fd252370c17a9971d68c1d4354a03c2e","","Mozilla/5.0 (Macintosh; Intel Mac OS X 10_15_7) AppleWebKit/537.36 (KHTML, like Gecko) Chrome/107.0.0.0 Safari/537.36","Macintosh","Chrome","107.0.0.0","OS X","10_15_7","null","null","","<p style=""font-size: 48px;"">+</p>","2","Filler","",""
"","","","","","picture","16640","image-keyboard-response","46","161946","0.0-6.0-3.2","94","2","2022-11-17 12:28:18","fd252370c17a9971d68c1d4354a03c2e","","Mozilla/5.0 (Macintosh; Intel Mac OS X 10_15_7) AppleWebKit/537.36 (KHTML, like Gecko) Chrome/107.0.0.0 Safari/537.36","Macintosh","Chrome","107.0.0.0","OS X","10_15_7","1457","n","","owl.jpg","2","Filler","true",""
"","","","","","fixation","16640","html-keyboard-response","47","162951","0.0-6.0-0.3","94","2","2022-11-17 12:28:18","fd252370c17a9971d68c1d4354a03c2e","","Mozilla/5.0 (Macintosh; Intel Mac OS X 10_15_7) AppleWebKit/537.36 (KHTML, like Gecko) Chrome/107.0.0.0 Safari/537.36","Macintosh","Chrome","107.0.0.0","OS X","10_15_7","null","null","","<p style=""font-size: 48px;"">+</p>","2","Filler","",""
"","","","","","sentence","16640","html-keyboard-response","48","165586","0.0-6.0-1.3","94","2","2022-11-17 12:28:18","fd252370c17a9971d68c1d4354a03c2e","","Mozilla/5.0 (Macintosh; Intel Mac OS X 10_15_7) AppleWebKit/537.36 (KHTML, like Gecko) Chrome/107.0.0.0 Safari/537.36","Macintosh","Chrome","107.0.0.0","OS X","10_15_7","2633"," ","","A puppy is playing with a ball","2","Filler","",""
"","","","","","fixation","16640","html-keyboard-response","49","166095","0.0-6.0-2.3","94","2","2022-11-17 12:28:18","fd252370c17a9971d68c1d4354a03c2e","","Mozilla/5.0 (Macintosh; Intel Mac OS X 10_15_7) AppleWebKit/537.36 (KHTML, like Gecko) Chrome/107.0.0.0 Safari/537.36","Macintosh","Chrome","107.0.0.0","OS X","10_15_7","null","null","","<p style=""font-size: 48px;"">+</p>","2","Filler","",""
"","","","","","picture","16640","image-keyboard-response","50","168218","0.0-6.0-3.3","94","2","2022-11-17 12:28:18","fd252370c17a9971d68c1d4354a03c2e","","Mozilla/5.0 (Macintosh; Intel Mac OS X 10_15_7) AppleWebKit/537.36 (KHTML, like Gecko) Chrome/107.0.0.0 Safari/537.36","Macintosh","Chrome","107.0.0.0","OS X","10_15_7","2121","s","","tennisball.jpg","2","Filler","true",""
"","","","","","fixation","16640","html-keyboard-response","51","169222","0.0-6.0-0.4","94","2","2022-11-17 12:28:18","fd252370c17a9971d68c1d4354a03c2e","","Mozilla/5.0 (Macintosh; Intel Mac OS X 10_15_7) AppleWebKit/537.36 (KHTML, like Gecko) Chrome/107.0.0.0 Safari/537.36","Macintosh","Chrome","107.0.0.0","OS X","10_15_7","null","null","","<p style=""font-size: 48px;"">+</p>","2","Filler","",""
"","","","","","sentence","16640","html-keyboard-response","52","173137","0.0-6.0-1.4","94","2","2022-11-17 12:28:18","fd252370c17a9971d68c1d4354a03c2e","","Mozilla/5.0 (Macintosh; Intel Mac OS X 10_15_7) AppleWebKit/537.36 (KHTML, like Gecko) Chrome/107.0.0.0 Safari/537.36","Macintosh","Chrome","107.0.0.0","OS X","10_15_7","3912"," ","","A musician is playing a guitar","2","Filler","",""
"","","","","","fixation","16640","html-keyboard-response","53","173646","0.0-6.0-2.4","94","2","2022-11-17 12:28:18","fd252370c17a9971d68c1d4354a03c2e","","Mozilla/5.0 (Macintosh; Intel Mac OS X 10_15_7) AppleWebKit/537.36 (KHTML, like Gecko) Chrome/107.0.0.0 Safari/537.36","Macintosh","Chrome","107.0.0.0","OS X","10_15_7","null","null","","<p style=""font-size: 48px;"">+</p>","2","Filler","",""
"","","","","","picture","16640","image-keyboard-response","54","175441","0.0-6.0-3.4","94","2","2022-11-17 12:28:18","fd252370c17a9971d68c1d4354a03c2e","","Mozilla/5.0 (Macintosh; Intel Mac OS X 10_15_7) AppleWebKit/537.36 (KHTML, like Gecko) Chrome/107.0.0.0 Safari/537.36","Macintosh","Chrome","107.0.0.0","OS X","10_15_7","1792","s","","guitar.jpg","2","Filler","true",""
"","","","","","fixation","16640","html-keyboard-response","55","176446","0.0-6.0-0.5","94","2","2022-11-17 12:28:18","fd252370c17a9971d68c1d4354a03c2e","","Mozilla/5.0 (Macintosh; Intel Mac OS X 10_15_7) AppleWebKit/537.36 (KHTML, like Gecko) Chrome/107.0.0.0 Safari/537.36","Macintosh","Chrome","107.0.0.0","OS X","10_15_7","null","null","","<p style=""font-size: 48px;"">+</p>","2","Filler","",""
"","","","","","sentence","16640","html-keyboard-response","56","179097","0.0-6.0-1.5","94","2","2022-11-17 12:28:18","fd252370c17a9971d68c1d4354a03c2e","","Mozilla/5.0 (Macintosh; Intel Mac OS X 10_15_7) AppleWebKit/537.36 (KHTML, like Gecko) Chrome/107.0.0.0 Safari/537.36","Macintosh","Chrome","107.0.0.0","OS X","10_15_7","2649"," ","","A toothbrush was placed on the sponge","2","Filler","",""
"","","","","","fixation","16640","html-keyboard-response","57","179606","0.0-6.0-2.5","94","2","2022-11-17 12:28:18","fd252370c17a9971d68c1d4354a03c2e","","Mozilla/5.0 (Macintosh; Intel Mac OS X 10_15_7) AppleWebKit/537.36 (KHTML, like Gecko) Chrome/107.0.0.0 Safari/537.36","Macintosh","Chrome","107.0.0.0","OS X","10_15_7","null","null","","<p style=""font-size: 48px;"">+</p>","2","Filler","",""
"","","","","","picture","16640","image-keyboard-response","58","181433","0.0-6.0-3.5","94","2","2022-11-17 12:28:18","fd252370c17a9971d68c1d4354a03c2e","","Mozilla/5.0 (Macintosh; Intel Mac OS X 10_15_7) AppleWebKit/537.36 (KHTML, like Gecko) Chrome/107.0.0.0 Safari/537.36","Macintosh","Chrome","107.0.0.0","OS X","10_15_7","1823","s","","sponge.jpg","2","Filler","true",""
"","","","","","fixation","16640","html-keyboard-response","59","182438","0.0-6.0-0.6","94","2","2022-11-17 12:28:18","fd252370c17a9971d68c1d4354a03c2e","","Mozilla/5.0 (Macintosh; Intel Mac OS X 10_15_7) AppleWebKit/537.36 (KHTML, like Gecko) Chrome/107.0.0.0 Safari/537.36","Macintosh","Chrome","107.0.0.0","OS X","10_15_7","null","null","","<p style=""font-size: 48px;"">+</p>","2","Filler","",""
"","","","","","sentence","16640","html-keyboard-response","60","184904","0.0-6.0-1.6","94","2","2022-11-17 12:28:18","fd252370c17a9971d68c1d4354a03c2e","","Mozilla/5.0 (Macintosh; Intel Mac OS X 10_15_7) AppleWebKit/537.36 (KHTML, like Gecko) Chrome/107.0.0.0 Safari/537.36","Macintosh","Chrome","107.0.0.0","OS X","10_15_7","2463"," ","","A teenage girl is playing the piano","2","Filler","",""
"","","","","","fixation","16640","html-keyboard-response","61","185413","0.0-6.0-2.6","94","2","2022-11-17 12:28:18","fd252370c17a9971d68c1d4354a03c2e","","Mozilla/5.0 (Macintosh; Intel Mac OS X 10_15_7) AppleWebKit/537.36 (KHTML, like Gecko) Chrome/107.0.0.0 Safari/537.36","Macintosh","Chrome","107.0.0.0","OS X","10_15_7","null","null","","<p style=""font-size: 48px;"">+</p>","2","Filler","",""
"","","","","","picture","16640","image-keyboard-response","62","186698","0.0-6.0-3.6","94","2","2022-11-17 12:28:18","fd252370c17a9971d68c1d4354a03c2e","","Mozilla/5.0 (Macintosh; Intel Mac OS X 10_15_7) AppleWebKit/537.36 (KHTML, like Gecko) Chrome/107.0.0.0 Safari/537.36","Macintosh","Chrome","107.0.0.0","OS X","10_15_7","1282","n","","pillow.jpg","2","Filler","true",""
"","","","","","fixation","16640","html-keyboard-response","63","187710","0.0-6.0-0.7","94","2","2022-11-17 12:28:18","fd252370c17a9971d68c1d4354a03c2e","","Mozilla/5.0 (Macintosh; Intel Mac OS X 10_15_7) AppleWebKit/537.36 (KHTML, like Gecko) Chrome/107.0.0.0 Safari/537.36","Macintosh","Chrome","107.0.0.0","OS X","10_15_7","null","null","","<p style=""font-size: 48px;"">+</p>","2","Light_Matched","",""
"","","","","","sentence","16640","html-keyboard-response","64","190801","0.0-6.0-1.7","94","2","2022-11-17 12:28:18","fd252370c17a9971d68c1d4354a03c2e","","Mozilla/5.0 (Macintosh; Intel Mac OS X 10_15_7) AppleWebKit/537.36 (KHTML, like Gecko) Chrome/107.0.0.0 Safari/537.36","Macintosh","Chrome","107.0.0.0","OS X","10_15_7","3089"," ","","A balloon dropped and touched a tomato","2","Light_Matched","",""
"","","","","","fixation","16640","html-keyboard-response","65","191310","0.0-6.0-2.7","94","2","2022-11-17 12:28:18","fd252370c17a9971d68c1d4354a03c2e","","Mozilla/5.0 (Macintosh; Intel Mac OS X 10_15_7) AppleWebKit/537.36 (KHTML, like Gecko) Chrome/107.0.0.0 Safari/537.36","Macintosh","Chrome","107.0.0.0","OS X","10_15_7","null","null","","<p style=""font-size: 48px;"">+</p>","2","Light_Matched","",""
"","","","","","picture","16640","image-keyboard-response","66","193065","0.0-6.0-3.7","94","2","2022-11-17 12:28:18","fd252370c17a9971d68c1d4354a03c2e","","Mozilla/5.0 (Macintosh; Intel Mac OS X 10_15_7) AppleWebKit/537.36 (KHTML, like Gecko) Chrome/107.0.0.0 Safari/537.36","Macintosh","Chrome","107.0.0.0","OS X","10_15_7","1751","s","","tomatoS.jpg","2","Light_Matched","true",""
"","","","","","fixation","16640","html-keyboard-response","67","194071","0.0-6.0-0.8","94","2","2022-11-17 12:28:18","fd252370c17a9971d68c1d4354a03c2e","","Mozilla/5.0 (Macintosh; Intel Mac OS X 10_15_7) AppleWebKit/537.36 (KHTML, like Gecko) Chrome/107.0.0.0 Safari/537.36","Macintosh","Chrome","107.0.0.0","OS X","10_15_7","null","null","","<p style=""font-size: 48px;"">+</p>","2","Light_Matched","",""
"","","","","","sentence","16640","html-keyboard-response","68","196858","0.0-6.0-1.8","94","2","2022-11-17 12:28:18","fd252370c17a9971d68c1d4354a03c2e","","Mozilla/5.0 (Macintosh; Intel Mac OS X 10_15_7) AppleWebKit/537.36 (KHTML, like Gecko) Chrome/107.0.0.0 Safari/537.36","Macintosh","Chrome","107.0.0.0","OS X","10_15_7","2785"," ","","A balloon dropped and touched a piece of sushi","2","Light_Matched","",""
"","","","","","fixation","16640","html-keyboard-response","69","197366","0.0-6.0-2.8","94","2","2022-11-17 12:28:18","fd252370c17a9971d68c1d4354a03c2e","","Mozilla/5.0 (Macintosh; Intel Mac OS X 10_15_7) AppleWebKit/537.36 (KHTML, like Gecko) Chrome/107.0.0.0 Safari/537.36","Macintosh","Chrome","107.0.0.0","OS X","10_15_7","null","null","","<p style=""font-size: 48px;"">+</p>","2","Light_Matched","",""
"","","","","","picture","16640","image-keyboard-response","70","199024","0.0-6.0-3.8","94","2","2022-11-17 12:28:18","fd252370c17a9971d68c1d4354a03c2e","","Mozilla/5.0 (Macintosh; Intel Mac OS X 10_15_7) AppleWebKit/537.36 (KHTML, like Gecko) Chrome/107.0.0.0 Safari/537.36","Macintosh","Chrome","107.0.0.0","OS X","10_15_7","1656","s","","sushiS.jpg","2","Light_Matched","true",""
"","","","","","fixation","16640","html-keyboard-response","71","200030","0.0-6.0-0.9","94","2","2022-11-17 12:28:18","fd252370c17a9971d68c1d4354a03c2e","","Mozilla/5.0 (Macintosh; Intel Mac OS X 10_15_7) AppleWebKit/537.36 (KHTML, like Gecko) Chrome/107.0.0.0 Safari/537.36","Macintosh","Chrome","107.0.0.0","OS X","10_15_7","null","null","","<p style=""font-size: 48px;"">+</p>","2","Filler","",""
"","","","","","sentence","16640","html-keyboard-response","72","202657","0.0-6.0-1.9","94","2","2022-11-17 12:28:18","fd252370c17a9971d68c1d4354a03c2e","","Mozilla/5.0 (Macintosh; Intel Mac OS X 10_15_7) AppleWebKit/537.36 (KHTML, like Gecko) Chrome/107.0.0.0 Safari/537.36","Macintosh","Chrome","107.0.0.0","OS X","10_15_7","2625"," ","","A dentist is drinking a can of cola","2","Filler","",""
"","","","","","fixation","16640","html-keyboard-response","73","203166","0.0-6.0-2.9","94","2","2022-11-17 12:28:18","fd252370c17a9971d68c1d4354a03c2e","","Mozilla/5.0 (Macintosh; Intel Mac OS X 10_15_7) AppleWebKit/537.36 (KHTML, like Gecko) Chrome/107.0.0.0 Safari/537.36","Macintosh","Chrome","107.0.0.0","OS X","10_15_7","null","null","","<p style=""font-size: 48px;"">+</p>","2","Filler","",""
"","","","","","picture","16640","image-keyboard-response","74","204521","0.0-6.0-3.9","94","2","2022-11-17 12:28:18","fd252370c17a9971d68c1d4354a03c2e","","Mozilla/5.0 (Macintosh; Intel Mac OS X 10_15_7) AppleWebKit/537.36 (KHTML, like Gecko) Chrome/107.0.0.0 Safari/537.36","Macintosh","Chrome","107.0.0.0","OS X","10_15_7","1352","n","","doll.jpg","2","Filler","true",""
"","","","","","fixation","16640","html-keyboard-response","75","205525","0.0-6.0-0.10","94","2","2022-11-17 12:28:18","fd252370c17a9971d68c1d4354a03c2e","","Mozilla/5.0 (Macintosh; Intel Mac OS X 10_15_7) AppleWebKit/537.36 (KHTML, like Gecko) Chrome/107.0.0.0 Safari/537.36","Macintosh","Chrome","107.0.0.0","OS X","10_15_7","null","null","","<p style=""font-size: 48px;"">+</p>","2","Filler","",""
"","","","","","sentence","16640","html-keyboard-response","76","208064","0.0-6.0-1.10","94","2","2022-11-17 12:28:18","fd252370c17a9971d68c1d4354a03c2e","","Mozilla/5.0 (Macintosh; Intel Mac OS X 10_15_7) AppleWebKit/537.36 (KHTML, like Gecko) Chrome/107.0.0.0 Safari/537.36","Macintosh","Chrome","107.0.0.0","OS X","10_15_7","2537"," ","","A president is writing in the notebook","2","Filler","",""
"","","","","","fixation","16640","html-keyboard-response","77","208573","0.0-6.0-2.10","94","2","2022-11-17 12:28:18","fd252370c17a9971d68c1d4354a03c2e","","Mozilla/5.0 (Macintosh; Intel Mac OS X 10_15_7) AppleWebKit/537.36 (KHTML, like Gecko) Chrome/107.0.0.0 Safari/537.36","Macintosh","Chrome","107.0.0.0","OS X","10_15_7","null","null","","<p style=""font-size: 48px;"">+</p>","2","Filler","",""
"","","","","","picture","16640","image-keyboard-response","78","209801","0.0-6.0-3.10","94","2","2022-11-17 12:28:18","fd252370c17a9971d68c1d4354a03c2e","","Mozilla/5.0 (Macintosh; Intel Mac OS X 10_15_7) AppleWebKit/537.36 (KHTML, like Gecko) Chrome/107.0.0.0 Safari/537.36","Macintosh","Chrome","107.0.0.0","OS X","10_15_7","1224","n","","can.jpg","2","Filler","true",""
"","","","","","fixation","16640","html-keyboard-response","79","210805","0.0-6.0-0.11","94","2","2022-11-17 12:28:18","fd252370c17a9971d68c1d4354a03c2e","","Mozilla/5.0 (Macintosh; Intel Mac OS X 10_15_7) AppleWebKit/537.36 (KHTML, like Gecko) Chrome/107.0.0.0 Safari/537.36","Macintosh","Chrome","107.0.0.0","OS X","10_15_7","null","null","","<p style=""font-size: 48px;"">+</p>","2","Filler","",""
"","","","","","sentence","16640","html-keyboard-response","80","212352","0.0-6.0-1.11","94","2","2022-11-17 12:28:18","fd252370c17a9971d68c1d4354a03c2e","","Mozilla/5.0 (Macintosh; Intel Mac OS X 10_15_7) AppleWebKit/537.36 (KHTML, like Gecko) Chrome/107.0.0.0 Safari/537.36","Macintosh","Chrome","107.0.0.0","OS X","10_15_7","1544"," ","","A cook is taking a knife","2","Filler","",""
"","","","","","fixation","16640","html-keyboard-response","81","212861","0.0-6.0-2.11","94","2","2022-11-17 12:28:18","fd252370c17a9971d68c1d4354a03c2e","","Mozilla/5.0 (Macintosh; Intel Mac OS X 10_15_7) AppleWebKit/537.36 (KHTML, like Gecko) Chrome/107.0.0.0 Safari/537.36","Macintosh","Chrome","107.0.0.0","OS X","10_15_7","null","null","","<p style=""font-size: 48px;"">+</p>","2","Filler","",""
"","","","","","picture","16640","image-keyboard-response","82","214601","0.0-6.0-3.11","94","2","2022-11-17 12:28:18","fd252370c17a9971d68c1d4354a03c2e","","Mozilla/5.0 (Macintosh; Intel Mac OS X 10_15_7) AppleWebKit/537.36 (KHTML, like Gecko) Chrome/107.0.0.0 Safari/537.36","Macintosh","Chrome","107.0.0.0","OS X","10_15_7","1736","s","","knife.jpg","2","Filler","true",""
"","","","","","fixation","16640","html-keyboard-response","83","215605","0.0-6.0-0.12","94","2","2022-11-17 12:28:18","fd252370c17a9971d68c1d4354a03c2e","","Mozilla/5.0 (Macintosh; Intel Mac OS X 10_15_7) AppleWebKit/537.36 (KHTML, like Gecko) Chrome/107.0.0.0 Safari/537.36","Macintosh","Chrome","107.0.0.0","OS X","10_15_7","null","null","","<p style=""font-size: 48px;"">+</p>","2","Heavy_Contradictory","",""
"","","","","","sentence","16640","html-keyboard-response","84","218976","0.0-6.0-1.12","94","2","2022-11-17 12:28:18","fd252370c17a9971d68c1d4354a03c2e","","Mozilla/5.0 (Macintosh; Intel Mac OS X 10_15_7) AppleWebKit/537.36 (KHTML, like Gecko) Chrome/107.0.0.0 Safari/537.36","Macintosh","Chrome","107.0.0.0","OS X","10_15_7","3368"," ","","A bowling ball dropped and touched a donut","2","Heavy_Contradictory","",""
"","","","","","fixation","16640","html-keyboard-response","85","219486","0.0-6.0-2.12","94","2","2022-11-17 12:28:18","fd252370c17a9971d68c1d4354a03c2e","","Mozilla/5.0 (Macintosh; Intel Mac OS X 10_15_7) AppleWebKit/537.36 (KHTML, like Gecko) Chrome/107.0.0.0 Safari/537.36","Macintosh","Chrome","107.0.0.0","OS X","10_15_7","null","null","","<p style=""font-size: 48px;"">+</p>","2","Heavy_Contradictory","",""
"","","","","","picture","16640","image-keyboard-response","86","220968","0.0-6.0-3.12","94","2","2022-11-17 12:28:18","fd252370c17a9971d68c1d4354a03c2e","","Mozilla/5.0 (Macintosh; Intel Mac OS X 10_15_7) AppleWebKit/537.36 (KHTML, like Gecko) Chrome/107.0.0.0 Safari/537.36","Macintosh","Chrome","107.0.0.0","OS X","10_15_7","1478","s","","donutS.jpg","2","Heavy_Contradictory","true",""
"","","","","","fixation","16640","html-keyboard-response","87","221973","0.0-6.0-0.13","94","2","2022-11-17 12:28:18","fd252370c17a9971d68c1d4354a03c2e","","Mozilla/5.0 (Macintosh; Intel Mac OS X 10_15_7) AppleWebKit/537.36 (KHTML, like Gecko) Chrome/107.0.0.0 Safari/537.36","Macintosh","Chrome","107.0.0.0","OS X","10_15_7","null","null","","<p style=""font-size: 48px;"">+</p>","2","Filler","",""
"","","","","","sentence","16640","html-keyboard-response","88","224488","0.0-6.0-1.13","94","2","2022-11-17 12:28:18","fd252370c17a9971d68c1d4354a03c2e","","Mozilla/5.0 (Macintosh; Intel Mac OS X 10_15_7) AppleWebKit/537.36 (KHTML, like Gecko) Chrome/107.0.0.0 Safari/537.36","Macintosh","Chrome","107.0.0.0","OS X","10_15_7","2512"," ","","A man is boiling potatoes.","2","Filler","",""
"","","","","","fixation","16640","html-keyboard-response","89","224997","0.0-6.0-2.13","94","2","2022-11-17 12:28:18","fd252370c17a9971d68c1d4354a03c2e","","Mozilla/5.0 (Macintosh; Intel Mac OS X 10_15_7) AppleWebKit/537.36 (KHTML, like Gecko) Chrome/107.0.0.0 Safari/537.36","Macintosh","Chrome","107.0.0.0","OS X","10_15_7","null","null","","<p style=""font-size: 48px;"">+</p>","2","Filler","",""
"","","","","","picture","16640","image-keyboard-response","90","226344","0.0-6.0-3.13","94","2","2022-11-17 12:28:18","fd252370c17a9971d68c1d4354a03c2e","","Mozilla/5.0 (Macintosh; Intel Mac OS X 10_15_7) AppleWebKit/537.36 (KHTML, like Gecko) Chrome/107.0.0.0 Safari/537.36","Macintosh","Chrome","107.0.0.0","OS X","10_15_7","1343","n","","cup.jpg","2","Filler","true",""
"","","","","","fixation","16640","html-keyboard-response","91","227349","0.0-6.0-0.14","94","2","2022-11-17 12:28:18","fd252370c17a9971d68c1d4354a03c2e","","Mozilla/5.0 (Macintosh; Intel Mac OS X 10_15_7) AppleWebKit/537.36 (KHTML, like Gecko) Chrome/107.0.0.0 Safari/537.36","Macintosh","Chrome","107.0.0.0","OS X","10_15_7","null","null","","<p style=""font-size: 48px;"">+</p>","2","Light_Matched","",""
"","","","","","sentence","16640","html-keyboard-response","92","229304","0.0-6.0-1.14","94","2","2022-11-17 12:28:18","fd252370c17a9971d68c1d4354a03c2e","","Mozilla/5.0 (Macintosh; Intel Mac OS X 10_15_7) AppleWebKit/537.36 (KHTML, like Gecko) Chrome/107.0.0.0 Safari/537.36","Macintosh","Chrome","107.0.0.0","OS X","10_15_7","1951"," ","","A balloon dropped and touched a strawberry","2","Light_Matched","",""
"","","","","","fixation","16640","html-keyboard-response","93","229813","0.0-6.0-2.14","94","2","2022-11-17 12:28:18","fd252370c17a9971d68c1d4354a03c2e","","Mozilla/5.0 (Macintosh; Intel Mac OS X 10_15_7) AppleWebKit/537.36 (KHTML, like Gecko) Chrome/107.0.0.0 Safari/537.36","Macintosh","Chrome","107.0.0.0","OS X","10_15_7","null","null","","<p style=""font-size: 48px;"">+</p>","2","Light_Matched","",""
"","","","","","picture","16640","image-keyboard-response","94","231056","0.0-6.0-3.14","94","2","2022-11-17 12:28:18","fd252370c17a9971d68c1d4354a03c2e","","Mozilla/5.0 (Macintosh; Intel Mac OS X 10_15_7) AppleWebKit/537.36 (KHTML, like Gecko) Chrome/107.0.0.0 Safari/537.36","Macintosh","Chrome","107.0.0.0","OS X","10_15_7","1238","s","","strawberryS.jpg","2","Light_Matched","true",""
"","","","","","fixation","16640","html-keyboard-response","95","232061","0.0-6.0-0.15","94","2","2022-11-17 12:28:18","fd252370c17a9971d68c1d4354a03c2e","","Mozilla/5.0 (Macintosh; Intel Mac OS X 10_15_7) AppleWebKit/537.36 (KHTML, like Gecko) Chrome/107.0.0.0 Safari/537.36","Macintosh","Chrome","107.0.0.0","OS X","10_15_7","null","null","","<p style=""font-size: 48px;"">+</p>","2","Filler","",""
"","","","","","sentence","16640","html-keyboard-response","96","233848","0.0-6.0-1.15","94","2","2022-11-17 12:28:18","fd252370c17a9971d68c1d4354a03c2e","","Mozilla/5.0 (Macintosh; Intel Mac OS X 10_15_7) AppleWebKit/537.36 (KHTML, like Gecko) Chrome/107.0.0.0 Safari/537.36","Macintosh","Chrome","107.0.0.0","OS X","10_15_7","1783"," ","","A panda is resting on a tree","2","Filler","",""
"","","","","","fixation","16640","html-keyboard-response","97","234357","0.0-6.0-2.15","94","2","2022-11-17 12:28:18","fd252370c17a9971d68c1d4354a03c2e","","Mozilla/5.0 (Macintosh; Intel Mac OS X 10_15_7) AppleWebKit/537.36 (KHTML, like Gecko) Chrome/107.0.0.0 Safari/537.36","Macintosh","Chrome","107.0.0.0","OS X","10_15_7","null","null","","<p style=""font-size: 48px;"">+</p>","2","Filler","",""
"","","","","","picture","16640","image-keyboard-response","98","235376","0.0-6.0-3.15","94","2","2022-11-17 12:28:18","fd252370c17a9971d68c1d4354a03c2e","","Mozilla/5.0 (Macintosh; Intel Mac OS X 10_15_7) AppleWebKit/537.36 (KHTML, like Gecko) Chrome/107.0.0.0 Safari/537.36","Macintosh","Chrome","107.0.0.0","OS X","10_15_7","1015","n","","dollar.jpg","2","Filler","true",""
"","","","","","fixation","16640","html-keyboard-response","99","236381","0.0-6.0-0.16","94","2","2022-11-17 12:28:18","fd252370c17a9971d68c1d4354a03c2e","","Mozilla/5.0 (Macintosh; Intel Mac OS X 10_15_7) AppleWebKit/537.36 (KHTML, like Gecko) Chrome/107.0.0.0 Safari/537.36","Macintosh","Chrome","107.0.0.0","OS X","10_15_7","null","null","","<p style=""font-size: 48px;"">+</p>","2","Filler","",""
"","","","","","sentence","16640","html-keyboard-response","100","237656","0.0-6.0-1.16","94","2","2022-11-17 12:28:18","fd252370c17a9971d68c1d4354a03c2e","","Mozilla/5.0 (Macintosh; Intel Mac OS X 10_15_7) AppleWebKit/537.36 (KHTML, like Gecko) Chrome/107.0.0.0 Safari/537.36","Macintosh","Chrome","107.0.0.0","OS X","10_15_7","1271"," ","","A thermometer was placed on the box","2","Filler","",""
"","","","","","fixation","16640","html-keyboard-response","101","238165","0.0-6.0-2.16","94","2","2022-11-17 12:28:18","fd252370c17a9971d68c1d4354a03c2e","","Mozilla/5.0 (Macintosh; Intel Mac OS X 10_15_7) AppleWebKit/537.36 (KHTML, like Gecko) Chrome/107.0.0.0 Safari/537.36","Macintosh","Chrome","107.0.0.0","OS X","10_15_7","null","null","","<p style=""font-size: 48px;"">+</p>","2","Filler","",""
"","","","","","picture","16640","image-keyboard-response","102","239464","0.0-6.0-3.16","94","2","2022-11-17 12:28:18","fd252370c17a9971d68c1d4354a03c2e","","Mozilla/5.0 (Macintosh; Intel Mac OS X 10_15_7) AppleWebKit/537.36 (KHTML, like Gecko) Chrome/107.0.0.0 Safari/537.36","Macintosh","Chrome","107.0.0.0","OS X","10_15_7","1295","n","","button.jpg","2","Filler","true",""
"","","","","","fixation","16640","html-keyboard-response","103","240468","0.0-6.0-0.17","94","2","2022-11-17 12:28:18","fd252370c17a9971d68c1d4354a03c2e","","Mozilla/5.0 (Macintosh; Intel Mac OS X 10_15_7) AppleWebKit/537.36 (KHTML, like Gecko) Chrome/107.0.0.0 Safari/537.36","Macintosh","Chrome","107.0.0.0","OS X","10_15_7","null","null","","<p style=""font-size: 48px;"">+</p>","2","Light_Matched","",""
"","","","","","sentence","16640","html-keyboard-response","104","241975","0.0-6.0-1.17","94","2","2022-11-17 12:28:18","fd252370c17a9971d68c1d4354a03c2e","","Mozilla/5.0 (Macintosh; Intel Mac OS X 10_15_7) AppleWebKit/537.36 (KHTML, like Gecko) Chrome/107.0.0.0 Safari/537.36","Macintosh","Chrome","107.0.0.0","OS X","10_15_7","1504"," ","","A balloon dropped and touched a vase","2","Light_Matched","",""
"","","","","","fixation","16640","html-keyboard-response","105","242485","0.0-6.0-2.17","94","2","2022-11-17 12:28:18","fd252370c17a9971d68c1d4354a03c2e","","Mozilla/5.0 (Macintosh; Intel Mac OS X 10_15_7) AppleWebKit/537.36 (KHTML, like Gecko) Chrome/107.0.0.0 Safari/537.36","Macintosh","Chrome","107.0.0.0","OS X","10_15_7","null","null","","<p style=""font-size: 48px;"">+</p>","2","Light_Matched","",""
"","","","","","picture","16640","image-keyboard-response","106","244856","0.0-6.0-3.17","94","2","2022-11-17 12:28:18","fd252370c17a9971d68c1d4354a03c2e","","Mozilla/5.0 (Macintosh; Intel Mac OS X 10_15_7) AppleWebKit/537.36 (KHTML, like Gecko) Chrome/107.0.0.0 Safari/537.36","Macintosh","Chrome","107.0.0.0","OS X","10_15_7","2367","s","","vaseS.jpg","2","Light_Matched","true",""
"","","","","","fixation","16640","html-keyboard-response","107","245861","0.0-6.0-0.18","94","2","2022-11-17 12:28:18","fd252370c17a9971d68c1d4354a03c2e","","Mozilla/5.0 (Macintosh; Intel Mac OS X 10_15_7) AppleWebKit/537.36 (KHTML, like Gecko) Chrome/107.0.0.0 Safari/537.36","Macintosh","Chrome","107.0.0.0","OS X","10_15_7","null","null","","<p style=""font-size: 48px;"">+</p>","2","Filler","",""
"","","","","","sentence","16640","html-keyboard-response","108","247135","0.0-6.0-1.18","94","2","2022-11-17 12:28:18","fd252370c17a9971d68c1d4354a03c2e","","Mozilla/5.0 (Macintosh; Intel Mac OS X 10_15_7) AppleWebKit/537.36 (KHTML, like Gecko) Chrome/107.0.0.0 Safari/537.36","Macintosh","Chrome","107.0.0.0","OS X","10_15_7","1271"," ","","A doctor is taking a stethoscope","2","Filler","",""
"","","","","","fixation","16640","html-keyboard-response","109","247644","0.0-6.0-2.18","94","2","2022-11-17 12:28:18","fd252370c17a9971d68c1d4354a03c2e","","Mozilla/5.0 (Macintosh; Intel Mac OS X 10_15_7) AppleWebKit/537.36 (KHTML, like Gecko) Chrome/107.0.0.0 Safari/537.36","Macintosh","Chrome","107.0.0.0","OS X","10_15_7","null","null","","<p style=""font-size: 48px;"">+</p>","2","Filler","",""
"","","","","","picture","16640","image-keyboard-response","110","248888","0.0-6.0-3.18","94","2","2022-11-17 12:28:18","fd252370c17a9971d68c1d4354a03c2e","","Mozilla/5.0 (Macintosh; Intel Mac OS X 10_15_7) AppleWebKit/537.36 (KHTML, like Gecko) Chrome/107.0.0.0 Safari/537.36","Macintosh","Chrome","107.0.0.0","OS X","10_15_7","1239","n","","matchesbox.jpg","2","Filler","true",""
"","","","","","fixation","16640","html-keyboard-response","111","249900","0.0-6.0-0.19","94","2","2022-11-17 12:28:18","fd252370c17a9971d68c1d4354a03c2e","","Mozilla/5.0 (Macintosh; Intel Mac OS X 10_15_7) AppleWebKit/537.36 (KHTML, like Gecko) Chrome/107.0.0.0 Safari/537.36","Macintosh","Chrome","107.0.0.0","OS X","10_15_7","null","null","","<p style=""font-size: 48px;"">+</p>","2","Heavy_Matched","",""
"","","","","","sentence","16640","html-keyboard-response","112","253503","0.0-6.0-1.19","94","2","2022-11-17 12:28:18","fd252370c17a9971d68c1d4354a03c2e","","Mozilla/5.0 (Macintosh; Intel Mac OS X 10_15_7) AppleWebKit/537.36 (KHTML, like Gecko) Chrome/107.0.0.0 Safari/537.36","Macintosh","Chrome","107.0.0.0","OS X","10_15_7","3599"," ","","A bowling ball dropped and smashed a chocolate ice-cream","2","Heavy_Matched","",""
"","","","","","fixation","16640","html-keyboard-response","113","254012","0.0-6.0-2.19","94","2","2022-11-17 12:28:18","fd252370c17a9971d68c1d4354a03c2e","","Mozilla/5.0 (Macintosh; Intel Mac OS X 10_15_7) AppleWebKit/537.36 (KHTML, like Gecko) Chrome/107.0.0.0 Safari/537.36","Macintosh","Chrome","107.0.0.0","OS X","10_15_7","null","null","","<p style=""font-size: 48px;"">+</p>","2","Heavy_Matched","",""
"","","","","","picture","16640","image-keyboard-response","114","256239","0.0-6.0-3.19","94","2","2022-11-17 12:28:18","fd252370c17a9971d68c1d4354a03c2e","","Mozilla/5.0 (Macintosh; Intel Mac OS X 10_15_7) AppleWebKit/537.36 (KHTML, like Gecko) Chrome/107.0.0.0 Safari/537.36","Macintosh","Chrome","107.0.0.0","OS X","10_15_7","2222","s","","icecreamS.jpg","2","Heavy_Matched","true",""
"","","","","","fixation","16640","html-keyboard-response","115","257244","0.0-6.0-0.20","94","2","2022-11-17 12:28:18","fd252370c17a9971d68c1d4354a03c2e","","Mozilla/5.0 (Macintosh; Intel Mac OS X 10_15_7) AppleWebKit/537.36 (KHTML, like Gecko) Chrome/107.0.0.0 Safari/537.36","Macintosh","Chrome","107.0.0.0","OS X","10_15_7","null","null","","<p style=""font-size: 48px;"">+</p>","2","Filler","",""
"","","","","","sentence","16640","html-keyboard-response","116","259919","0.0-6.0-1.20","94","2","2022-11-17 12:28:18","fd252370c17a9971d68c1d4354a03c2e","","Mozilla/5.0 (Macintosh; Intel Mac OS X 10_15_7) AppleWebKit/537.36 (KHTML, like Gecko) Chrome/107.0.0.0 Safari/537.36","Macintosh","Chrome","107.0.0.0","OS X","10_15_7","2671"," ","","A fork was placed on the plate","2","Filler","",""
"","","","","","fixation","16640","html-keyboard-response","117","260428","0.0-6.0-2.20","94","2","2022-11-17 12:28:18","fd252370c17a9971d68c1d4354a03c2e","","Mozilla/5.0 (Macintosh; Intel Mac OS X 10_15_7) AppleWebKit/537.36 (KHTML, like Gecko) Chrome/107.0.0.0 Safari/537.36","Macintosh","Chrome","107.0.0.0","OS X","10_15_7","null","null","","<p style=""font-size: 48px;"">+</p>","2","Filler","",""
"","","","","","picture","16640","image-keyboard-response","118","262135","0.0-6.0-3.20","94","2","2022-11-17 12:28:18","fd252370c17a9971d68c1d4354a03c2e","","Mozilla/5.0 (Macintosh; Intel Mac OS X 10_15_7) AppleWebKit/537.36 (KHTML, like Gecko) Chrome/107.0.0.0 Safari/537.36","Macintosh","Chrome","107.0.0.0","OS X","10_15_7","1702","s","","plate.jpg","2","Filler","true",""
"","","","","","fixation","16640","html-keyboard-response","119","263139","0.0-6.0-0.21","94","2","2022-11-17 12:28:18","fd252370c17a9971d68c1d4354a03c2e","","Mozilla/5.0 (Macintosh; Intel Mac OS X 10_15_7) AppleWebKit/537.36 (KHTML, like Gecko) Chrome/107.0.0.0 Safari/537.36","Macintosh","Chrome","107.0.0.0","OS X","10_15_7","null","null","","<p style=""font-size: 48px;"">+</p>","2","Light_Matched","",""
"","","","","","sentence","16640","html-keyboard-response","120","265111","0.0-6.0-1.21","94","2","2022-11-17 12:28:18","fd252370c17a9971d68c1d4354a03c2e","","Mozilla/5.0 (Macintosh; Intel Mac OS X 10_15_7) AppleWebKit/537.36 (KHTML, like Gecko) Chrome/107.0.0.0 Safari/537.36","Macintosh","Chrome","107.0.0.0","OS X","10_15_7","1968"," ","","A balloon dropped and touched a ceramic plate","2","Light_Matched","",""
"","","","","","fixation","16640","html-keyboard-response","121","265620","0.0-6.0-2.21","94","2","2022-11-17 12:28:18","fd252370c17a9971d68c1d4354a03c2e","","Mozilla/5.0 (Macintosh; Intel Mac OS X 10_15_7) AppleWebKit/537.36 (KHTML, like Gecko) Chrome/107.0.0.0 Safari/537.36","Macintosh","Chrome","107.0.0.0","OS X","10_15_7","null","null","","<p style=""font-size: 48px;"">+</p>","2","Light_Matched","",""
"","","","","","picture","16640","image-keyboard-response","122","267791","0.0-6.0-3.21","94","2","2022-11-17 12:28:18","fd252370c17a9971d68c1d4354a03c2e","","Mozilla/5.0 (Macintosh; Intel Mac OS X 10_15_7) AppleWebKit/537.36 (KHTML, like Gecko) Chrome/107.0.0.0 Safari/537.36","Macintosh","Chrome","107.0.0.0","OS X","10_15_7","2166","s","","plateS.jpg","2","Light_Matched","true",""
"","","","","","fixation","16640","html-keyboard-response","123","268804","0.0-6.0-0.22","94","2","2022-11-17 12:28:18","fd252370c17a9971d68c1d4354a03c2e","","Mozilla/5.0 (Macintosh; Intel Mac OS X 10_15_7) AppleWebKit/537.36 (KHTML, like Gecko) Chrome/107.0.0.0 Safari/537.36","Macintosh","Chrome","107.0.0.0","OS X","10_15_7","null","null","","<p style=""font-size: 48px;"">+</p>","2","Filler","",""
"","","","","","sentence","16640","html-keyboard-response","124","270863","0.0-6.0-1.22","94","2","2022-11-17 12:28:18","fd252370c17a9971d68c1d4354a03c2e","","Mozilla/5.0 (Macintosh; Intel Mac OS X 10_15_7) AppleWebKit/537.36 (KHTML, like Gecko) Chrome/107.0.0.0 Safari/537.36","Macintosh","Chrome","107.0.0.0","OS X","10_15_7","2055"," ","","A nurse is taking a syringe","2","Filler","",""
"","","","","","fixation","16640","html-keyboard-response","125","271396","0.0-6.0-2.22","94","2","2022-11-17 12:28:18","fd252370c17a9971d68c1d4354a03c2e","","Mozilla/5.0 (Macintosh; Intel Mac OS X 10_15_7) AppleWebKit/537.36 (KHTML, like Gecko) Chrome/107.0.0.0 Safari/537.36","Macintosh","Chrome","107.0.0.0","OS X","10_15_7","null","null","","<p style=""font-size: 48px;"">+</p>","2","Filler","",""
"","","","","","picture","16640","image-keyboard-response","126","272511","0.0-6.0-3.22","94","2","2022-11-17 12:28:18","fd252370c17a9971d68c1d4354a03c2e","","Mozilla/5.0 (Macintosh; Intel Mac OS X 10_15_7) AppleWebKit/537.36 (KHTML, like Gecko) Chrome/107.0.0.0 Safari/537.36","Macintosh","Chrome","107.0.0.0","OS X","10_15_7","1110","n","","headphones.jpg","2","Filler","true",""
"","","","","","fixation","16640","html-keyboard-response","127","273516","0.0-6.0-0.23","94","2","2022-11-17 12:28:18","fd252370c17a9971d68c1d4354a03c2e","","Mozilla/5.0 (Macintosh; Intel Mac OS X 10_15_7) AppleWebKit/537.36 (KHTML, like Gecko) Chrome/107.0.0.0 Safari/537.36","Macintosh","Chrome","107.0.0.0","OS X","10_15_7","null","null","","<p style=""font-size: 48px;"">+</p>","2","Light_Contradictory","",""
"","","","","","sentence","16640","html-keyboard-response","128","275367","0.0-6.0-1.23","94","2","2022-11-17 12:28:18","fd252370c17a9971d68c1d4354a03c2e","","Mozilla/5.0 (Macintosh; Intel Mac OS X 10_15_7) AppleWebKit/537.36 (KHTML, like Gecko) Chrome/107.0.0.0 Safari/537.36","Macintosh","Chrome","107.0.0.0","OS X","10_15_7","1847"," ","","A balloon dropped and smashed a TV","2","Light_Contradictory","",""
"","","","","","fixation","16640","html-keyboard-response","129","275876","0.0-6.0-2.23","94","2","2022-11-17 12:28:18","fd252370c17a9971d68c1d4354a03c2e","","Mozilla/5.0 (Macintosh; Intel Mac OS X 10_15_7) AppleWebKit/537.36 (KHTML, like Gecko) Chrome/107.0.0.0 Safari/537.36","Macintosh","Chrome","107.0.0.0","OS X","10_15_7","null","null","","<p style=""font-size: 48px;"">+</p>","2","Light_Contradictory","",""
"","","","","","picture","16640","image-keyboard-response","130","277239","0.0-6.0-3.23","94","2","2022-11-17 12:28:18","fd252370c17a9971d68c1d4354a03c2e","","Mozilla/5.0 (Macintosh; Intel Mac OS X 10_15_7) AppleWebKit/537.36 (KHTML, like Gecko) Chrome/107.0.0.0 Safari/537.36","Macintosh","Chrome","107.0.0.0","OS X","10_15_7","1358","s","","tvS.jpg","2","Light_Contradictory","true",""
"","","","","","fixation","16640","html-keyboard-response","131","278251","0.0-6.0-0.24","94","2","2022-11-17 12:28:18","fd252370c17a9971d68c1d4354a03c2e","","Mozilla/5.0 (Macintosh; Intel Mac OS X 10_15_7) AppleWebKit/537.36 (KHTML, like Gecko) Chrome/107.0.0.0 Safari/537.36","Macintosh","Chrome","107.0.0.0","OS X","10_15_7","null","null","","<p style=""font-size: 48px;"">+</p>","2","Heavy_Matched","",""
"","","","","","sentence","16640","html-keyboard-response","132","280399","0.0-6.0-1.24","94","2","2022-11-17 12:28:18","fd252370c17a9971d68c1d4354a03c2e","","Mozilla/5.0 (Macintosh; Intel Mac OS X 10_15_7) AppleWebKit/537.36 (KHTML, like Gecko) Chrome/107.0.0.0 Safari/537.36","Macintosh","Chrome","107.0.0.0","OS X","10_15_7","2144"," ","","A bowling ball dropped and smashed glasses","2","Heavy_Matched","",""
"","","","","","fixation","16640","html-keyboard-response","133","280908","0.0-6.0-2.24","94","2","2022-11-17 12:28:18","fd252370c17a9971d68c1d4354a03c2e","","Mozilla/5.0 (Macintosh; Intel Mac OS X 10_15_7) AppleWebKit/537.36 (KHTML, like Gecko) Chrome/107.0.0.0 Safari/537.36","Macintosh","Chrome","107.0.0.0","OS X","10_15_7","null","null","","<p style=""font-size: 48px;"">+</p>","2","Heavy_Matched","",""
"","","","","","picture","16640","image-keyboard-response","134","282985","0.0-6.0-3.24","94","2","2022-11-17 12:28:18","fd252370c17a9971d68c1d4354a03c2e","","Mozilla/5.0 (Macintosh; Intel Mac OS X 10_15_7) AppleWebKit/537.36 (KHTML, like Gecko) Chrome/107.0.0.0 Safari/537.36","Macintosh","Chrome","107.0.0.0","OS X","10_15_7","2070","s","","glassesS.jpg","2","Heavy_Matched","true",""
"","","","","","fixation","16640","html-keyboard-response","135","283990","0.0-6.0-0.25","94","2","2022-11-17 12:28:18","fd252370c17a9971d68c1d4354a03c2e","","Mozilla/5.0 (Macintosh; Intel Mac OS X 10_15_7) AppleWebKit/537.36 (KHTML, like Gecko) Chrome/107.0.0.0 Safari/537.36","Macintosh","Chrome","107.0.0.0","OS X","10_15_7","null","null","","<p style=""font-size: 48px;"">+</p>","2","Filler","",""
"","","","","","sentence","16640","html-keyboard-response","136","287531","0.0-6.0-1.25","94","2","2022-11-17 12:28:18","fd252370c17a9971d68c1d4354a03c2e","","Mozilla/5.0 (Macintosh; Intel Mac OS X 10_15_7) AppleWebKit/537.36 (KHTML, like Gecko) Chrome/107.0.0.0 Safari/537.36","Macintosh","Chrome","107.0.0.0","OS X","10_15_7","3535"," ","","A cat is drinking water from a bowl","2","Filler","",""
"","","","","","fixation","16640","html-keyboard-response","137","288039","0.0-6.0-2.25","94","2","2022-11-17 12:28:18","fd252370c17a9971d68c1d4354a03c2e","","Mozilla/5.0 (Macintosh; Intel Mac OS X 10_15_7) AppleWebKit/537.36 (KHTML, like Gecko) Chrome/107.0.0.0 Safari/537.36","Macintosh","Chrome","107.0.0.0","OS X","10_15_7","null","null","","<p style=""font-size: 48px;"">+</p>","2","Filler","",""
"","","","","","picture","16640","image-keyboard-response","138","289932","0.0-6.0-3.25","94","2","2022-11-17 12:28:18","fd252370c17a9971d68c1d4354a03c2e","","Mozilla/5.0 (Macintosh; Intel Mac OS X 10_15_7) AppleWebKit/537.36 (KHTML, like Gecko) Chrome/107.0.0.0 Safari/537.36","Macintosh","Chrome","107.0.0.0","OS X","10_15_7","1887","s","","bowl.jpg","2","Filler","true",""
"","","","","","fixation","16640","html-keyboard-response","139","290945","0.0-6.0-0.26","94","2","2022-11-17 12:28:18","fd252370c17a9971d68c1d4354a03c2e","","Mozilla/5.0 (Macintosh; Intel Mac OS X 10_15_7) AppleWebKit/537.36 (KHTML, like Gecko) Chrome/107.0.0.0 Safari/537.36","Macintosh","Chrome","107.0.0.0","OS X","10_15_7","null","null","","<p style=""font-size: 48px;"">+</p>","2","Heavy_Matched","",""
"","","","","","sentence","16640","html-keyboard-response","140","292028","0.0-6.0-1.26","94","2","2022-11-17 12:28:18","fd252370c17a9971d68c1d4354a03c2e","","Mozilla/5.0 (Macintosh; Intel Mac OS X 10_15_7) AppleWebKit/537.36 (KHTML, like Gecko) Chrome/107.0.0.0 Safari/537.36","Macintosh","Chrome","107.0.0.0","OS X","10_15_7","1078"," ","","A bowling ball dropped and smashed a banana","2","Heavy_Matched","",""
"","","","","","fixation","16640","html-keyboard-response","141","292537","0.0-6.0-2.26","94","2","2022-11-17 12:28:18","fd252370c17a9971d68c1d4354a03c2e","","Mozilla/5.0 (Macintosh; Intel Mac OS X 10_15_7) AppleWebKit/537.36 (KHTML, like Gecko) Chrome/107.0.0.0 Safari/537.36","Macintosh","Chrome","107.0.0.0","OS X","10_15_7","null","null","","<p style=""font-size: 48px;"">+</p>","2","Heavy_Matched","",""
"","","","","","picture","16640","image-keyboard-response","142","293893","0.0-6.0-3.26","94","2","2022-11-17 12:28:18","fd252370c17a9971d68c1d4354a03c2e","","Mozilla/5.0 (Macintosh; Intel Mac OS X 10_15_7) AppleWebKit/537.36 (KHTML, like Gecko) Chrome/107.0.0.0 Safari/537.36","Macintosh","Chrome","107.0.0.0","OS X","10_15_7","1350","s","","bananaS.jpg","2","Heavy_Matched","true",""
"","","","","","fixation","16640","html-keyboard-response","143","294907","0.0-6.0-0.27","94","2","2022-11-17 12:28:18","fd252370c17a9971d68c1d4354a03c2e","","Mozilla/5.0 (Macintosh; Intel Mac OS X 10_15_7) AppleWebKit/537.36 (KHTML, like Gecko) Chrome/107.0.0.0 Safari/537.36","Macintosh","Chrome","107.0.0.0","OS X","10_15_7","null","null","","<p style=""font-size: 48px;"">+</p>","2","Filler","",""
"","","","","","sentence","16640","html-keyboard-response","144","295918","0.0-6.0-1.27","94","2","2022-11-17 12:28:18","fd252370c17a9971d68c1d4354a03c2e","","Mozilla/5.0 (Macintosh; Intel Mac OS X 10_15_7) AppleWebKit/537.36 (KHTML, like Gecko) Chrome/107.0.0.0 Safari/537.36","Macintosh","Chrome","107.0.0.0","OS X","10_15_7","1006"," ","","A hairdresser is taking scissors","2","Filler","",""
"","","","","","fixation","16640","html-keyboard-response","145","296427","0.0-6.0-2.27","94","2","2022-11-17 12:28:18","fd252370c17a9971d68c1d4354a03c2e","","Mozilla/5.0 (Macintosh; Intel Mac OS X 10_15_7) AppleWebKit/537.36 (KHTML, like Gecko) Chrome/107.0.0.0 Safari/537.36","Macintosh","Chrome","107.0.0.0","OS X","10_15_7","null","null","","<p style=""font-size: 48px;"">+</p>","2","Filler","",""
"","","","","","picture","16640","image-keyboard-response","146","297438","0.0-6.0-3.27","94","2","2022-11-17 12:28:18","fd252370c17a9971d68c1d4354a03c2e","","Mozilla/5.0 (Macintosh; Intel Mac OS X 10_15_7) AppleWebKit/537.36 (KHTML, like Gecko) Chrome/107.0.0.0 Safari/537.36","Macintosh","Chrome","107.0.0.0","OS X","10_15_7","1006","n","","sock.jpg","2","Filler","true",""
"","","","","","fixation","16640","html-keyboard-response","147","298451","0.0-6.0-0.28","94","2","2022-11-17 12:28:18","fd252370c17a9971d68c1d4354a03c2e","","Mozilla/5.0 (Macintosh; Intel Mac OS X 10_15_7) AppleWebKit/537.36 (KHTML, like Gecko) Chrome/107.0.0.0 Safari/537.36","Macintosh","Chrome","107.0.0.0","OS X","10_15_7","null","null","","<p style=""font-size: 48px;"">+</p>","2","Filler","",""
"","","","","","sentence","16640","html-keyboard-response","148","299430","0.0-6.0-1.28","94","2","2022-11-17 12:28:18","fd252370c17a9971d68c1d4354a03c2e","","Mozilla/5.0 (Macintosh; Intel Mac OS X 10_15_7) AppleWebKit/537.36 (KHTML, like Gecko) Chrome/107.0.0.0 Safari/537.36","Macintosh","Chrome","107.0.0.0","OS X","10_15_7","974"," ","","A cabbage was placed on the table","2","Filler","",""
"","","","","","fixation","16640","html-keyboard-response","149","299939","0.0-6.0-2.28","94","2","2022-11-17 12:28:18","fd252370c17a9971d68c1d4354a03c2e","","Mozilla/5.0 (Macintosh; Intel Mac OS X 10_15_7) AppleWebKit/537.36 (KHTML, like Gecko) Chrome/107.0.0.0 Safari/537.36","Macintosh","Chrome","107.0.0.0","OS X","10_15_7","null","null","","<p style=""font-size: 48px;"">+</p>","2","Filler","",""
"","","","","","picture","16640","image-keyboard-response","150","301063","0.0-6.0-3.28","94","2","2022-11-17 12:28:18","fd252370c17a9971d68c1d4354a03c2e","","Mozilla/5.0 (Macintosh; Intel Mac OS X 10_15_7) AppleWebKit/537.36 (KHTML, like Gecko) Chrome/107.0.0.0 Safari/537.36","Macintosh","Chrome","107.0.0.0","OS X","10_15_7","1118","n","","ladder.jpg","2","Filler","true",""
"","","","","","fixation","16640","html-keyboard-response","151","302076","0.0-6.0-0.29","94","2","2022-11-17 12:28:18","fd252370c17a9971d68c1d4354a03c2e","","Mozilla/5.0 (Macintosh; Intel Mac OS X 10_15_7) AppleWebKit/537.36 (KHTML, like Gecko) Chrome/107.0.0.0 Safari/537.36","Macintosh","Chrome","107.0.0.0","OS X","10_15_7","null","null","","<p style=""font-size: 48px;"">+</p>","2","Light_Contradictory","",""
"","","","","","sentence","16640","html-keyboard-response","152","303511","0.0-6.0-1.29","94","2","2022-11-17 12:28:18","fd252370c17a9971d68c1d4354a03c2e","","Mozilla/5.0 (Macintosh; Intel Mac OS X 10_15_7) AppleWebKit/537.36 (KHTML, like Gecko) Chrome/107.0.0.0 Safari/537.36","Macintosh","Chrome","107.0.0.0","OS X","10_15_7","1430"," ","","A balloon dropped and smashed an egg","2","Light_Contradictory","",""
"","","","","","fixation","16640","html-keyboard-response","153","304020","0.0-6.0-2.29","94","2","2022-11-17 12:28:18","fd252370c17a9971d68c1d4354a03c2e","","Mozilla/5.0 (Macintosh; Intel Mac OS X 10_15_7) AppleWebKit/537.36 (KHTML, like Gecko) Chrome/107.0.0.0 Safari/537.36","Macintosh","Chrome","107.0.0.0","OS X","10_15_7","null","null","","<p style=""font-size: 48px;"">+</p>","2","Light_Contradictory","",""
"","","","","","picture","16640","image-keyboard-response","154","305391","0.0-6.0-3.29","94","2","2022-11-17 12:28:18","fd252370c17a9971d68c1d4354a03c2e","","Mozilla/5.0 (Macintosh; Intel Mac OS X 10_15_7) AppleWebKit/537.36 (KHTML, like Gecko) Chrome/107.0.0.0 Safari/537.36","Macintosh","Chrome","107.0.0.0","OS X","10_15_7","1366","s","","eggS.jpg","2","Light_Contradictory","true",""
"","","","","","fixation","16640","html-keyboard-response","155","306404","0.0-6.0-0.30","94","2","2022-11-17 12:28:18","fd252370c17a9971d68c1d4354a03c2e","","Mozilla/5.0 (Macintosh; Intel Mac OS X 10_15_7) AppleWebKit/537.36 (KHTML, like Gecko) Chrome/107.0.0.0 Safari/537.36","Macintosh","Chrome","107.0.0.0","OS X","10_15_7","null","null","","<p style=""font-size: 48px;"">+</p>","2","Heavy_Contradictory","",""
"","","","","","sentence","16640","html-keyboard-response","156","307832","0.0-6.0-1.30","94","2","2022-11-17 12:28:18","fd252370c17a9971d68c1d4354a03c2e","","Mozilla/5.0 (Macintosh; Intel Mac OS X 10_15_7) AppleWebKit/537.36 (KHTML, like Gecko) Chrome/107.0.0.0 Safari/537.36","Macintosh","Chrome","107.0.0.0","OS X","10_15_7","1424"," ","","A bowling ball dropped and touched a light bulb","2","Heavy_Contradictory","",""
"","","","","","fixation","16640","html-keyboard-response","157","308341","0.0-6.0-2.30","94","2","2022-11-17 12:28:18","fd252370c17a9971d68c1d4354a03c2e","","Mozilla/5.0 (Macintosh; Intel Mac OS X 10_15_7) AppleWebKit/537.36 (KHTML, like Gecko) Chrome/107.0.0.0 Safari/537.36","Macintosh","Chrome","107.0.0.0","OS X","10_15_7","null","null","","<p style=""font-size: 48px;"">+</p>","2","Heavy_Contradictory","",""
"","","","","","picture","16640","image-keyboard-response","158","309792","0.0-6.0-3.30","94","2","2022-11-17 12:28:18","fd252370c17a9971d68c1d4354a03c2e","","Mozilla/5.0 (Macintosh; Intel Mac OS X 10_15_7) AppleWebKit/537.36 (KHTML, like Gecko) Chrome/107.0.0.0 Safari/537.36","Macintosh","Chrome","107.0.0.0","OS X","10_15_7","1446","s","","lampS.jpg","2","Heavy_Contradictory","true",""
"","","","","","fixation","16640","html-keyboard-response","159","310805","0.0-6.0-0.31","94","2","2022-11-17 12:28:18","fd252370c17a9971d68c1d4354a03c2e","","Mozilla/5.0 (Macintosh; Intel Mac OS X 10_15_7) AppleWebKit/537.36 (KHTML, like Gecko) Chrome/107.0.0.0 Safari/537.36","Macintosh","Chrome","107.0.0.0","OS X","10_15_7","null","null","","<p style=""font-size: 48px;"">+</p>","2","Filler","",""
"","","","","","sentence","16640","html-keyboard-response","160","312616","0.0-6.0-1.31","94","2","2022-11-17 12:28:18","fd252370c17a9971d68c1d4354a03c2e","","Mozilla/5.0 (Macintosh; Intel Mac OS X 10_15_7) AppleWebKit/537.36 (KHTML, like Gecko) Chrome/107.0.0.0 Safari/537.36","Macintosh","Chrome","107.0.0.0","OS X","10_15_7","1807"," ","","A woman is taking money out of a wallet","2","Filler","",""
"","","","","","fixation","16640","html-keyboard-response","161","313125","0.0-6.0-2.31","94","2","2022-11-17 12:28:18","fd252370c17a9971d68c1d4354a03c2e","","Mozilla/5.0 (Macintosh; Intel Mac OS X 10_15_7) AppleWebKit/537.36 (KHTML, like Gecko) Chrome/107.0.0.0 Safari/537.36","Macintosh","Chrome","107.0.0.0","OS X","10_15_7","null","null","","<p style=""font-size: 48px;"">+</p>","2","Filler","",""
"","","","","","picture","16640","image-keyboard-response","162","314216","0.0-6.0-3.31","94","2","2022-11-17 12:28:18","fd252370c17a9971d68c1d4354a03c2e","","Mozilla/5.0 (Macintosh; Intel Mac OS X 10_15_7) AppleWebKit/537.36 (KHTML, like Gecko) Chrome/107.0.0.0 Safari/537.36","Macintosh","Chrome","107.0.0.0","OS X","10_15_7","1086","n","","coconut.jpg","2","Filler","true",""
"","","","","","fixation","16640","html-keyboard-response","163","315221","0.0-6.0-0.32","94","2","2022-11-17 12:28:18","fd252370c17a9971d68c1d4354a03c2e","","Mozilla/5.0 (Macintosh; Intel Mac OS X 10_15_7) AppleWebKit/537.36 (KHTML, like Gecko) Chrome/107.0.0.0 Safari/537.36","Macintosh","Chrome","107.0.0.0","OS X","10_15_7","null","null","","<p style=""font-size: 48px;"">+</p>","2","Filler","",""
"","","","","","sentence","16640","html-keyboard-response","164","316720","0.0-6.0-1.32","94","2","2022-11-17 12:28:18","fd252370c17a9971d68c1d4354a03c2e","","Mozilla/5.0 (Macintosh; Intel Mac OS X 10_15_7) AppleWebKit/537.36 (KHTML, like Gecko) Chrome/107.0.0.0 Safari/537.36","Macintosh","Chrome","107.0.0.0","OS X","10_15_7","1495"," ","","A thief is stealing a wallet","2","Filler","",""
"","","","","","fixation","16640","html-keyboard-response","165","317229","0.0-6.0-2.32","94","2","2022-11-17 12:28:18","fd252370c17a9971d68c1d4354a03c2e","","Mozilla/5.0 (Macintosh; Intel Mac OS X 10_15_7) AppleWebKit/537.36 (KHTML, like Gecko) Chrome/107.0.0.0 Safari/537.36","Macintosh","Chrome","107.0.0.0","OS X","10_15_7","null","null","","<p style=""font-size: 48px;"">+</p>","2","Filler","",""
"","","","","","picture","16640","image-keyboard-response","166","318360","0.0-6.0-3.32","94","2","2022-11-17 12:28:18","fd252370c17a9971d68c1d4354a03c2e","","Mozilla/5.0 (Macintosh; Intel Mac OS X 10_15_7) AppleWebKit/537.36 (KHTML, like Gecko) Chrome/107.0.0.0 Safari/537.36","Macintosh","Chrome","107.0.0.0","OS X","10_15_7","1126","n","","teddybear.jpg","2","Filler","true",""
"","","","","","fixation","16640","html-keyboard-response","167","319369","0.0-6.0-0.33","94","2","2022-11-17 12:28:18","fd252370c17a9971d68c1d4354a03c2e","","Mozilla/5.0 (Macintosh; Intel Mac OS X 10_15_7) AppleWebKit/537.36 (KHTML, like Gecko) Chrome/107.0.0.0 Safari/537.36","Macintosh","Chrome","107.0.0.0","OS X","10_15_7","null","null","","<p style=""font-size: 48px;"">+</p>","2","Filler","",""
"","","","","","sentence","16640","html-keyboard-response","168","320296","0.0-6.0-1.33","94","2","2022-11-17 12:28:18","fd252370c17a9971d68c1d4354a03c2e","","Mozilla/5.0 (Macintosh; Intel Mac OS X 10_15_7) AppleWebKit/537.36 (KHTML, like Gecko) Chrome/107.0.0.0 Safari/537.36","Macintosh","Chrome","107.0.0.0","OS X","10_15_7","922"," ","","A donkey is drinking water.","2","Filler","",""
"","","","","","fixation","16640","html-keyboard-response","169","320805","0.0-6.0-2.33","94","2","2022-11-17 12:28:18","fd252370c17a9971d68c1d4354a03c2e","","Mozilla/5.0 (Macintosh; Intel Mac OS X 10_15_7) AppleWebKit/537.36 (KHTML, like Gecko) Chrome/107.0.0.0 Safari/537.36","Macintosh","Chrome","107.0.0.0","OS X","10_15_7","null","null","","<p style=""font-size: 48px;"">+</p>","2","Filler","",""
"","","","","","picture","16640","image-keyboard-response","170","321944","0.0-6.0-3.33","94","2","2022-11-17 12:28:18","fd252370c17a9971d68c1d4354a03c2e","","Mozilla/5.0 (Macintosh; Intel Mac OS X 10_15_7) AppleWebKit/537.36 (KHTML, like Gecko) Chrome/107.0.0.0 Safari/537.36","Macintosh","Chrome","107.0.0.0","OS X","10_15_7","1134","n","","couch.jpg","2","Filler","true",""
"","","","","","fixation","16640","html-keyboard-response","171","322957","0.0-6.0-0.34","94","2","2022-11-17 12:28:18","fd252370c17a9971d68c1d4354a03c2e","","Mozilla/5.0 (Macintosh; Intel Mac OS X 10_15_7) AppleWebKit/537.36 (KHTML, like Gecko) Chrome/107.0.0.0 Safari/537.36","Macintosh","Chrome","107.0.0.0","OS X","10_15_7","null","null","","<p style=""font-size: 48px;"">+</p>","2","Filler","",""
"","","","","","sentence","16640","html-keyboard-response","172","324176","0.0-6.0-1.34","94","2","2022-11-17 12:28:18","fd252370c17a9971d68c1d4354a03c2e","","Mozilla/5.0 (Macintosh; Intel Mac OS X 10_15_7) AppleWebKit/537.36 (KHTML, like Gecko) Chrome/107.0.0.0 Safari/537.36","Macintosh","Chrome","107.0.0.0","OS X","10_15_7","1215"," ","","A parrot is eating an apple","2","Filler","",""
"","","","","","fixation","16640","html-keyboard-response","173","324685","0.0-6.0-2.34","94","2","2022-11-17 12:28:18","fd252370c17a9971d68c1d4354a03c2e","","Mozilla/5.0 (Macintosh; Intel Mac OS X 10_15_7) AppleWebKit/537.36 (KHTML, like Gecko) Chrome/107.0.0.0 Safari/537.36","Macintosh","Chrome","107.0.0.0","OS X","10_15_7","null","null","","<p style=""font-size: 48px;"">+</p>","2","Filler","",""
"","","","","","picture","16640","image-keyboard-response","174","325673","0.0-6.0-3.34","94","2","2022-11-17 12:28:18","fd252370c17a9971d68c1d4354a03c2e","","Mozilla/5.0 (Macintosh; Intel Mac OS X 10_15_7) AppleWebKit/537.36 (KHTML, like Gecko) Chrome/107.0.0.0 Safari/537.36","Macintosh","Chrome","107.0.0.0","OS X","10_15_7","983","n","","shirt.jpg","2","Filler","true",""
"","","","","","fixation","16640","html-keyboard-response","175","326685","0.0-6.0-0.35","94","2","2022-11-17 12:28:18","fd252370c17a9971d68c1d4354a03c2e","","Mozilla/5.0 (Macintosh; Intel Mac OS X 10_15_7) AppleWebKit/537.36 (KHTML, like Gecko) Chrome/107.0.0.0 Safari/537.36","Macintosh","Chrome","107.0.0.0","OS X","10_15_7","null","null","","<p style=""font-size: 48px;"">+</p>","2","Filler","",""
"","","","","","sentence","16640","html-keyboard-response","176","327856","0.0-6.0-1.35","94","2","2022-11-17 12:28:18","fd252370c17a9971d68c1d4354a03c2e","","Mozilla/5.0 (Macintosh; Intel Mac OS X 10_15_7) AppleWebKit/537.36 (KHTML, like Gecko) Chrome/107.0.0.0 Safari/537.36","Macintosh","Chrome","107.0.0.0","OS X","10_15_7","1167"," ","","A postman is driving a car","2","Filler","",""
"","","","","","fixation","16640","html-keyboard-response","177","328370","0.0-6.0-2.35","94","2","2022-11-17 12:28:18","fd252370c17a9971d68c1d4354a03c2e","","Mozilla/5.0 (Macintosh; Intel Mac OS X 10_15_7) AppleWebKit/537.36 (KHTML, like Gecko) Chrome/107.0.0.0 Safari/537.36","Macintosh","Chrome","107.0.0.0","OS X","10_15_7","null","null","","<p style=""font-size: 48px;"">+</p>","2","Filler","",""
"","","","","","picture","16640","image-keyboard-response","178","330232","0.0-6.0-3.35","94","2","2022-11-17 12:28:18","fd252370c17a9971d68c1d4354a03c2e","","Mozilla/5.0 (Macintosh; Intel Mac OS X 10_15_7) AppleWebKit/537.36 (KHTML, like Gecko) Chrome/107.0.0.0 Safari/537.36","Macintosh","Chrome","107.0.0.0","OS X","10_15_7","1858","s","","car.jpg","2","Filler","true",""
"","","","","","fixation","16640","html-keyboard-response","179","331246","0.0-6.0-0.36","94","2","2022-11-17 12:28:18","fd252370c17a9971d68c1d4354a03c2e","","Mozilla/5.0 (Macintosh; Intel Mac OS X 10_15_7) AppleWebKit/537.36 (KHTML, like Gecko) Chrome/107.0.0.0 Safari/537.36","Macintosh","Chrome","107.0.0.0","OS X","10_15_7","null","null","","<p style=""font-size: 48px;"">+</p>","2","Filler","",""
"","","","","","sentence","16640","html-keyboard-response","180","333288","0.0-6.0-1.36","94","2","2022-11-17 12:28:18","fd252370c17a9971d68c1d4354a03c2e","","Mozilla/5.0 (Macintosh; Intel Mac OS X 10_15_7) AppleWebKit/537.36 (KHTML, like Gecko) Chrome/107.0.0.0 Safari/537.36","Macintosh","Chrome","107.0.0.0","OS X","10_15_7","2038"," ","","An actress is taking a microphone","2","Filler","",""
"","","","","","fixation","16640","html-keyboard-response","181","333797","0.0-6.0-2.36","94","2","2022-11-17 12:28:18","fd252370c17a9971d68c1d4354a03c2e","","Mozilla/5.0 (Macintosh; Intel Mac OS X 10_15_7) AppleWebKit/537.36 (KHTML, like Gecko) Chrome/107.0.0.0 Safari/537.36","Macintosh","Chrome","107.0.0.0","OS X","10_15_7","null","null","","<p style=""font-size: 48px;"">+</p>","2","Filler","",""
"","","","","","picture","16640","image-keyboard-response","182","335009","0.0-6.0-3.36","94","2","2022-11-17 12:28:18","fd252370c17a9971d68c1d4354a03c2e","","Mozilla/5.0 (Macintosh; Intel Mac OS X 10_15_7) AppleWebKit/537.36 (KHTML, like Gecko) Chrome/107.0.0.0 Safari/537.36","Macintosh","Chrome","107.0.0.0","OS X","10_15_7","1206","n","","pants.jpg","2","Filler","true",""
"","","","","","fixation","16640","html-keyboard-response","183","336023","0.0-6.0-0.37","94","2","2022-11-17 12:28:18","fd252370c17a9971d68c1d4354a03c2e","","Mozilla/5.0 (Macintosh; Intel Mac OS X 10_15_7) AppleWebKit/537.36 (KHTML, like Gecko) Chrome/107.0.0.0 Safari/537.36","Macintosh","Chrome","107.0.0.0","OS X","10_15_7","null","null","","<p style=""font-size: 48px;"">+</p>","2","Filler","",""
"","","","","","sentence","16640","html-keyboard-response","184","336248","0.0-6.0-1.37","94","2","2022-11-17 12:28:18","fd252370c17a9971d68c1d4354a03c2e","","Mozilla/5.0 (Macintosh; Intel Mac OS X 10_15_7) AppleWebKit/537.36 (KHTML, like Gecko) Chrome/107.0.0.0 Safari/537.36","Macintosh","Chrome","107.0.0.0","OS X","10_15_7","220"," ","","A keyboard was placed on the bed","2","Filler","",""
"","","","","","fixation","16640","html-keyboard-response","185","336757","0.0-6.0-2.37","94","2","2022-11-17 12:28:18","fd252370c17a9971d68c1d4354a03c2e","","Mozilla/5.0 (Macintosh; Intel Mac OS X 10_15_7) AppleWebKit/537.36 (KHTML, like Gecko) Chrome/107.0.0.0 Safari/537.36","Macintosh","Chrome","107.0.0.0","OS X","10_15_7","null","null","","<p style=""font-size: 48px;"">+</p>","2","Filler","",""
"","","","","","picture","16640","image-keyboard-response","186","339537","0.0-6.0-3.37","94","2","2022-11-17 12:28:18","fd252370c17a9971d68c1d4354a03c2e","","Mozilla/5.0 (Macintosh; Intel Mac OS X 10_15_7) AppleWebKit/537.36 (KHTML, like Gecko) Chrome/107.0.0.0 Safari/537.36","Macintosh","Chrome","107.0.0.0","OS X","10_15_7","2774","n","","bottlecap.jpg","2","Filler","true",""
"","","","","","fixation","16640","html-keyboard-response","187","340549","0.0-6.0-0.38","94","2","2022-11-17 12:28:18","fd252370c17a9971d68c1d4354a03c2e","","Mozilla/5.0 (Macintosh; Intel Mac OS X 10_15_7) AppleWebKit/537.36 (KHTML, like Gecko) Chrome/107.0.0.0 Safari/537.36","Macintosh","Chrome","107.0.0.0","OS X","10_15_7","null","null","","<p style=""font-size: 48px;"">+</p>","2","Filler","",""
"","","","","","sentence","16640","html-keyboard-response","188","342697","0.0-6.0-1.38","94","2","2022-11-17 12:28:18","fd252370c17a9971d68c1d4354a03c2e","","Mozilla/5.0 (Macintosh; Intel Mac OS X 10_15_7) AppleWebKit/537.36 (KHTML, like Gecko) Chrome/107.0.0.0 Safari/537.36","Macintosh","Chrome","107.0.0.0","OS X","10_15_7","2142"," ","","A man is playing with a cat","2","Filler","",""
"","","","","","fixation","16640","html-keyboard-response","189","343205","0.0-6.0-2.38","94","2","2022-11-17 12:28:18","fd252370c17a9971d68c1d4354a03c2e","","Mozilla/5.0 (Macintosh; Intel Mac OS X 10_15_7) AppleWebKit/537.36 (KHTML, like Gecko) Chrome/107.0.0.0 Safari/537.36","Macintosh","Chrome","107.0.0.0","OS X","10_15_7","null","null","","<p style=""font-size: 48px;"">+</p>","2","Filler","",""
"","","","","","picture","16640","image-keyboard-response","190","344376","0.0-6.0-3.38","94","2","2022-11-17 12:28:18","fd252370c17a9971d68c1d4354a03c2e","","Mozilla/5.0 (Macintosh; Intel Mac OS X 10_15_7) AppleWebKit/537.36 (KHTML, like Gecko) Chrome/107.0.0.0 Safari/537.36","Macintosh","Chrome","107.0.0.0","OS X","10_15_7","1165","n","","ceramicplate.jpg","2","Filler","true",""
"","","","","","fixation","16640","html-keyboard-response","191","345389","0.0-6.0-0.39","94","2","2022-11-17 12:28:18","fd252370c17a9971d68c1d4354a03c2e","","Mozilla/5.0 (Macintosh; Intel Mac OS X 10_15_7) AppleWebKit/537.36 (KHTML, like Gecko) Chrome/107.0.0.0 Safari/537.36","Macintosh","Chrome","107.0.0.0","OS X","10_15_7","null","null","","<p style=""font-size: 48px;"">+</p>","2","Filler","",""
"","","","","","sentence","16640","html-keyboard-response","192","346832","0.0-6.0-1.39","94","2","2022-11-17 12:28:18","fd252370c17a9971d68c1d4354a03c2e","","Mozilla/5.0 (Macintosh; Intel Mac OS X 10_15_7) AppleWebKit/537.36 (KHTML, like Gecko) Chrome/107.0.0.0 Safari/537.36","Macintosh","Chrome","107.0.0.0","OS X","10_15_7","1438"," ","","A police officer is talking on the phone","2","Filler","",""
"","","","","","fixation","16640","html-keyboard-response","193","347341","0.0-6.0-2.39","94","2","2022-11-17 12:28:18","fd252370c17a9971d68c1d4354a03c2e","","Mozilla/5.0 (Macintosh; Intel Mac OS X 10_15_7) AppleWebKit/537.36 (KHTML, like Gecko) Chrome/107.0.0.0 Safari/537.36","Macintosh","Chrome","107.0.0.0","OS X","10_15_7","null","null","","<p style=""font-size: 48px;"">+</p>","2","Filler","",""
"","","","","","picture","16640","image-keyboard-response","194","348777","0.0-6.0-3.39","94","2","2022-11-17 12:28:18","fd252370c17a9971d68c1d4354a03c2e","","Mozilla/5.0 (Macintosh; Intel Mac OS X 10_15_7) AppleWebKit/537.36 (KHTML, like Gecko) Chrome/107.0.0.0 Safari/537.36","Macintosh","Chrome","107.0.0.0","OS X","10_15_7","1430","n","","tissuebox.jpg","2","Filler","true",""
"","","","","","fixation","16640","html-keyboard-response","195","349789","0.0-6.0-0.40","94","2","2022-11-17 12:28:18","fd252370c17a9971d68c1d4354a03c2e","","Mozilla/5.0 (Macintosh; Intel Mac OS X 10_15_7) AppleWebKit/537.36 (KHTML, like Gecko) Chrome/107.0.0.0 Safari/537.36","Macintosh","Chrome","107.0.0.0","OS X","10_15_7","null","null","","<p style=""font-size: 48px;"">+</p>","2","Filler","",""
"","","","","","sentence","16640","html-keyboard-response","196","351776","0.0-6.0-1.40","94","2","2022-11-17 12:28:18","fd252370c17a9971d68c1d4354a03c2e","","Mozilla/5.0 (Macintosh; Intel Mac OS X 10_15_7) AppleWebKit/537.36 (KHTML, like Gecko) Chrome/107.0.0.0 Safari/537.36","Macintosh","Chrome","107.0.0.0","OS X","10_15_7","1982"," ","","An astronaut is putting on a space suit","2","Filler","",""
"","","","","","fixation","16640","html-keyboard-response","197","352285","0.0-6.0-2.40","94","2","2022-11-17 12:28:18","fd252370c17a9971d68c1d4354a03c2e","","Mozilla/5.0 (Macintosh; Intel Mac OS X 10_15_7) AppleWebKit/537.36 (KHTML, like Gecko) Chrome/107.0.0.0 Safari/537.36","Macintosh","Chrome","107.0.0.0","OS X","10_15_7","null","null","","<p style=""font-size: 48px;"">+</p>","2","Filler","",""
"","","","","","picture","16640","image-keyboard-response","198","353448","0.0-6.0-3.40","94","2","2022-11-17 12:28:18","fd252370c17a9971d68c1d4354a03c2e","","Mozilla/5.0 (Macintosh; Intel Mac OS X 10_15_7) AppleWebKit/537.36 (KHTML, like Gecko) Chrome/107.0.0.0 Safari/537.36","Macintosh","Chrome","107.0.0.0","OS X","10_15_7","1156","s","","spacesuit.jpg","2","Filler","true",""
"","","","","","fixation","16640","html-keyboard-response","199","354461","0.0-6.0-0.41","94","2","2022-11-17 12:28:18","fd252370c17a9971d68c1d4354a03c2e","","Mozilla/5.0 (Macintosh; Intel Mac OS X 10_15_7) AppleWebKit/537.36 (KHTML, like Gecko) Chrome/107.0.0.0 Safari/537.36","Macintosh","Chrome","107.0.0.0","OS X","10_15_7","null","null","","<p style=""font-size: 48px;"">+</p>","2","Filler","",""
"","","","","","sentence","16640","html-keyboard-response","200","355824","0.0-6.0-1.41","94","2","2022-11-17 12:28:18","fd252370c17a9971d68c1d4354a03c2e","","Mozilla/5.0 (Macintosh; Intel Mac OS X 10_15_7) AppleWebKit/537.36 (KHTML, like Gecko) Chrome/107.0.0.0 Safari/537.36","Macintosh","Chrome","107.0.0.0","OS X","10_15_7","1357"," ","","A towel was placed on the TV","2","Filler","",""
"","","","","","fixation","16640","html-keyboard-response","201","356333","0.0-6.0-2.41","94","2","2022-11-17 12:28:18","fd252370c17a9971d68c1d4354a03c2e","","Mozilla/5.0 (Macintosh; Intel Mac OS X 10_15_7) AppleWebKit/537.36 (KHTML, like Gecko) Chrome/107.0.0.0 Safari/537.36","Macintosh","Chrome","107.0.0.0","OS X","10_15_7","null","null","","<p style=""font-size: 48px;"">+</p>","2","Filler","",""
"","","","","","picture","16640","image-keyboard-response","202","357328","0.0-6.0-3.41","94","2","2022-11-17 12:28:18","fd252370c17a9971d68c1d4354a03c2e","","Mozilla/5.0 (Macintosh; Intel Mac OS X 10_15_7) AppleWebKit/537.36 (KHTML, like Gecko) Chrome/107.0.0.0 Safari/537.36","Macintosh","Chrome","107.0.0.0","OS X","10_15_7","989","n","","pencil.jpg","2","Filler","true",""
"","","","","","fixation","16640","html-keyboard-response","203","358341","0.0-6.0-0.42","94","2","2022-11-17 12:28:18","fd252370c17a9971d68c1d4354a03c2e","","Mozilla/5.0 (Macintosh; Intel Mac OS X 10_15_7) AppleWebKit/537.36 (KHTML, like Gecko) Chrome/107.0.0.0 Safari/537.36","Macintosh","Chrome","107.0.0.0","OS X","10_15_7","null","null","","<p style=""font-size: 48px;"">+</p>","2","Filler","",""
"","","","","","sentence","16640","html-keyboard-response","204","359968","0.0-6.0-1.42","94","2","2022-11-17 12:28:18","fd252370c17a9971d68c1d4354a03c2e","","Mozilla/5.0 (Macintosh; Intel Mac OS X 10_15_7) AppleWebKit/537.36 (KHTML, like Gecko) Chrome/107.0.0.0 Safari/537.36","Macintosh","Chrome","107.0.0.0","OS X","10_15_7","1621"," ","","A remote was placed on the rug","2","Filler","",""
"","","","","","fixation","16640","html-keyboard-response","205","360477","0.0-6.0-2.42","94","2","2022-11-17 12:28:18","fd252370c17a9971d68c1d4354a03c2e","","Mozilla/5.0 (Macintosh; Intel Mac OS X 10_15_7) AppleWebKit/537.36 (KHTML, like Gecko) Chrome/107.0.0.0 Safari/537.36","Macintosh","Chrome","107.0.0.0","OS X","10_15_7","null","null","","<p style=""font-size: 48px;"">+</p>","2","Filler","",""
"","","","","","picture","16640","image-keyboard-response","206","361640","0.0-6.0-3.42","94","2","2022-11-17 12:28:18","fd252370c17a9971d68c1d4354a03c2e","","Mozilla/5.0 (Macintosh; Intel Mac OS X 10_15_7) AppleWebKit/537.36 (KHTML, like Gecko) Chrome/107.0.0.0 Safari/537.36","Macintosh","Chrome","107.0.0.0","OS X","10_15_7","1156","n","","CD.jpg","2","Filler","true",""
"","","","","","fixation","16640","html-keyboard-response","207","362653","0.0-6.0-0.43","94","2","2022-11-17 12:28:18","fd252370c17a9971d68c1d4354a03c2e","","Mozilla/5.0 (Macintosh; Intel Mac OS X 10_15_7) AppleWebKit/537.36 (KHTML, like Gecko) Chrome/107.0.0.0 Safari/537.36","Macintosh","Chrome","107.0.0.0","OS X","10_15_7","null","null","","<p style=""font-size: 48px;"">+</p>","2","Filler","",""
"","","","","","sentence","16640","html-keyboard-response","208","363864","0.0-6.0-1.43","94","2","2022-11-17 12:28:18","fd252370c17a9971d68c1d4354a03c2e","","Mozilla/5.0 (Macintosh; Intel Mac OS X 10_15_7) AppleWebKit/537.36 (KHTML, like Gecko) Chrome/107.0.0.0 Safari/537.36","Macintosh","Chrome","107.0.0.0","OS X","10_15_7","1206"," ","","A mouse is eating cheese","2","Filler","",""
"","","","","","fixation","16640","html-keyboard-response","209","364373","0.0-6.0-2.43","94","2","2022-11-17 12:28:18","fd252370c17a9971d68c1d4354a03c2e","","Mozilla/5.0 (Macintosh; Intel Mac OS X 10_15_7) AppleWebKit/537.36 (KHTML, like Gecko) Chrome/107.0.0.0 Safari/537.36","Macintosh","Chrome","107.0.0.0","OS X","10_15_7","null","null","","<p style=""font-size: 48px;"">+</p>","2","Filler","",""
"","","","","","picture","16640","image-keyboard-response","210","365504","0.0-6.0-3.43","94","2","2022-11-17 12:28:18","fd252370c17a9971d68c1d4354a03c2e","","Mozilla/5.0 (Macintosh; Intel Mac OS X 10_15_7) AppleWebKit/537.36 (KHTML, like Gecko) Chrome/107.0.0.0 Safari/537.36","Macintosh","Chrome","107.0.0.0","OS X","10_15_7","1125","n","","ring.jpg","2","Filler","true",""
"","","","","","fixation","16640","html-keyboard-response","211","366517","0.0-6.0-0.44","94","2","2022-11-17 12:28:18","fd252370c17a9971d68c1d4354a03c2e","","Mozilla/5.0 (Macintosh; Intel Mac OS X 10_15_7) AppleWebKit/537.36 (KHTML, like Gecko) Chrome/107.0.0.0 Safari/537.36","Macintosh","Chrome","107.0.0.0","OS X","10_15_7","null","null","","<p style=""font-size: 48px;"">+</p>","2","Filler","",""
"","","","","","sentence","16640","html-keyboard-response","212","368312","0.0-6.0-1.44","94","2","2022-11-17 12:28:18","fd252370c17a9971d68c1d4354a03c2e","","Mozilla/5.0 (Macintosh; Intel Mac OS X 10_15_7) AppleWebKit/537.36 (KHTML, like Gecko) Chrome/107.0.0.0 Safari/537.36","Macintosh","Chrome","107.0.0.0","OS X","10_15_7","1789"," ","","A cushion was placed on the magazine","2","Filler","",""
"","","","","","fixation","16640","html-keyboard-response","213","368821","0.0-6.0-2.44","94","2","2022-11-17 12:28:18","fd252370c17a9971d68c1d4354a03c2e","","Mozilla/5.0 (Macintosh; Intel Mac OS X 10_15_7) AppleWebKit/537.36 (KHTML, like Gecko) Chrome/107.0.0.0 Safari/537.36","Macintosh","Chrome","107.0.0.0","OS X","10_15_7","null","null","","<p style=""font-size: 48px;"">+</p>","2","Filler","",""
"","","","","","picture","16640","image-keyboard-response","214","370416","0.0-6.0-3.44","94","2","2022-11-17 12:28:18","fd252370c17a9971d68c1d4354a03c2e","","Mozilla/5.0 (Macintosh; Intel Mac OS X 10_15_7) AppleWebKit/537.36 (KHTML, like Gecko) Chrome/107.0.0.0 Safari/537.36","Macintosh","Chrome","107.0.0.0","OS X","10_15_7","1589","n","","box.jpg","2","Filler","true",""
"","","","","","fixation","16640","html-keyboard-response","215","371429","0.0-6.0-0.45","94","2","2022-11-17 12:28:18","fd252370c17a9971d68c1d4354a03c2e","","Mozilla/5.0 (Macintosh; Intel Mac OS X 10_15_7) AppleWebKit/537.36 (KHTML, like Gecko) Chrome/107.0.0.0 Safari/537.36","Macintosh","Chrome","107.0.0.0","OS X","10_15_7","null","null","","<p style=""font-size: 48px;"">+</p>","2","Filler","",""
"","","","","","sentence","16640","html-keyboard-response","216","373408","0.0-6.0-1.45","94","2","2022-11-17 12:28:18","fd252370c17a9971d68c1d4354a03c2e","","Mozilla/5.0 (Macintosh; Intel Mac OS X 10_15_7) AppleWebKit/537.36 (KHTML, like Gecko) Chrome/107.0.0.0 Safari/537.36","Macintosh","Chrome","107.0.0.0","OS X","10_15_7","1972"," ","","A butterfly is sitting on a flower","2","Filler","",""
"","","","","","fixation","16640","html-keyboard-response","217","373917","0.0-6.0-2.45","94","2","2022-11-17 12:28:18","fd252370c17a9971d68c1d4354a03c2e","","Mozilla/5.0 (Macintosh; Intel Mac OS X 10_15_7) AppleWebKit/537.36 (KHTML, like Gecko) Chrome/107.0.0.0 Safari/537.36","Macintosh","Chrome","107.0.0.0","OS X","10_15_7","null","null","","<p style=""font-size: 48px;"">+</p>","2","Filler","",""
"","","","","","picture","16640","image-keyboard-response","218","375017","0.0-6.0-3.45","94","2","2022-11-17 12:28:18","fd252370c17a9971d68c1d4354a03c2e","","Mozilla/5.0 (Macintosh; Intel Mac OS X 10_15_7) AppleWebKit/537.36 (KHTML, like Gecko) Chrome/107.0.0.0 Safari/537.36","Macintosh","Chrome","107.0.0.0","OS X","10_15_7","1093","n","","soap.jpg","2","Filler","true",""
"","","","","","fixation","16640","html-keyboard-response","219","376029","0.0-6.0-0.46","94","2","2022-11-17 12:28:18","fd252370c17a9971d68c1d4354a03c2e","","Mozilla/5.0 (Macintosh; Intel Mac OS X 10_15_7) AppleWebKit/537.36 (KHTML, like Gecko) Chrome/107.0.0.0 Safari/537.36","Macintosh","Chrome","107.0.0.0","OS X","10_15_7","null","null","","<p style=""font-size: 48px;"">+</p>","2","Light_Contradictory","",""
"","","","","","sentence","16640","html-keyboard-response","220","378472","0.0-6.0-1.46","94","2","2022-11-17 12:28:18","fd252370c17a9971d68c1d4354a03c2e","","Mozilla/5.0 (Macintosh; Intel Mac OS X 10_15_7) AppleWebKit/537.36 (KHTML, like Gecko) Chrome/107.0.0.0 Safari/537.36","Macintosh","Chrome","107.0.0.0","OS X","10_15_7","2437"," ","","A balloon dropped and smashed a porcelain figure","2","Light_Contradictory","",""
"","","","","","fixation","16640","html-keyboard-response","221","378981","0.0-6.0-2.46","94","2","2022-11-17 12:28:18","fd252370c17a9971d68c1d4354a03c2e","","Mozilla/5.0 (Macintosh; Intel Mac OS X 10_15_7) AppleWebKit/537.36 (KHTML, like Gecko) Chrome/107.0.0.0 Safari/537.36","Macintosh","Chrome","107.0.0.0","OS X","10_15_7","null","null","","<p style=""font-size: 48px;"">+</p>","2","Light_Contradictory","",""
"","","","","","picture","16640","image-keyboard-response","222","381256","0.0-6.0-3.46","94","2","2022-11-17 12:28:18","fd252370c17a9971d68c1d4354a03c2e","","Mozilla/5.0 (Macintosh; Intel Mac OS X 10_15_7) AppleWebKit/537.36 (KHTML, like Gecko) Chrome/107.0.0.0 Safari/537.36","Macintosh","Chrome","107.0.0.0","OS X","10_15_7","2268","s","","figureS.jpg","2","Light_Contradictory","true",""
"","","","","","fixation","16640","html-keyboard-response","223","382269","0.0-6.0-0.47","94","2","2022-11-17 12:28:18","fd252370c17a9971d68c1d4354a03c2e","","Mozilla/5.0 (Macintosh; Intel Mac OS X 10_15_7) AppleWebKit/537.36 (KHTML, like Gecko) Chrome/107.0.0.0 Safari/537.36","Macintosh","Chrome","107.0.0.0","OS X","10_15_7","null","null","","<p style=""font-size: 48px;"">+</p>","2","Filler","",""
"","","","","","sentence","16640","html-keyboard-response","224","383968","0.0-6.0-1.47","94","2","2022-11-17 12:28:18","fd252370c17a9971d68c1d4354a03c2e","","Mozilla/5.0 (Macintosh; Intel Mac OS X 10_15_7) AppleWebKit/537.36 (KHTML, like Gecko) Chrome/107.0.0.0 Safari/537.36","Macintosh","Chrome","107.0.0.0","OS X","10_15_7","1693"," ","","An elephant is eating a watermelon","2","Filler","",""
"","","","","","fixation","16640","html-keyboard-response","225","384477","0.0-6.0-2.47","94","2","2022-11-17 12:28:18","fd252370c17a9971d68c1d4354a03c2e","","Mozilla/5.0 (Macintosh; Intel Mac OS X 10_15_7) AppleWebKit/537.36 (KHTML, like Gecko) Chrome/107.0.0.0 Safari/537.36","Macintosh","Chrome","107.0.0.0","OS X","10_15_7","null","null","","<p style=""font-size: 48px;"">+</p>","2","Filler","",""
"","","","","","picture","16640","image-keyboard-response","226","385992","0.0-6.0-3.47","94","2","2022-11-17 12:28:18","fd252370c17a9971d68c1d4354a03c2e","","Mozilla/5.0 (Macintosh; Intel Mac OS X 10_15_7) AppleWebKit/537.36 (KHTML, like Gecko) Chrome/107.0.0.0 Safari/537.36","Macintosh","Chrome","107.0.0.0","OS X","10_15_7","1508","s","","watermelon.jpg","2","Filler","true",""
"","","","","","fixation","16640","html-keyboard-response","227","387005","0.0-6.0-0.48","94","2","2022-11-17 12:28:18","fd252370c17a9971d68c1d4354a03c2e","","Mozilla/5.0 (Macintosh; Intel Mac OS X 10_15_7) AppleWebKit/537.36 (KHTML, like Gecko) Chrome/107.0.0.0 Safari/537.36","Macintosh","Chrome","107.0.0.0","OS X","10_15_7","null","null","","<p style=""font-size: 48px;"">+</p>","2","Filler","",""
"","","","","","sentence","16640","html-keyboard-response","228","390935","0.0-6.0-1.48","94","2","2022-11-17 12:28:18","fd252370c17a9971d68c1d4354a03c2e","","Mozilla/5.0 (Macintosh; Intel Mac OS X 10_15_7) AppleWebKit/537.36 (KHTML, like Gecko) Chrome/107.0.0.0 Safari/537.36","Macintosh","Chrome","107.0.0.0","OS X","10_15_7","3921"," ","","A watch was placed on the laptop","2","Filler","",""
"","","","","","fixation","16640","html-keyboard-response","229","391445","0.0-6.0-2.48","94","2","2022-11-17 12:28:18","fd252370c17a9971d68c1d4354a03c2e","","Mozilla/5.0 (Macintosh; Intel Mac OS X 10_15_7) AppleWebKit/537.36 (KHTML, like Gecko) Chrome/107.0.0.0 Safari/537.36","Macintosh","Chrome","107.0.0.0","OS X","10_15_7","null","null","","<p style=""font-size: 48px;"">+</p>","2","Filler","",""
"","","","","","picture","16640","image-keyboard-response","230","392495","0.0-6.0-3.48","94","2","2022-11-17 12:28:18","fd252370c17a9971d68c1d4354a03c2e","","Mozilla/5.0 (Macintosh; Intel Mac OS X 10_15_7) AppleWebKit/537.36 (KHTML, like Gecko) Chrome/107.0.0.0 Safari/537.36","Macintosh","Chrome","107.0.0.0","OS X","10_15_7","1043","n","","bow.jpg","2","Filler","true",""
"","","","","","fixation","16640","html-keyboard-response","231","393512","0.0-6.0-0.49","94","2","2022-11-17 12:28:18","fd252370c17a9971d68c1d4354a03c2e","","Mozilla/5.0 (Macintosh; Intel Mac OS X 10_15_7) AppleWebKit/537.36 (KHTML, like Gecko) Chrome/107.0.0.0 Safari/537.36","Macintosh","Chrome","107.0.0.0","OS X","10_15_7","null","null","","<p style=""font-size: 48px;"">+</p>","2","Filler","",""
"","","","","","sentence","16640","html-keyboard-response","232","395391","0.0-6.0-1.49","94","2","2022-11-17 12:28:18","fd252370c17a9971d68c1d4354a03c2e","","Mozilla/5.0 (Macintosh; Intel Mac OS X 10_15_7) AppleWebKit/537.36 (KHTML, like Gecko) Chrome/107.0.0.0 Safari/537.36","Macintosh","Chrome","107.0.0.0","OS X","10_15_7","1873"," ","","A giraffe is playing with a zebra","2","Filler","",""
"","","","","","fixation","16640","html-keyboard-response","233","395900","0.0-6.0-2.49","94","2","2022-11-17 12:28:18","fd252370c17a9971d68c1d4354a03c2e","","Mozilla/5.0 (Macintosh; Intel Mac OS X 10_15_7) AppleWebKit/537.36 (KHTML, like Gecko) Chrome/107.0.0.0 Safari/537.36","Macintosh","Chrome","107.0.0.0","OS X","10_15_7","null","null","","<p style=""font-size: 48px;"">+</p>","2","Filler","",""
"","","","","","picture","16640","image-keyboard-response","234","396880","0.0-6.0-3.49","94","2","2022-11-17 12:28:18","fd252370c17a9971d68c1d4354a03c2e","","Mozilla/5.0 (Macintosh; Intel Mac OS X 10_15_7) AppleWebKit/537.36 (KHTML, like Gecko) Chrome/107.0.0.0 Safari/537.36","Macintosh","Chrome","107.0.0.0","OS X","10_15_7","973","n","","wallet.jpg","2","Filler","true",""
"","","","","","fixation","16640","html-keyboard-response","235","397892","0.0-6.0-0.50","94","2","2022-11-17 12:28:18","fd252370c17a9971d68c1d4354a03c2e","","Mozilla/5.0 (Macintosh; Intel Mac OS X 10_15_7) AppleWebKit/537.36 (KHTML, like Gecko) Chrome/107.0.0.0 Safari/537.36","Macintosh","Chrome","107.0.0.0","OS X","10_15_7","null","null","","<p style=""font-size: 48px;"">+</p>","2","Heavy_Matched","",""
"","","","","","sentence","16640","html-keyboard-response","236","400023","0.0-6.0-1.50","94","2","2022-11-17 12:28:18","fd252370c17a9971d68c1d4354a03c2e","","Mozilla/5.0 (Macintosh; Intel Mac OS X 10_15_7) AppleWebKit/537.36 (KHTML, like Gecko) Chrome/107.0.0.0 Safari/537.36","Macintosh","Chrome","107.0.0.0","OS X","10_15_7","2126"," ","","A bowling ball dropped and smashed a blackberry","2","Heavy_Matched","",""
"","","","","","fixation","16640","html-keyboard-response","237","400532","0.0-6.0-2.50","94","2","2022-11-17 12:28:18","fd252370c17a9971d68c1d4354a03c2e","","Mozilla/5.0 (Macintosh; Intel Mac OS X 10_15_7) AppleWebKit/537.36 (KHTML, like Gecko) Chrome/107.0.0.0 Safari/537.36","Macintosh","Chrome","107.0.0.0","OS X","10_15_7","null","null","","<p style=""font-size: 48px;"">+</p>","2","Heavy_Matched","",""
"","","","","","picture","16640","image-keyboard-response","238","402327","0.0-6.0-3.50","94","2","2022-11-17 12:28:18","fd252370c17a9971d68c1d4354a03c2e","","Mozilla/5.0 (Macintosh; Intel Mac OS X 10_15_7) AppleWebKit/537.36 (KHTML, like Gecko) Chrome/107.0.0.0 Safari/537.36","Macintosh","Chrome","107.0.0.0","OS X","10_15_7","1789","s","","blackberryS.jpg","2","Heavy_Matched","true",""
"","","","","","fixation","16640","html-keyboard-response","239","403340","0.0-6.0-0.51","94","2","2022-11-17 12:28:18","fd252370c17a9971d68c1d4354a03c2e","","Mozilla/5.0 (Macintosh; Intel Mac OS X 10_15_7) AppleWebKit/537.36 (KHTML, like Gecko) Chrome/107.0.0.0 Safari/537.36","Macintosh","Chrome","107.0.0.0","OS X","10_15_7","null","null","","<p style=""font-size: 48px;"">+</p>","2","Filler","",""
"","","","","","sentence","16640","html-keyboard-response","240","405167","0.0-6.0-1.51","94","2","2022-11-17 12:28:18","fd252370c17a9971d68c1d4354a03c2e","","Mozilla/5.0 (Macintosh; Intel Mac OS X 10_15_7) AppleWebKit/537.36 (KHTML, like Gecko) Chrome/107.0.0.0 Safari/537.36","Macintosh","Chrome","107.0.0.0","OS X","10_15_7","1821"," ","","A kitten is playing in the sandbox","2","Filler","",""
"","","","","","fixation","16640","html-keyboard-response","241","405675","0.0-6.0-2.51","94","2","2022-11-17 12:28:18","fd252370c17a9971d68c1d4354a03c2e","","Mozilla/5.0 (Macintosh; Intel Mac OS X 10_15_7) AppleWebKit/537.36 (KHTML, like Gecko) Chrome/107.0.0.0 Safari/537.36","Macintosh","Chrome","107.0.0.0","OS X","10_15_7","null","null","","<p style=""font-size: 48px;"">+</p>","2","Filler","",""
"","","","","","picture","16640","image-keyboard-response","242","407399","0.0-6.0-3.51","94","2","2022-11-17 12:28:18","fd252370c17a9971d68c1d4354a03c2e","","Mozilla/5.0 (Macintosh; Intel Mac OS X 10_15_7) AppleWebKit/537.36 (KHTML, like Gecko) Chrome/107.0.0.0 Safari/537.36","Macintosh","Chrome","107.0.0.0","OS X","10_15_7","1717","n","","dustbin.jpg","2","Filler","true",""
"","","","","","fixation","16640","html-keyboard-response","243","408412","0.0-6.0-0.52","94","2","2022-11-17 12:28:18","fd252370c17a9971d68c1d4354a03c2e","","Mozilla/5.0 (Macintosh; Intel Mac OS X 10_15_7) AppleWebKit/537.36 (KHTML, like Gecko) Chrome/107.0.0.0 Safari/537.36","Macintosh","Chrome","107.0.0.0","OS X","10_15_7","null","null","","<p style=""font-size: 48px;"">+</p>","2","Filler","",""
