"success","timeout","failed_images","failed_audio","failed_video","typeoftrial","subject","trial_type","trial_index","time_elapsed","internal_node_id","run_id","condition","recorded_at","source_code_version","ip","user_agent","device","browser","browser_version","platform","platform_version","rt","response","Experiment","stimulus","list_number","trialcondition","correct","question_order"
"true","false","[]","[]","[]","preload","29859","preload","0","15807","0.0-0.0","42","3","2022-11-17 12:17:02","fd252370c17a9971d68c1d4354a03c2e","","Mozilla/5.0 (Windows NT 10.0; Win64; x64) AppleWebKit/537.36 (KHTML, like Gecko) Chrome/107.0.0.0 Safari/537.36","WebKit","Chrome","107.0.0.0","Windows","10.0","","","","","","","",""
"","","","","","ID","29859","survey-text","1","42844","0.0-1.0","42","3","2022-11-17 12:17:02","fd252370c17a9971d68c1d4354a03c2e","","Mozilla/5.0 (Windows NT 10.0; Win64; x64) AppleWebKit/537.36 (KHTML, like Gecko) Chrome/107.0.0.0 Safari/537.36","WebKit","Chrome","107.0.0.0","Windows","10.0","27021","{""ID"":""60420abc070aee0009a0f719""}","","","","","",""
"","","","","","instructions","29859","html-button-response","2","66549","0.0-2.0","42","3","2022-11-17 12:17:02","fd252370c17a9971d68c1d4354a03c2e","","Mozilla/5.0 (Windows NT 10.0; Win64; x64) AppleWebKit/537.36 (KHTML, like Gecko) Chrome/107.0.0.0 Safari/537.36","WebKit","Chrome","107.0.0.0","Windows","10.0","23701","0","","
                    <p style=""font-size:20px;""> Welcome to the experiment! </p>
                    <p style=""font-size:20px;""> In this experiment, you will be asked to make judgments about the content of different sentences.</p>
                    <p style=""font-size:20px;""> On each trial, you will read a sentence, and will be shown a picture immediately following the sentence. </p>
                    <p style=""font-size:20px;""> Your task is to decide whether the object displayed in the picture was mentioned in the sentence or not </p>
                    <p style=""font-size:20px;""> and respond as quickly as possible by pressing <strong>S</strong> for yes or <strong>N</strong> for no. </p>
                    <p style=""font-size:20px;""> You will now do a practice session with feedback and instructions. </p>
                    <p style=""font-size:20px;""> Click the button below to continue.</p>
                    ","","","",""
"","","","","","instructions","29859","html-button-response","3","85132","0.0-3.0","42","3","2022-11-17 12:17:02","fd252370c17a9971d68c1d4354a03c2e","","Mozilla/5.0 (Windows NT 10.0; Win64; x64) AppleWebKit/537.36 (KHTML, like Gecko) Chrome/107.0.0.0 Safari/537.36","WebKit","Chrome","107.0.0.0","Windows","10.0","18582","0","","
                    <p style=""font-size:20px;""> You are about to begin the practice test. </p>
                    <p style=""font-size:20px;""> On each trial, a sentence will appear on the screen. You should press SPACEBAR when you have read and understood the sentence.</p>
                    <p style=""font-size:20px;""> After you press SPACEBAR, a picture will appear on the screen. </p>
                    <p style=""font-size:20px;""> You need to indicate whether or not the pictured object was mentioned in the sentence. </p>
                    <p style=""font-size:20px;""> If the object WAS mentioned in the preceding sentence, you should press <strong>S</strong> </p>
                    <p style=""font-size:20px;""> If the object was NOT mentioned in the preceding sentence, you should press <strong>N</strong>. </p>
                    <p style=""font-size:20px;""> Click the button below to continue to the practice session.</p>
                    ","","","",""
"","","","","","fixation","29859","html-keyboard-response","4","86143","0.0-4.0-0.0","42","3","2022-11-17 12:17:02","fd252370c17a9971d68c1d4354a03c2e","","Mozilla/5.0 (Windows NT 10.0; Win64; x64) AppleWebKit/537.36 (KHTML, like Gecko) Chrome/107.0.0.0 Safari/537.36","WebKit","Chrome","107.0.0.0","Windows","10.0","null","null","","<p style=""font-size: 48px;"">+</p>","practice","practice_n","",""
"","","","","","sentence","29859","html-keyboard-response","5","89808","0.0-4.0-1.0","42","3","2022-11-17 12:17:02","fd252370c17a9971d68c1d4354a03c2e","","Mozilla/5.0 (Windows NT 10.0; Win64; x64) AppleWebKit/537.36 (KHTML, like Gecko) Chrome/107.0.0.0 Safari/537.36","WebKit","Chrome","107.0.0.0","Windows","10.0","3662"," ","","A balloon dropped and smashed a cup","practice","practice_n","",""
"","","","","","fixation","29859","html-keyboard-response","6","90319","0.0-4.0-2.0","42","3","2022-11-17 12:17:02","fd252370c17a9971d68c1d4354a03c2e","","Mozilla/5.0 (Windows NT 10.0; Win64; x64) AppleWebKit/537.36 (KHTML, like Gecko) Chrome/107.0.0.0 Safari/537.36","WebKit","Chrome","107.0.0.0","Windows","10.0","null","null","","<p style=""font-size: 48px;"">+</p>","practice","practice_n","",""
"","","","","","picture","29859","image-keyboard-response","7","92807","0.0-4.0-3.0","42","3","2022-11-17 12:17:02","fd252370c17a9971d68c1d4354a03c2e","","Mozilla/5.0 (Windows NT 10.0; Win64; x64) AppleWebKit/537.36 (KHTML, like Gecko) Chrome/107.0.0.0 Safari/537.36","WebKit","Chrome","107.0.0.0","Windows","10.0","2465","n","","bananaB.jpg","practice","practice_n","true",""
"","","","","","","","html-keyboard-response","8","94815","0.0-4.0-4.0","42","3","2022-11-17 12:17:02","fd252370c17a9971d68c1d4354a03c2e","","Mozilla/5.0 (Windows NT 10.0; Win64; x64) AppleWebKit/537.36 (KHTML, like Gecko) Chrome/107.0.0.0 Safari/537.36","WebKit","Chrome","107.0.0.0","Windows","10.0","null","null","","CORRECT!","","","",""
"","","","","","fixation","29859","html-keyboard-response","9","95824","0.0-4.0-0.1","42","3","2022-11-17 12:17:02","fd252370c17a9971d68c1d4354a03c2e","","Mozilla/5.0 (Windows NT 10.0; Win64; x64) AppleWebKit/537.36 (KHTML, like Gecko) Chrome/107.0.0.0 Safari/537.36","WebKit","Chrome","107.0.0.0","Windows","10.0","null","null","","<p style=""font-size: 48px;"">+</p>","practice","practice_n","",""
"","","","","","sentence","29859","html-keyboard-response","10","97765","0.0-4.0-1.1","42","3","2022-11-17 12:17:02","fd252370c17a9971d68c1d4354a03c2e","","Mozilla/5.0 (Windows NT 10.0; Win64; x64) AppleWebKit/537.36 (KHTML, like Gecko) Chrome/107.0.0.0 Safari/537.36","WebKit","Chrome","107.0.0.0","Windows","10.0","1937"," ","","A fork was placed on a stool","practice","practice_n","",""
"","","","","","fixation","29859","html-keyboard-response","11","98271","0.0-4.0-2.1","42","3","2022-11-17 12:17:02","fd252370c17a9971d68c1d4354a03c2e","","Mozilla/5.0 (Windows NT 10.0; Win64; x64) AppleWebKit/537.36 (KHTML, like Gecko) Chrome/107.0.0.0 Safari/537.36","WebKit","Chrome","107.0.0.0","Windows","10.0","null","null","","<p style=""font-size: 48px;"">+</p>","practice","practice_n","",""
"","","","","","picture","29859","image-keyboard-response","12","102939","0.0-4.0-3.1","42","3","2022-11-17 12:17:02","fd252370c17a9971d68c1d4354a03c2e","","Mozilla/5.0 (Windows NT 10.0; Win64; x64) AppleWebKit/537.36 (KHTML, like Gecko) Chrome/107.0.0.0 Safari/537.36","WebKit","Chrome","107.0.0.0","Windows","10.0","4666","s","","tableB.jpg","practice","practice_n","false",""
"","","","","","","","html-keyboard-response","13","104951","0.0-4.0-4.1","42","3","2022-11-17 12:17:02","fd252370c17a9971d68c1d4354a03c2e","","Mozilla/5.0 (Windows NT 10.0; Win64; x64) AppleWebKit/537.36 (KHTML, like Gecko) Chrome/107.0.0.0 Safari/537.36","WebKit","Chrome","107.0.0.0","Windows","10.0","null","null","","WRONG!","","","",""
"","","","","","fixation","29859","html-keyboard-response","14","105958","0.0-4.0-0.2","42","3","2022-11-17 12:17:02","fd252370c17a9971d68c1d4354a03c2e","","Mozilla/5.0 (Windows NT 10.0; Win64; x64) AppleWebKit/537.36 (KHTML, like Gecko) Chrome/107.0.0.0 Safari/537.36","WebKit","Chrome","107.0.0.0","Windows","10.0","null","null","","<p style=""font-size: 48px;"">+</p>","practice","practice_n","",""
"","","","","","sentence","29859","html-keyboard-response","15","109267","0.0-4.0-1.2","42","3","2022-11-17 12:17:02","fd252370c17a9971d68c1d4354a03c2e","","Mozilla/5.0 (Windows NT 10.0; Win64; x64) AppleWebKit/537.36 (KHTML, like Gecko) Chrome/107.0.0.0 Safari/537.36","WebKit","Chrome","107.0.0.0","Windows","10.0","3307"," ","","A bowling ball dropped and touched a bottle","practice","practice_n","",""
"","","","","","fixation","29859","html-keyboard-response","16","109776","0.0-4.0-2.2","42","3","2022-11-17 12:17:02","fd252370c17a9971d68c1d4354a03c2e","","Mozilla/5.0 (Windows NT 10.0; Win64; x64) AppleWebKit/537.36 (KHTML, like Gecko) Chrome/107.0.0.0 Safari/537.36","WebKit","Chrome","107.0.0.0","Windows","10.0","null","null","","<p style=""font-size: 48px;"">+</p>","practice","practice_n","",""
"","","","","","picture","29859","image-keyboard-response","17","111564","0.0-4.0-3.2","42","3","2022-11-17 12:17:02","fd252370c17a9971d68c1d4354a03c2e","","Mozilla/5.0 (Windows NT 10.0; Win64; x64) AppleWebKit/537.36 (KHTML, like Gecko) Chrome/107.0.0.0 Safari/537.36","WebKit","Chrome","107.0.0.0","Windows","10.0","1783","n","","bookB.jpg","practice","practice_n","true",""
"","","","","","","","html-keyboard-response","18","113575","0.0-4.0-4.2","42","3","2022-11-17 12:17:02","fd252370c17a9971d68c1d4354a03c2e","","Mozilla/5.0 (Windows NT 10.0; Win64; x64) AppleWebKit/537.36 (KHTML, like Gecko) Chrome/107.0.0.0 Safari/537.36","WebKit","Chrome","107.0.0.0","Windows","10.0","null","null","","CORRECT!","","","",""
"","","","","","fixation","29859","html-keyboard-response","19","114583","0.0-4.0-0.3","42","3","2022-11-17 12:17:02","fd252370c17a9971d68c1d4354a03c2e","","Mozilla/5.0 (Windows NT 10.0; Win64; x64) AppleWebKit/537.36 (KHTML, like Gecko) Chrome/107.0.0.0 Safari/537.36","WebKit","Chrome","107.0.0.0","Windows","10.0","null","null","","<p style=""font-size: 48px;"">+</p>","practice","practice_s","",""
"","","","","","sentence","29859","html-keyboard-response","20","117118","0.0-4.0-1.3","42","3","2022-11-17 12:17:02","fd252370c17a9971d68c1d4354a03c2e","","Mozilla/5.0 (Windows NT 10.0; Win64; x64) AppleWebKit/537.36 (KHTML, like Gecko) Chrome/107.0.0.0 Safari/537.36","WebKit","Chrome","107.0.0.0","Windows","10.0","2533"," ","","A balloon dropped and touched a cigarette","practice","practice_s","",""
"","","","","","fixation","29859","html-keyboard-response","21","117623","0.0-4.0-2.3","42","3","2022-11-17 12:17:02","fd252370c17a9971d68c1d4354a03c2e","","Mozilla/5.0 (Windows NT 10.0; Win64; x64) AppleWebKit/537.36 (KHTML, like Gecko) Chrome/107.0.0.0 Safari/537.36","WebKit","Chrome","107.0.0.0","Windows","10.0","null","null","","<p style=""font-size: 48px;"">+</p>","practice","practice_s","",""
"","","","","","picture","29859","image-keyboard-response","22","119585","0.0-4.0-3.3","42","3","2022-11-17 12:17:02","fd252370c17a9971d68c1d4354a03c2e","","Mozilla/5.0 (Windows NT 10.0; Win64; x64) AppleWebKit/537.36 (KHTML, like Gecko) Chrome/107.0.0.0 Safari/537.36","WebKit","Chrome","107.0.0.0","Windows","10.0","1957","s","","cigaretteB.jpg","practice","practice_s","true",""
"","","","","","","","html-keyboard-response","23","121606","0.0-4.0-4.3","42","3","2022-11-17 12:17:02","fd252370c17a9971d68c1d4354a03c2e","","Mozilla/5.0 (Windows NT 10.0; Win64; x64) AppleWebKit/537.36 (KHTML, like Gecko) Chrome/107.0.0.0 Safari/537.36","WebKit","Chrome","107.0.0.0","Windows","10.0","null","null","","CORRECT!","","","",""
"","","","","","fixation","29859","html-keyboard-response","24","122616","0.0-4.0-0.4","42","3","2022-11-17 12:17:02","fd252370c17a9971d68c1d4354a03c2e","","Mozilla/5.0 (Windows NT 10.0; Win64; x64) AppleWebKit/537.36 (KHTML, like Gecko) Chrome/107.0.0.0 Safari/537.36","WebKit","Chrome","107.0.0.0","Windows","10.0","null","null","","<p style=""font-size: 48px;"">+</p>","practice","practice_s","",""
"","","","","","sentence","29859","html-keyboard-response","25","125132","0.0-4.0-1.4","42","3","2022-11-17 12:17:02","fd252370c17a9971d68c1d4354a03c2e","","Mozilla/5.0 (Windows NT 10.0; Win64; x64) AppleWebKit/537.36 (KHTML, like Gecko) Chrome/107.0.0.0 Safari/537.36","WebKit","Chrome","107.0.0.0","Windows","10.0","2513"," ","","A bowling ball dropped and smashed a teacup","practice","practice_s","",""
"","","","","","fixation","29859","html-keyboard-response","26","125639","0.0-4.0-2.4","42","3","2022-11-17 12:17:02","fd252370c17a9971d68c1d4354a03c2e","","Mozilla/5.0 (Windows NT 10.0; Win64; x64) AppleWebKit/537.36 (KHTML, like Gecko) Chrome/107.0.0.0 Safari/537.36","WebKit","Chrome","107.0.0.0","Windows","10.0","null","null","","<p style=""font-size: 48px;"">+</p>","practice","practice_s","",""
"","","","","","picture","29859","image-keyboard-response","27","129063","0.0-4.0-3.4","42","3","2022-11-17 12:17:02","fd252370c17a9971d68c1d4354a03c2e","","Mozilla/5.0 (Windows NT 10.0; Win64; x64) AppleWebKit/537.36 (KHTML, like Gecko) Chrome/107.0.0.0 Safari/537.36","WebKit","Chrome","107.0.0.0","Windows","10.0","3422","n","","cupB.jpg","practice","practice_s","false",""
"","","","","","","","html-keyboard-response","28","131070","0.0-4.0-4.4","42","3","2022-11-17 12:17:02","fd252370c17a9971d68c1d4354a03c2e","","Mozilla/5.0 (Windows NT 10.0; Win64; x64) AppleWebKit/537.36 (KHTML, like Gecko) Chrome/107.0.0.0 Safari/537.36","WebKit","Chrome","107.0.0.0","Windows","10.0","null","null","","WRONG!","","","",""
"","","","","","fixation","29859","html-keyboard-response","29","132079","0.0-4.0-0.5","42","3","2022-11-17 12:17:02","fd252370c17a9971d68c1d4354a03c2e","","Mozilla/5.0 (Windows NT 10.0; Win64; x64) AppleWebKit/537.36 (KHTML, like Gecko) Chrome/107.0.0.0 Safari/537.36","WebKit","Chrome","107.0.0.0","Windows","10.0","null","null","","<p style=""font-size: 48px;"">+</p>","practice","practice_s","",""
"","","","","","sentence","29859","html-keyboard-response","30","134128","0.0-4.0-1.5","42","3","2022-11-17 12:17:02","fd252370c17a9971d68c1d4354a03c2e","","Mozilla/5.0 (Windows NT 10.0; Win64; x64) AppleWebKit/537.36 (KHTML, like Gecko) Chrome/107.0.0.0 Safari/537.36","WebKit","Chrome","107.0.0.0","Windows","10.0","2048"," ","","A knife was placed on a hammer","practice","practice_s","",""
"","","","","","fixation","29859","html-keyboard-response","31","134638","0.0-4.0-2.5","42","3","2022-11-17 12:17:02","fd252370c17a9971d68c1d4354a03c2e","","Mozilla/5.0 (Windows NT 10.0; Win64; x64) AppleWebKit/537.36 (KHTML, like Gecko) Chrome/107.0.0.0 Safari/537.36","WebKit","Chrome","107.0.0.0","Windows","10.0","null","null","","<p style=""font-size: 48px;"">+</p>","practice","practice_s","",""
"","","","","","picture","29859","image-keyboard-response","32","136295","0.0-4.0-3.5","42","3","2022-11-17 12:17:02","fd252370c17a9971d68c1d4354a03c2e","","Mozilla/5.0 (Windows NT 10.0; Win64; x64) AppleWebKit/537.36 (KHTML, like Gecko) Chrome/107.0.0.0 Safari/537.36","WebKit","Chrome","107.0.0.0","Windows","10.0","1655","s","","hammerB.jpg","practice","practice_s","true",""
"","","","","","","","html-keyboard-response","33","138313","0.0-4.0-4.5","42","3","2022-11-17 12:17:02","fd252370c17a9971d68c1d4354a03c2e","","Mozilla/5.0 (Windows NT 10.0; Win64; x64) AppleWebKit/537.36 (KHTML, like Gecko) Chrome/107.0.0.0 Safari/537.36","WebKit","Chrome","107.0.0.0","Windows","10.0","null","null","","CORRECT!","","","",""
"","","","","","movetoexp","29859","html-button-response","34","143139","0.0-5.0","42","3","2022-11-17 12:17:02","fd252370c17a9971d68c1d4354a03c2e","","Mozilla/5.0 (Windows NT 10.0; Win64; x64) AppleWebKit/537.36 (KHTML, like Gecko) Chrome/107.0.0.0 Safari/537.36","WebKit","Chrome","107.0.0.0","Windows","10.0","4820","0","","<p style=""font-size:20px;"">You have now completed the practice session! </p>
                    <p style=""font-size:20px;"">You will now move on to the main experiment, where you will not be provided any feedback. </p>
                    <p style=""font-size:20px;"">Remember, you should press <strong>S</strong> if the pictured object was mentioned in the preceding sentence<br> and <strong>N</strong> if the pictured object was not mentioned in the preceding sentence.</p>
                    <p style=""font-size:20px;"">Please click the button below to continue to the main experiment. </p>","","","",""
"","","","","","fixation","29859","html-keyboard-response","35","144142","0.0-6.0-0.0","42","3","2022-11-17 12:17:02","fd252370c17a9971d68c1d4354a03c2e","","Mozilla/5.0 (Windows NT 10.0; Win64; x64) AppleWebKit/537.36 (KHTML, like Gecko) Chrome/107.0.0.0 Safari/537.36","WebKit","Chrome","107.0.0.0","Windows","10.0","null","null","","<p style=""font-size: 48px;"">+</p>","3","Filler","",""
"","","","","","sentence","29859","html-keyboard-response","36","146198","0.0-6.0-1.0","42","3","2022-11-17 12:17:02","fd252370c17a9971d68c1d4354a03c2e","","Mozilla/5.0 (Windows NT 10.0; Win64; x64) AppleWebKit/537.36 (KHTML, like Gecko) Chrome/107.0.0.0 Safari/537.36","WebKit","Chrome","107.0.0.0","Windows","10.0","2054"," ","","A towel was placed on the TV","3","Filler","",""
"","","","","","fixation","29859","html-keyboard-response","37","146705","0.0-6.0-2.0","42","3","2022-11-17 12:17:02","fd252370c17a9971d68c1d4354a03c2e","","Mozilla/5.0 (Windows NT 10.0; Win64; x64) AppleWebKit/537.36 (KHTML, like Gecko) Chrome/107.0.0.0 Safari/537.36","WebKit","Chrome","107.0.0.0","Windows","10.0","null","null","","<p style=""font-size: 48px;"">+</p>","3","Filler","",""
"","","","","","picture","29859","image-keyboard-response","38","148217","0.0-6.0-3.0","42","3","2022-11-17 12:17:02","fd252370c17a9971d68c1d4354a03c2e","","Mozilla/5.0 (Windows NT 10.0; Win64; x64) AppleWebKit/537.36 (KHTML, like Gecko) Chrome/107.0.0.0 Safari/537.36","WebKit","Chrome","107.0.0.0","Windows","10.0","1509","n","","pencil.jpg","3","Filler","true",""
"","","","","","fixation","29859","html-keyboard-response","39","149222","0.0-6.0-0.1","42","3","2022-11-17 12:17:02","fd252370c17a9971d68c1d4354a03c2e","","Mozilla/5.0 (Windows NT 10.0; Win64; x64) AppleWebKit/537.36 (KHTML, like Gecko) Chrome/107.0.0.0 Safari/537.36","WebKit","Chrome","107.0.0.0","Windows","10.0","null","null","","<p style=""font-size: 48px;"">+</p>","3","Heavy_Matched","",""
"","","","","","sentence","29859","html-keyboard-response","40","152697","0.0-6.0-1.1","42","3","2022-11-17 12:17:02","fd252370c17a9971d68c1d4354a03c2e","","Mozilla/5.0 (Windows NT 10.0; Win64; x64) AppleWebKit/537.36 (KHTML, like Gecko) Chrome/107.0.0.0 Safari/537.36","WebKit","Chrome","107.0.0.0","Windows","10.0","3470"," ","","A bowling ball dropped and smashed a rice cake","3","Heavy_Matched","",""
"","","","","","fixation","29859","html-keyboard-response","41","153207","0.0-6.0-2.1","42","3","2022-11-17 12:17:02","fd252370c17a9971d68c1d4354a03c2e","","Mozilla/5.0 (Windows NT 10.0; Win64; x64) AppleWebKit/537.36 (KHTML, like Gecko) Chrome/107.0.0.0 Safari/537.36","WebKit","Chrome","107.0.0.0","Windows","10.0","null","null","","<p style=""font-size: 48px;"">+</p>","3","Heavy_Matched","",""
"","","","","","picture","29859","image-keyboard-response","42","155120","0.0-6.0-3.1","42","3","2022-11-17 12:17:02","fd252370c17a9971d68c1d4354a03c2e","","Mozilla/5.0 (Windows NT 10.0; Win64; x64) AppleWebKit/537.36 (KHTML, like Gecko) Chrome/107.0.0.0 Safari/537.36","WebKit","Chrome","107.0.0.0","Windows","10.0","1909","s","","tortitaS.jpg","3","Heavy_Matched","true",""
"","","","","","fixation","29859","html-keyboard-response","43","156126","0.0-6.0-0.2","42","3","2022-11-17 12:17:02","fd252370c17a9971d68c1d4354a03c2e","","Mozilla/5.0 (Windows NT 10.0; Win64; x64) AppleWebKit/537.36 (KHTML, like Gecko) Chrome/107.0.0.0 Safari/537.36","WebKit","Chrome","107.0.0.0","Windows","10.0","null","null","","<p style=""font-size: 48px;"">+</p>","3","Filler","",""
"","","","","","sentence","29859","html-keyboard-response","44","158326","0.0-6.0-1.2","42","3","2022-11-17 12:17:02","fd252370c17a9971d68c1d4354a03c2e","","Mozilla/5.0 (Windows NT 10.0; Win64; x64) AppleWebKit/537.36 (KHTML, like Gecko) Chrome/107.0.0.0 Safari/537.36","WebKit","Chrome","107.0.0.0","Windows","10.0","2197"," ","","A kitten is playing in the sandbox","3","Filler","",""
"","","","","","fixation","29859","html-keyboard-response","45","158840","0.0-6.0-2.2","42","3","2022-11-17 12:17:02","fd252370c17a9971d68c1d4354a03c2e","","Mozilla/5.0 (Windows NT 10.0; Win64; x64) AppleWebKit/537.36 (KHTML, like Gecko) Chrome/107.0.0.0 Safari/537.36","WebKit","Chrome","107.0.0.0","Windows","10.0","null","null","","<p style=""font-size: 48px;"">+</p>","3","Filler","",""
"","","","","","picture","29859","image-keyboard-response","46","160192","0.0-6.0-3.2","42","3","2022-11-17 12:17:02","fd252370c17a9971d68c1d4354a03c2e","","Mozilla/5.0 (Windows NT 10.0; Win64; x64) AppleWebKit/537.36 (KHTML, like Gecko) Chrome/107.0.0.0 Safari/537.36","WebKit","Chrome","107.0.0.0","Windows","10.0","1349","n","","dustbin.jpg","3","Filler","true",""
"","","","","","fixation","29859","html-keyboard-response","47","161206","0.0-6.0-0.3","42","3","2022-11-17 12:17:02","fd252370c17a9971d68c1d4354a03c2e","","Mozilla/5.0 (Windows NT 10.0; Win64; x64) AppleWebKit/537.36 (KHTML, like Gecko) Chrome/107.0.0.0 Safari/537.36","WebKit","Chrome","107.0.0.0","Windows","10.0","null","null","","<p style=""font-size: 48px;"">+</p>","3","Heavy_Contradictory","",""
"","","","","","sentence","29859","html-keyboard-response","48","163212","0.0-6.0-1.3","42","3","2022-11-17 12:17:02","fd252370c17a9971d68c1d4354a03c2e","","Mozilla/5.0 (Windows NT 10.0; Win64; x64) AppleWebKit/537.36 (KHTML, like Gecko) Chrome/107.0.0.0 Safari/537.36","WebKit","Chrome","107.0.0.0","Windows","10.0","2001"," ","","A bowling ball dropped and touched a vase","3","Heavy_Contradictory","",""
"","","","","","fixation","29859","html-keyboard-response","49","163726","0.0-6.0-2.3","42","3","2022-11-17 12:17:02","fd252370c17a9971d68c1d4354a03c2e","","Mozilla/5.0 (Windows NT 10.0; Win64; x64) AppleWebKit/537.36 (KHTML, like Gecko) Chrome/107.0.0.0 Safari/537.36","WebKit","Chrome","107.0.0.0","Windows","10.0","null","null","","<p style=""font-size: 48px;"">+</p>","3","Heavy_Contradictory","",""
"","","","","","picture","29859","image-keyboard-response","50","167222","0.0-6.0-3.3","42","3","2022-11-17 12:17:02","fd252370c17a9971d68c1d4354a03c2e","","Mozilla/5.0 (Windows NT 10.0; Win64; x64) AppleWebKit/537.36 (KHTML, like Gecko) Chrome/107.0.0.0 Safari/537.36","WebKit","Chrome","107.0.0.0","Windows","10.0","3494","s","","vaseS.jpg","3","Heavy_Contradictory","true",""
"","","","","","fixation","29859","html-keyboard-response","51","168230","0.0-6.0-0.4","42","3","2022-11-17 12:17:02","fd252370c17a9971d68c1d4354a03c2e","","Mozilla/5.0 (Windows NT 10.0; Win64; x64) AppleWebKit/537.36 (KHTML, like Gecko) Chrome/107.0.0.0 Safari/537.36","WebKit","Chrome","107.0.0.0","Windows","10.0","null","null","","<p style=""font-size: 48px;"">+</p>","3","Light_Matched","",""
"","","","","","sentence","29859","html-keyboard-response","52","170616","0.0-6.0-1.4","42","3","2022-11-17 12:17:02","fd252370c17a9971d68c1d4354a03c2e","","Mozilla/5.0 (Windows NT 10.0; Win64; x64) AppleWebKit/537.36 (KHTML, like Gecko) Chrome/107.0.0.0 Safari/537.36","WebKit","Chrome","107.0.0.0","Windows","10.0","2383"," ","","A balloon dropped and touched a cracker","3","Light_Matched","",""
"","","","","","fixation","29859","html-keyboard-response","53","171126","0.0-6.0-2.4","42","3","2022-11-17 12:17:02","fd252370c17a9971d68c1d4354a03c2e","","Mozilla/5.0 (Windows NT 10.0; Win64; x64) AppleWebKit/537.36 (KHTML, like Gecko) Chrome/107.0.0.0 Safari/537.36","WebKit","Chrome","107.0.0.0","Windows","10.0","null","null","","<p style=""font-size: 48px;"">+</p>","3","Light_Matched","",""
"","","","","","picture","29859","image-keyboard-response","54","172764","0.0-6.0-3.4","42","3","2022-11-17 12:17:02","fd252370c17a9971d68c1d4354a03c2e","","Mozilla/5.0 (Windows NT 10.0; Win64; x64) AppleWebKit/537.36 (KHTML, like Gecko) Chrome/107.0.0.0 Safari/537.36","WebKit","Chrome","107.0.0.0","Windows","10.0","1630","s","","crackerS.jpg","3","Light_Matched","true",""
"","","","","","fixation","29859","html-keyboard-response","55","173775","0.0-6.0-0.5","42","3","2022-11-17 12:17:02","fd252370c17a9971d68c1d4354a03c2e","","Mozilla/5.0 (Windows NT 10.0; Win64; x64) AppleWebKit/537.36 (KHTML, like Gecko) Chrome/107.0.0.0 Safari/537.36","WebKit","Chrome","107.0.0.0","Windows","10.0","null","null","","<p style=""font-size: 48px;"">+</p>","3","Filler","",""
"","","","","","sentence","29859","html-keyboard-response","56","176546","0.0-6.0-1.5","42","3","2022-11-17 12:17:02","fd252370c17a9971d68c1d4354a03c2e","","Mozilla/5.0 (Windows NT 10.0; Win64; x64) AppleWebKit/537.36 (KHTML, like Gecko) Chrome/107.0.0.0 Safari/537.36","WebKit","Chrome","107.0.0.0","Windows","10.0","2769"," ","","A doctor is taking a stethoscope","3","Filler","",""
"","","","","","fixation","29859","html-keyboard-response","57","177055","0.0-6.0-2.5","42","3","2022-11-17 12:17:02","fd252370c17a9971d68c1d4354a03c2e","","Mozilla/5.0 (Windows NT 10.0; Win64; x64) AppleWebKit/537.36 (KHTML, like Gecko) Chrome/107.0.0.0 Safari/537.36","WebKit","Chrome","107.0.0.0","Windows","10.0","null","null","","<p style=""font-size: 48px;"">+</p>","3","Filler","",""
"","","","","","picture","29859","image-keyboard-response","58","179393","0.0-6.0-3.5","42","3","2022-11-17 12:17:02","fd252370c17a9971d68c1d4354a03c2e","","Mozilla/5.0 (Windows NT 10.0; Win64; x64) AppleWebKit/537.36 (KHTML, like Gecko) Chrome/107.0.0.0 Safari/537.36","WebKit","Chrome","107.0.0.0","Windows","10.0","2331","n","","matchesbox.jpg","3","Filler","true",""
"","","","","","fixation","29859","html-keyboard-response","59","180398","0.0-6.0-0.6","42","3","2022-11-17 12:17:02","fd252370c17a9971d68c1d4354a03c2e","","Mozilla/5.0 (Windows NT 10.0; Win64; x64) AppleWebKit/537.36 (KHTML, like Gecko) Chrome/107.0.0.0 Safari/537.36","WebKit","Chrome","107.0.0.0","Windows","10.0","null","null","","<p style=""font-size: 48px;"">+</p>","3","Filler","",""
"","","","","","sentence","29859","html-keyboard-response","60","182752","0.0-6.0-1.6","42","3","2022-11-17 12:17:02","fd252370c17a9971d68c1d4354a03c2e","","Mozilla/5.0 (Windows NT 10.0; Win64; x64) AppleWebKit/537.36 (KHTML, like Gecko) Chrome/107.0.0.0 Safari/537.36","WebKit","Chrome","107.0.0.0","Windows","10.0","2349"," ","","A dentist is drinking a can of cola","3","Filler","",""
"","","","","","fixation","29859","html-keyboard-response","61","183268","0.0-6.0-2.6","42","3","2022-11-17 12:17:02","fd252370c17a9971d68c1d4354a03c2e","","Mozilla/5.0 (Windows NT 10.0; Win64; x64) AppleWebKit/537.36 (KHTML, like Gecko) Chrome/107.0.0.0 Safari/537.36","WebKit","Chrome","107.0.0.0","Windows","10.0","null","null","","<p style=""font-size: 48px;"">+</p>","3","Filler","",""
"","","","","","picture","29859","image-keyboard-response","62","184506","0.0-6.0-3.6","42","3","2022-11-17 12:17:02","fd252370c17a9971d68c1d4354a03c2e","","Mozilla/5.0 (Windows NT 10.0; Win64; x64) AppleWebKit/537.36 (KHTML, like Gecko) Chrome/107.0.0.0 Safari/537.36","WebKit","Chrome","107.0.0.0","Windows","10.0","1237","n","","doll.jpg","3","Filler","true",""
"","","","","","fixation","29859","html-keyboard-response","63","185511","0.0-6.0-0.7","42","3","2022-11-17 12:17:02","fd252370c17a9971d68c1d4354a03c2e","","Mozilla/5.0 (Windows NT 10.0; Win64; x64) AppleWebKit/537.36 (KHTML, like Gecko) Chrome/107.0.0.0 Safari/537.36","WebKit","Chrome","107.0.0.0","Windows","10.0","null","null","","<p style=""font-size: 48px;"">+</p>","3","Filler","",""
"","","","","","sentence","29859","html-keyboard-response","64","187533","0.0-6.0-1.7","42","3","2022-11-17 12:17:02","fd252370c17a9971d68c1d4354a03c2e","","Mozilla/5.0 (Windows NT 10.0; Win64; x64) AppleWebKit/537.36 (KHTML, like Gecko) Chrome/107.0.0.0 Safari/537.36","WebKit","Chrome","107.0.0.0","Windows","10.0","2017"," ","","A pencil was placed on the shoe","3","Filler","",""
"","","","","","fixation","29859","html-keyboard-response","65","188039","0.0-6.0-2.7","42","3","2022-11-17 12:17:02","fd252370c17a9971d68c1d4354a03c2e","","Mozilla/5.0 (Windows NT 10.0; Win64; x64) AppleWebKit/537.36 (KHTML, like Gecko) Chrome/107.0.0.0 Safari/537.36","WebKit","Chrome","107.0.0.0","Windows","10.0","null","null","","<p style=""font-size: 48px;"">+</p>","3","Filler","",""
"","","","","","picture","29859","image-keyboard-response","66","189597","0.0-6.0-3.7","42","3","2022-11-17 12:17:02","fd252370c17a9971d68c1d4354a03c2e","","Mozilla/5.0 (Windows NT 10.0; Win64; x64) AppleWebKit/537.36 (KHTML, like Gecko) Chrome/107.0.0.0 Safari/537.36","WebKit","Chrome","107.0.0.0","Windows","10.0","1555","n","","perfume.jpg","3","Filler","true",""
"","","","","","fixation","29859","html-keyboard-response","67","190615","0.0-6.0-0.8","42","3","2022-11-17 12:17:02","fd252370c17a9971d68c1d4354a03c2e","","Mozilla/5.0 (Windows NT 10.0; Win64; x64) AppleWebKit/537.36 (KHTML, like Gecko) Chrome/107.0.0.0 Safari/537.36","WebKit","Chrome","107.0.0.0","Windows","10.0","null","null","","<p style=""font-size: 48px;"">+</p>","3","Heavy_Contradictory","",""
"","","","","","sentence","29859","html-keyboard-response","68","192781","0.0-6.0-1.8","42","3","2022-11-17 12:17:02","fd252370c17a9971d68c1d4354a03c2e","","Mozilla/5.0 (Windows NT 10.0; Win64; x64) AppleWebKit/537.36 (KHTML, like Gecko) Chrome/107.0.0.0 Safari/537.36","WebKit","Chrome","107.0.0.0","Windows","10.0","2161"," ","","A bowling ball dropped and touched a tile","3","Heavy_Contradictory","",""
"","","","","","fixation","29859","html-keyboard-response","69","193286","0.0-6.0-2.8","42","3","2022-11-17 12:17:02","fd252370c17a9971d68c1d4354a03c2e","","Mozilla/5.0 (Windows NT 10.0; Win64; x64) AppleWebKit/537.36 (KHTML, like Gecko) Chrome/107.0.0.0 Safari/537.36","WebKit","Chrome","107.0.0.0","Windows","10.0","null","null","","<p style=""font-size: 48px;"">+</p>","3","Heavy_Contradictory","",""
"","","","","","picture","29859","image-keyboard-response","70","195196","0.0-6.0-3.8","42","3","2022-11-17 12:17:02","fd252370c17a9971d68c1d4354a03c2e","","Mozilla/5.0 (Windows NT 10.0; Win64; x64) AppleWebKit/537.36 (KHTML, like Gecko) Chrome/107.0.0.0 Safari/537.36","WebKit","Chrome","107.0.0.0","Windows","10.0","1907","s","","tileS.jpg","3","Heavy_Contradictory","true",""
"","","","","","fixation","29859","html-keyboard-response","71","196206","0.0-6.0-0.9","42","3","2022-11-17 12:17:02","fd252370c17a9971d68c1d4354a03c2e","","Mozilla/5.0 (Windows NT 10.0; Win64; x64) AppleWebKit/537.36 (KHTML, like Gecko) Chrome/107.0.0.0 Safari/537.36","WebKit","Chrome","107.0.0.0","Windows","10.0","null","null","","<p style=""font-size: 48px;"">+</p>","3","Light_Contradictory","",""
"","","","","","sentence","29859","html-keyboard-response","72","198651","0.0-6.0-1.9","42","3","2022-11-17 12:17:02","fd252370c17a9971d68c1d4354a03c2e","","Mozilla/5.0 (Windows NT 10.0; Win64; x64) AppleWebKit/537.36 (KHTML, like Gecko) Chrome/107.0.0.0 Safari/537.36","WebKit","Chrome","107.0.0.0","Windows","10.0","2439"," ","","A balloon dropped and smashed an iPAD","3","Light_Contradictory","",""
"","","","","","fixation","29859","html-keyboard-response","73","199159","0.0-6.0-2.9","42","3","2022-11-17 12:17:02","fd252370c17a9971d68c1d4354a03c2e","","Mozilla/5.0 (Windows NT 10.0; Win64; x64) AppleWebKit/537.36 (KHTML, like Gecko) Chrome/107.0.0.0 Safari/537.36","WebKit","Chrome","107.0.0.0","Windows","10.0","null","null","","<p style=""font-size: 48px;"">+</p>","3","Light_Contradictory","",""
"","","","","","picture","29859","image-keyboard-response","74","200623","0.0-6.0-3.9","42","3","2022-11-17 12:17:02","fd252370c17a9971d68c1d4354a03c2e","","Mozilla/5.0 (Windows NT 10.0; Win64; x64) AppleWebKit/537.36 (KHTML, like Gecko) Chrome/107.0.0.0 Safari/537.36","WebKit","Chrome","107.0.0.0","Windows","10.0","1462","s","","iPadS.jpg","3","Light_Contradictory","true",""
"","","","","","fixation","29859","html-keyboard-response","75","201631","0.0-6.0-0.10","42","3","2022-11-17 12:17:02","fd252370c17a9971d68c1d4354a03c2e","","Mozilla/5.0 (Windows NT 10.0; Win64; x64) AppleWebKit/537.36 (KHTML, like Gecko) Chrome/107.0.0.0 Safari/537.36","WebKit","Chrome","107.0.0.0","Windows","10.0","null","null","","<p style=""font-size: 48px;"">+</p>","3","Heavy_Matched","",""
"","","","","","sentence","29859","html-keyboard-response","76","204038","0.0-6.0-1.10","42","3","2022-11-17 12:17:02","fd252370c17a9971d68c1d4354a03c2e","","Mozilla/5.0 (Windows NT 10.0; Win64; x64) AppleWebKit/537.36 (KHTML, like Gecko) Chrome/107.0.0.0 Safari/537.36","WebKit","Chrome","107.0.0.0","Windows","10.0","2404"," ","","A bowling ball dropped and smashed a light bulb","3","Heavy_Matched","",""
"","","","","","fixation","29859","html-keyboard-response","77","204542","0.0-6.0-2.10","42","3","2022-11-17 12:17:02","fd252370c17a9971d68c1d4354a03c2e","","Mozilla/5.0 (Windows NT 10.0; Win64; x64) AppleWebKit/537.36 (KHTML, like Gecko) Chrome/107.0.0.0 Safari/537.36","WebKit","Chrome","107.0.0.0","Windows","10.0","null","null","","<p style=""font-size: 48px;"">+</p>","3","Heavy_Matched","",""
"","","","","","picture","29859","image-keyboard-response","78","205815","0.0-6.0-3.10","42","3","2022-11-17 12:17:02","fd252370c17a9971d68c1d4354a03c2e","","Mozilla/5.0 (Windows NT 10.0; Win64; x64) AppleWebKit/537.36 (KHTML, like Gecko) Chrome/107.0.0.0 Safari/537.36","WebKit","Chrome","107.0.0.0","Windows","10.0","1259","s","","lampS.jpg","3","Heavy_Matched","true",""
"","","","","","fixation","29859","html-keyboard-response","79","206833","0.0-6.0-0.11","42","3","2022-11-17 12:17:02","fd252370c17a9971d68c1d4354a03c2e","","Mozilla/5.0 (Windows NT 10.0; Win64; x64) AppleWebKit/537.36 (KHTML, like Gecko) Chrome/107.0.0.0 Safari/537.36","WebKit","Chrome","107.0.0.0","Windows","10.0","null","null","","<p style=""font-size: 48px;"">+</p>","3","Filler","",""
"","","","","","sentence","29859","html-keyboard-response","80","208621","0.0-6.0-1.11","42","3","2022-11-17 12:17:02","fd252370c17a9971d68c1d4354a03c2e","","Mozilla/5.0 (Windows NT 10.0; Win64; x64) AppleWebKit/537.36 (KHTML, like Gecko) Chrome/107.0.0.0 Safari/537.36","WebKit","Chrome","107.0.0.0","Windows","10.0","1784"," ","","A butterfly is sitting on a flower","3","Filler","",""
"","","","","","fixation","29859","html-keyboard-response","81","209127","0.0-6.0-2.11","42","3","2022-11-17 12:17:02","fd252370c17a9971d68c1d4354a03c2e","","Mozilla/5.0 (Windows NT 10.0; Win64; x64) AppleWebKit/537.36 (KHTML, like Gecko) Chrome/107.0.0.0 Safari/537.36","WebKit","Chrome","107.0.0.0","Windows","10.0","null","null","","<p style=""font-size: 48px;"">+</p>","3","Filler","",""
"","","","","","picture","29859","image-keyboard-response","82","210381","0.0-6.0-3.11","42","3","2022-11-17 12:17:02","fd252370c17a9971d68c1d4354a03c2e","","Mozilla/5.0 (Windows NT 10.0; Win64; x64) AppleWebKit/537.36 (KHTML, like Gecko) Chrome/107.0.0.0 Safari/537.36","WebKit","Chrome","107.0.0.0","Windows","10.0","1251","n","","soap.jpg","3","Filler","true",""
"","","","","","fixation","29859","html-keyboard-response","83","211391","0.0-6.0-0.12","42","3","2022-11-17 12:17:02","fd252370c17a9971d68c1d4354a03c2e","","Mozilla/5.0 (Windows NT 10.0; Win64; x64) AppleWebKit/537.36 (KHTML, like Gecko) Chrome/107.0.0.0 Safari/537.36","WebKit","Chrome","107.0.0.0","Windows","10.0","null","null","","<p style=""font-size: 48px;"">+</p>","3","Heavy_Matched","",""
"","","","","","sentence","29859","html-keyboard-response","84","213509","0.0-6.0-1.12","42","3","2022-11-17 12:17:02","fd252370c17a9971d68c1d4354a03c2e","","Mozilla/5.0 (Windows NT 10.0; Win64; x64) AppleWebKit/537.36 (KHTML, like Gecko) Chrome/107.0.0.0 Safari/537.36","WebKit","Chrome","107.0.0.0","Windows","10.0","2111"," ","","A bowling ball dropped and smashed a donut","3","Heavy_Matched","",""
"","","","","","fixation","29859","html-keyboard-response","85","214024","0.0-6.0-2.12","42","3","2022-11-17 12:17:02","fd252370c17a9971d68c1d4354a03c2e","","Mozilla/5.0 (Windows NT 10.0; Win64; x64) AppleWebKit/537.36 (KHTML, like Gecko) Chrome/107.0.0.0 Safari/537.36","WebKit","Chrome","107.0.0.0","Windows","10.0","null","null","","<p style=""font-size: 48px;"">+</p>","3","Heavy_Matched","",""
"","","","","","picture","29859","image-keyboard-response","86","215617","0.0-6.0-3.12","42","3","2022-11-17 12:17:02","fd252370c17a9971d68c1d4354a03c2e","","Mozilla/5.0 (Windows NT 10.0; Win64; x64) AppleWebKit/537.36 (KHTML, like Gecko) Chrome/107.0.0.0 Safari/537.36","WebKit","Chrome","107.0.0.0","Windows","10.0","1588","s","","donutS.jpg","3","Heavy_Matched","true",""
"","","","","","fixation","29859","html-keyboard-response","87","216632","0.0-6.0-0.13","42","3","2022-11-17 12:17:02","fd252370c17a9971d68c1d4354a03c2e","","Mozilla/5.0 (Windows NT 10.0; Win64; x64) AppleWebKit/537.36 (KHTML, like Gecko) Chrome/107.0.0.0 Safari/537.36","WebKit","Chrome","107.0.0.0","Windows","10.0","null","null","","<p style=""font-size: 48px;"">+</p>","3","Light_Matched","",""
"","","","","","sentence","29859","html-keyboard-response","88","218325","0.0-6.0-1.13","42","3","2022-11-17 12:17:02","fd252370c17a9971d68c1d4354a03c2e","","Mozilla/5.0 (Windows NT 10.0; Win64; x64) AppleWebKit/537.36 (KHTML, like Gecko) Chrome/107.0.0.0 Safari/537.36","WebKit","Chrome","107.0.0.0","Windows","10.0","1685"," ","","A balloon dropped and touched an egg","3","Light_Matched","",""
"","","","","","fixation","29859","html-keyboard-response","89","218839","0.0-6.0-2.13","42","3","2022-11-17 12:17:02","fd252370c17a9971d68c1d4354a03c2e","","Mozilla/5.0 (Windows NT 10.0; Win64; x64) AppleWebKit/537.36 (KHTML, like Gecko) Chrome/107.0.0.0 Safari/537.36","WebKit","Chrome","107.0.0.0","Windows","10.0","null","null","","<p style=""font-size: 48px;"">+</p>","3","Light_Matched","",""
"","","","","","picture","29859","image-keyboard-response","90","219946","0.0-6.0-3.13","42","3","2022-11-17 12:17:02","fd252370c17a9971d68c1d4354a03c2e","","Mozilla/5.0 (Windows NT 10.0; Win64; x64) AppleWebKit/537.36 (KHTML, like Gecko) Chrome/107.0.0.0 Safari/537.36","WebKit","Chrome","107.0.0.0","Windows","10.0","1103","s","","eggS.jpg","3","Light_Matched","true",""
"","","","","","fixation","29859","html-keyboard-response","91","220950","0.0-6.0-0.14","42","3","2022-11-17 12:17:02","fd252370c17a9971d68c1d4354a03c2e","","Mozilla/5.0 (Windows NT 10.0; Win64; x64) AppleWebKit/537.36 (KHTML, like Gecko) Chrome/107.0.0.0 Safari/537.36","WebKit","Chrome","107.0.0.0","Windows","10.0","null","null","","<p style=""font-size: 48px;"">+</p>","3","Filler","",""
"","","","","","sentence","29859","html-keyboard-response","92","223316","0.0-6.0-1.14","42","3","2022-11-17 12:17:02","fd252370c17a9971d68c1d4354a03c2e","","Mozilla/5.0 (Windows NT 10.0; Win64; x64) AppleWebKit/537.36 (KHTML, like Gecko) Chrome/107.0.0.0 Safari/537.36","WebKit","Chrome","107.0.0.0","Windows","10.0","2362"," ","","An astronaut is putting on a space suit","3","Filler","",""
"","","","","","fixation","29859","html-keyboard-response","93","223823","0.0-6.0-2.14","42","3","2022-11-17 12:17:02","fd252370c17a9971d68c1d4354a03c2e","","Mozilla/5.0 (Windows NT 10.0; Win64; x64) AppleWebKit/537.36 (KHTML, like Gecko) Chrome/107.0.0.0 Safari/537.36","WebKit","Chrome","107.0.0.0","Windows","10.0","null","null","","<p style=""font-size: 48px;"">+</p>","3","Filler","",""
"","","","","","picture","29859","image-keyboard-response","94","224909","0.0-6.0-3.14","42","3","2022-11-17 12:17:02","fd252370c17a9971d68c1d4354a03c2e","","Mozilla/5.0 (Windows NT 10.0; Win64; x64) AppleWebKit/537.36 (KHTML, like Gecko) Chrome/107.0.0.0 Safari/537.36","WebKit","Chrome","107.0.0.0","Windows","10.0","1081","s","","spacesuit.jpg","3","Filler","true",""
"","","","","","fixation","29859","html-keyboard-response","95","225919","0.0-6.0-0.15","42","3","2022-11-17 12:17:02","fd252370c17a9971d68c1d4354a03c2e","","Mozilla/5.0 (Windows NT 10.0; Win64; x64) AppleWebKit/537.36 (KHTML, like Gecko) Chrome/107.0.0.0 Safari/537.36","WebKit","Chrome","107.0.0.0","Windows","10.0","null","null","","<p style=""font-size: 48px;"">+</p>","3","Filler","",""
"","","","","","sentence","29859","html-keyboard-response","96","227490","0.0-6.0-1.15","42","3","2022-11-17 12:17:02","fd252370c17a9971d68c1d4354a03c2e","","Mozilla/5.0 (Windows NT 10.0; Win64; x64) AppleWebKit/537.36 (KHTML, like Gecko) Chrome/107.0.0.0 Safari/537.36","WebKit","Chrome","107.0.0.0","Windows","10.0","1563"," ","","A postman is driving a car","3","Filler","",""
"","","","","","fixation","29859","html-keyboard-response","97","228006","0.0-6.0-2.15","42","3","2022-11-17 12:17:02","fd252370c17a9971d68c1d4354a03c2e","","Mozilla/5.0 (Windows NT 10.0; Win64; x64) AppleWebKit/537.36 (KHTML, like Gecko) Chrome/107.0.0.0 Safari/537.36","WebKit","Chrome","107.0.0.0","Windows","10.0","null","null","","<p style=""font-size: 48px;"">+</p>","3","Filler","",""
"","","","","","picture","29859","image-keyboard-response","98","229434","0.0-6.0-3.15","42","3","2022-11-17 12:17:02","fd252370c17a9971d68c1d4354a03c2e","","Mozilla/5.0 (Windows NT 10.0; Win64; x64) AppleWebKit/537.36 (KHTML, like Gecko) Chrome/107.0.0.0 Safari/537.36","WebKit","Chrome","107.0.0.0","Windows","10.0","1417","s","","car.jpg","3","Filler","true",""
"","","","","","fixation","29859","html-keyboard-response","99","230452","0.0-6.0-0.16","42","3","2022-11-17 12:17:02","fd252370c17a9971d68c1d4354a03c2e","","Mozilla/5.0 (Windows NT 10.0; Win64; x64) AppleWebKit/537.36 (KHTML, like Gecko) Chrome/107.0.0.0 Safari/537.36","WebKit","Chrome","107.0.0.0","Windows","10.0","null","null","","<p style=""font-size: 48px;"">+</p>","3","Filler","",""
"","","","","","sentence","29859","html-keyboard-response","100","232850","0.0-6.0-1.16","42","3","2022-11-17 12:17:02","fd252370c17a9971d68c1d4354a03c2e","","Mozilla/5.0 (Windows NT 10.0; Win64; x64) AppleWebKit/537.36 (KHTML, like Gecko) Chrome/107.0.0.0 Safari/537.36","WebKit","Chrome","107.0.0.0","Windows","10.0","2395"," ","","A woman is paying with a debit card","3","Filler","",""
"","","","","","fixation","29859","html-keyboard-response","101","233367","0.0-6.0-2.16","42","3","2022-11-17 12:17:02","fd252370c17a9971d68c1d4354a03c2e","","Mozilla/5.0 (Windows NT 10.0; Win64; x64) AppleWebKit/537.36 (KHTML, like Gecko) Chrome/107.0.0.0 Safari/537.36","WebKit","Chrome","107.0.0.0","Windows","10.0","null","null","","<p style=""font-size: 48px;"">+</p>","3","Filler","",""
"","","","","","picture","29859","image-keyboard-response","102","234355","0.0-6.0-3.16","42","3","2022-11-17 12:17:02","fd252370c17a9971d68c1d4354a03c2e","","Mozilla/5.0 (Windows NT 10.0; Win64; x64) AppleWebKit/537.36 (KHTML, like Gecko) Chrome/107.0.0.0 Safari/537.36","WebKit","Chrome","107.0.0.0","Windows","10.0","979","n","","papercup.jpg","3","Filler","true",""
"","","","","","fixation","29859","html-keyboard-response","103","235358","0.0-6.0-0.17","42","3","2022-11-17 12:17:02","fd252370c17a9971d68c1d4354a03c2e","","Mozilla/5.0 (Windows NT 10.0; Win64; x64) AppleWebKit/537.36 (KHTML, like Gecko) Chrome/107.0.0.0 Safari/537.36","WebKit","Chrome","107.0.0.0","Windows","10.0","null","null","","<p style=""font-size: 48px;"">+</p>","3","Filler","",""
"","","","","","sentence","29859","html-keyboard-response","104","236935","0.0-6.0-1.17","42","3","2022-11-17 12:17:02","fd252370c17a9971d68c1d4354a03c2e","","Mozilla/5.0 (Windows NT 10.0; Win64; x64) AppleWebKit/537.36 (KHTML, like Gecko) Chrome/107.0.0.0 Safari/537.36","WebKit","Chrome","107.0.0.0","Windows","10.0","1574"," ","","A panda is resting on a tree","3","Filler","",""
"","","","","","fixation","29859","html-keyboard-response","105","237447","0.0-6.0-2.17","42","3","2022-11-17 12:17:02","fd252370c17a9971d68c1d4354a03c2e","","Mozilla/5.0 (Windows NT 10.0; Win64; x64) AppleWebKit/537.36 (KHTML, like Gecko) Chrome/107.0.0.0 Safari/537.36","WebKit","Chrome","107.0.0.0","Windows","10.0","null","null","","<p style=""font-size: 48px;"">+</p>","3","Filler","",""
"","","","","","picture","29859","image-keyboard-response","106","238631","0.0-6.0-3.17","42","3","2022-11-17 12:17:02","fd252370c17a9971d68c1d4354a03c2e","","Mozilla/5.0 (Windows NT 10.0; Win64; x64) AppleWebKit/537.36 (KHTML, like Gecko) Chrome/107.0.0.0 Safari/537.36","WebKit","Chrome","107.0.0.0","Windows","10.0","1174","n","","dollar.jpg","3","Filler","true",""
"","","","","","fixation","29859","html-keyboard-response","107","239647","0.0-6.0-0.18","42","3","2022-11-17 12:17:02","fd252370c17a9971d68c1d4354a03c2e","","Mozilla/5.0 (Windows NT 10.0; Win64; x64) AppleWebKit/537.36 (KHTML, like Gecko) Chrome/107.0.0.0 Safari/537.36","WebKit","Chrome","107.0.0.0","Windows","10.0","null","null","","<p style=""font-size: 48px;"">+</p>","3","Filler","",""
"","","","","","sentence","29859","html-keyboard-response","108","241424","0.0-6.0-1.18","42","3","2022-11-17 12:17:02","fd252370c17a9971d68c1d4354a03c2e","","Mozilla/5.0 (Windows NT 10.0; Win64; x64) AppleWebKit/537.36 (KHTML, like Gecko) Chrome/107.0.0.0 Safari/537.36","WebKit","Chrome","107.0.0.0","Windows","10.0","1774"," ","","A man is shaving his beard","3","Filler","",""
"","","","","","fixation","29859","html-keyboard-response","109","241943","0.0-6.0-2.18","42","3","2022-11-17 12:17:02","fd252370c17a9971d68c1d4354a03c2e","","Mozilla/5.0 (Windows NT 10.0; Win64; x64) AppleWebKit/537.36 (KHTML, like Gecko) Chrome/107.0.0.0 Safari/537.36","WebKit","Chrome","107.0.0.0","Windows","10.0","null","null","","<p style=""font-size: 48px;"">+</p>","3","Filler","",""
"","","","","","picture","29859","image-keyboard-response","110","243102","0.0-6.0-3.18","42","3","2022-11-17 12:17:02","fd252370c17a9971d68c1d4354a03c2e","","Mozilla/5.0 (Windows NT 10.0; Win64; x64) AppleWebKit/537.36 (KHTML, like Gecko) Chrome/107.0.0.0 Safari/537.36","WebKit","Chrome","107.0.0.0","Windows","10.0","1149","n","","clock.jpg","3","Filler","true",""
"","","","","","fixation","29859","html-keyboard-response","111","244119","0.0-6.0-0.19","42","3","2022-11-17 12:17:02","fd252370c17a9971d68c1d4354a03c2e","","Mozilla/5.0 (Windows NT 10.0; Win64; x64) AppleWebKit/537.36 (KHTML, like Gecko) Chrome/107.0.0.0 Safari/537.36","WebKit","Chrome","107.0.0.0","Windows","10.0","null","null","","<p style=""font-size: 48px;"">+</p>","3","Filler","",""
"","","","","","sentence","29859","html-keyboard-response","112","245886","0.0-6.0-1.19","42","3","2022-11-17 12:17:02","fd252370c17a9971d68c1d4354a03c2e","","Mozilla/5.0 (Windows NT 10.0; Win64; x64) AppleWebKit/537.36 (KHTML, like Gecko) Chrome/107.0.0.0 Safari/537.36","WebKit","Chrome","107.0.0.0","Windows","10.0","1758"," ","","A cabbage was placed on the table","3","Filler","",""
"","","","","","fixation","29859","html-keyboard-response","113","246391","0.0-6.0-2.19","42","3","2022-11-17 12:17:02","fd252370c17a9971d68c1d4354a03c2e","","Mozilla/5.0 (Windows NT 10.0; Win64; x64) AppleWebKit/537.36 (KHTML, like Gecko) Chrome/107.0.0.0 Safari/537.36","WebKit","Chrome","107.0.0.0","Windows","10.0","null","null","","<p style=""font-size: 48px;"">+</p>","3","Filler","",""
"","","","","","picture","29859","image-keyboard-response","114","247473","0.0-6.0-3.19","42","3","2022-11-17 12:17:02","fd252370c17a9971d68c1d4354a03c2e","","Mozilla/5.0 (Windows NT 10.0; Win64; x64) AppleWebKit/537.36 (KHTML, like Gecko) Chrome/107.0.0.0 Safari/537.36","WebKit","Chrome","107.0.0.0","Windows","10.0","1069","n","","ladder.jpg","3","Filler","true",""
"","","","","","fixation","29859","html-keyboard-response","115","248487","0.0-6.0-0.20","42","3","2022-11-17 12:17:02","fd252370c17a9971d68c1d4354a03c2e","","Mozilla/5.0 (Windows NT 10.0; Win64; x64) AppleWebKit/537.36 (KHTML, like Gecko) Chrome/107.0.0.0 Safari/537.36","WebKit","Chrome","107.0.0.0","Windows","10.0","null","null","","<p style=""font-size: 48px;"">+</p>","3","Heavy_Contradictory","",""
"","","","","","sentence","29859","html-keyboard-response","116","250458","0.0-6.0-1.20","42","3","2022-11-17 12:17:02","fd252370c17a9971d68c1d4354a03c2e","","Mozilla/5.0 (Windows NT 10.0; Win64; x64) AppleWebKit/537.36 (KHTML, like Gecko) Chrome/107.0.0.0 Safari/537.36","WebKit","Chrome","107.0.0.0","Windows","10.0","1961"," ","","A bowling ball dropped and touched a tomato","3","Heavy_Contradictory","",""
"","","","","","fixation","29859","html-keyboard-response","117","250967","0.0-6.0-2.20","42","3","2022-11-17 12:17:02","fd252370c17a9971d68c1d4354a03c2e","","Mozilla/5.0 (Windows NT 10.0; Win64; x64) AppleWebKit/537.36 (KHTML, like Gecko) Chrome/107.0.0.0 Safari/537.36","WebKit","Chrome","107.0.0.0","Windows","10.0","null","null","","<p style=""font-size: 48px;"">+</p>","3","Heavy_Contradictory","",""
"","","","","","picture","29859","image-keyboard-response","118","252165","0.0-6.0-3.20","42","3","2022-11-17 12:17:02","fd252370c17a9971d68c1d4354a03c2e","","Mozilla/5.0 (Windows NT 10.0; Win64; x64) AppleWebKit/537.36 (KHTML, like Gecko) Chrome/107.0.0.0 Safari/537.36","WebKit","Chrome","107.0.0.0","Windows","10.0","1195","s","","tomatoS.jpg","3","Heavy_Contradictory","true",""
"","","","","","fixation","29859","html-keyboard-response","119","253176","0.0-6.0-0.21","42","3","2022-11-17 12:17:02","fd252370c17a9971d68c1d4354a03c2e","","Mozilla/5.0 (Windows NT 10.0; Win64; x64) AppleWebKit/537.36 (KHTML, like Gecko) Chrome/107.0.0.0 Safari/537.36","WebKit","Chrome","107.0.0.0","Windows","10.0","null","null","","<p style=""font-size: 48px;"">+</p>","3","Filler","",""
"","","","","","sentence","29859","html-keyboard-response","120","254657","0.0-6.0-1.21","42","3","2022-11-17 12:17:02","fd252370c17a9971d68c1d4354a03c2e","","Mozilla/5.0 (Windows NT 10.0; Win64; x64) AppleWebKit/537.36 (KHTML, like Gecko) Chrome/107.0.0.0 Safari/537.36","WebKit","Chrome","107.0.0.0","Windows","10.0","1476"," ","","A pilot is reading a book","3","Filler","",""
"","","","","","fixation","29859","html-keyboard-response","121","255176","0.0-6.0-2.21","42","3","2022-11-17 12:17:02","fd252370c17a9971d68c1d4354a03c2e","","Mozilla/5.0 (Windows NT 10.0; Win64; x64) AppleWebKit/537.36 (KHTML, like Gecko) Chrome/107.0.0.0 Safari/537.36","WebKit","Chrome","107.0.0.0","Windows","10.0","null","null","","<p style=""font-size: 48px;"">+</p>","3","Filler","",""
"","","","","","picture","29859","image-keyboard-response","122","256342","0.0-6.0-3.21","42","3","2022-11-17 12:17:02","fd252370c17a9971d68c1d4354a03c2e","","Mozilla/5.0 (Windows NT 10.0; Win64; x64) AppleWebKit/537.36 (KHTML, like Gecko) Chrome/107.0.0.0 Safari/537.36","WebKit","Chrome","107.0.0.0","Windows","10.0","1161","n","","spoon.jpg","3","Filler","true",""
"","","","","","fixation","29859","html-keyboard-response","123","257352","0.0-6.0-0.22","42","3","2022-11-17 12:17:02","fd252370c17a9971d68c1d4354a03c2e","","Mozilla/5.0 (Windows NT 10.0; Win64; x64) AppleWebKit/537.36 (KHTML, like Gecko) Chrome/107.0.0.0 Safari/537.36","WebKit","Chrome","107.0.0.0","Windows","10.0","null","null","","<p style=""font-size: 48px;"">+</p>","3","Light_Contradictory","",""
"","","","","","sentence","29859","html-keyboard-response","124","259073","0.0-6.0-1.22","42","3","2022-11-17 12:17:02","fd252370c17a9971d68c1d4354a03c2e","","Mozilla/5.0 (Windows NT 10.0; Win64; x64) AppleWebKit/537.36 (KHTML, like Gecko) Chrome/107.0.0.0 Safari/537.36","WebKit","Chrome","107.0.0.0","Windows","10.0","1718"," ","","A balloon dropped and smashed a blackberry","3","Light_Contradictory","",""
"","","","","","fixation","29859","html-keyboard-response","125","259583","0.0-6.0-2.22","42","3","2022-11-17 12:17:02","fd252370c17a9971d68c1d4354a03c2e","","Mozilla/5.0 (Windows NT 10.0; Win64; x64) AppleWebKit/537.36 (KHTML, like Gecko) Chrome/107.0.0.0 Safari/537.36","WebKit","Chrome","107.0.0.0","Windows","10.0","null","null","","<p style=""font-size: 48px;"">+</p>","3","Light_Contradictory","",""
"","","","","","picture","29859","image-keyboard-response","126","261028","0.0-6.0-3.22","42","3","2022-11-17 12:17:02","fd252370c17a9971d68c1d4354a03c2e","","Mozilla/5.0 (Windows NT 10.0; Win64; x64) AppleWebKit/537.36 (KHTML, like Gecko) Chrome/107.0.0.0 Safari/537.36","WebKit","Chrome","107.0.0.0","Windows","10.0","1435","s","","blackberryS.jpg","3","Light_Contradictory","true",""
"","","","","","fixation","29859","html-keyboard-response","127","262039","0.0-6.0-0.23","42","3","2022-11-17 12:17:02","fd252370c17a9971d68c1d4354a03c2e","","Mozilla/5.0 (Windows NT 10.0; Win64; x64) AppleWebKit/537.36 (KHTML, like Gecko) Chrome/107.0.0.0 Safari/537.36","WebKit","Chrome","107.0.0.0","Windows","10.0","null","null","","<p style=""font-size: 48px;"">+</p>","3","Light_Contradictory","",""
"","","","","","sentence","29859","html-keyboard-response","128","263592","0.0-6.0-1.23","42","3","2022-11-17 12:17:02","fd252370c17a9971d68c1d4354a03c2e","","Mozilla/5.0 (Windows NT 10.0; Win64; x64) AppleWebKit/537.36 (KHTML, like Gecko) Chrome/107.0.0.0 Safari/537.36","WebKit","Chrome","107.0.0.0","Windows","10.0","1549"," ","","A balloon dropped and smashed glasses","3","Light_Contradictory","",""
"","","","","","fixation","29859","html-keyboard-response","129","264103","0.0-6.0-2.23","42","3","2022-11-17 12:17:02","fd252370c17a9971d68c1d4354a03c2e","","Mozilla/5.0 (Windows NT 10.0; Win64; x64) AppleWebKit/537.36 (KHTML, like Gecko) Chrome/107.0.0.0 Safari/537.36","WebKit","Chrome","107.0.0.0","Windows","10.0","null","null","","<p style=""font-size: 48px;"">+</p>","3","Light_Contradictory","",""
"","","","","","picture","29859","image-keyboard-response","130","265289","0.0-6.0-3.23","42","3","2022-11-17 12:17:02","fd252370c17a9971d68c1d4354a03c2e","","Mozilla/5.0 (Windows NT 10.0; Win64; x64) AppleWebKit/537.36 (KHTML, like Gecko) Chrome/107.0.0.0 Safari/537.36","WebKit","Chrome","107.0.0.0","Windows","10.0","1178","s","","glassesS.jpg","3","Light_Contradictory","true",""
"","","","","","fixation","29859","html-keyboard-response","131","266296","0.0-6.0-0.24","42","3","2022-11-17 12:17:02","fd252370c17a9971d68c1d4354a03c2e","","Mozilla/5.0 (Windows NT 10.0; Win64; x64) AppleWebKit/537.36 (KHTML, like Gecko) Chrome/107.0.0.0 Safari/537.36","WebKit","Chrome","107.0.0.0","Windows","10.0","null","null","","<p style=""font-size: 48px;"">+</p>","3","Filler","",""
"","","","","","sentence","29859","html-keyboard-response","132","268039","0.0-6.0-1.24","42","3","2022-11-17 12:17:02","fd252370c17a9971d68c1d4354a03c2e","","Mozilla/5.0 (Windows NT 10.0; Win64; x64) AppleWebKit/537.36 (KHTML, like Gecko) Chrome/107.0.0.0 Safari/537.36","WebKit","Chrome","107.0.0.0","Windows","10.0","1734"," ","","An old man is hammering a nail","3","Filler","",""
"","","","","","fixation","29859","html-keyboard-response","133","268551","0.0-6.0-2.24","42","3","2022-11-17 12:17:02","fd252370c17a9971d68c1d4354a03c2e","","Mozilla/5.0 (Windows NT 10.0; Win64; x64) AppleWebKit/537.36 (KHTML, like Gecko) Chrome/107.0.0.0 Safari/537.36","WebKit","Chrome","107.0.0.0","Windows","10.0","null","null","","<p style=""font-size: 48px;"">+</p>","3","Filler","",""
"","","","","","picture","29859","image-keyboard-response","134","269463","0.0-6.0-3.24","42","3","2022-11-17 12:17:02","fd252370c17a9971d68c1d4354a03c2e","","Mozilla/5.0 (Windows NT 10.0; Win64; x64) AppleWebKit/537.36 (KHTML, like Gecko) Chrome/107.0.0.0 Safari/537.36","WebKit","Chrome","107.0.0.0","Windows","10.0","908","s","","nail.jpg","3","Filler","true",""
"","","","","","fixation","29859","html-keyboard-response","135","270479","0.0-6.0-0.25","42","3","2022-11-17 12:17:02","fd252370c17a9971d68c1d4354a03c2e","","Mozilla/5.0 (Windows NT 10.0; Win64; x64) AppleWebKit/537.36 (KHTML, like Gecko) Chrome/107.0.0.0 Safari/537.36","WebKit","Chrome","107.0.0.0","Windows","10.0","null","null","","<p style=""font-size: 48px;"">+</p>","3","Filler","",""
"","","","","","sentence","29859","html-keyboard-response","136","271783","0.0-6.0-1.25","42","3","2022-11-17 12:17:02","fd252370c17a9971d68c1d4354a03c2e","","Mozilla/5.0 (Windows NT 10.0; Win64; x64) AppleWebKit/537.36 (KHTML, like Gecko) Chrome/107.0.0.0 Safari/537.36","WebKit","Chrome","107.0.0.0","Windows","10.0","1295"," ","","A thief is stealing a wallet","3","Filler","",""
"","","","","","fixation","29859","html-keyboard-response","137","272287","0.0-6.0-2.25","42","3","2022-11-17 12:17:02","fd252370c17a9971d68c1d4354a03c2e","","Mozilla/5.0 (Windows NT 10.0; Win64; x64) AppleWebKit/537.36 (KHTML, like Gecko) Chrome/107.0.0.0 Safari/537.36","WebKit","Chrome","107.0.0.0","Windows","10.0","null","null","","<p style=""font-size: 48px;"">+</p>","3","Filler","",""
"","","","","","picture","29859","image-keyboard-response","138","273154","0.0-6.0-3.25","42","3","2022-11-17 12:17:02","fd252370c17a9971d68c1d4354a03c2e","","Mozilla/5.0 (Windows NT 10.0; Win64; x64) AppleWebKit/537.36 (KHTML, like Gecko) Chrome/107.0.0.0 Safari/537.36","WebKit","Chrome","107.0.0.0","Windows","10.0","860","n","","teddybear.jpg","3","Filler","true",""
"","","","","","fixation","29859","html-keyboard-response","139","274167","0.0-6.0-0.26","42","3","2022-11-17 12:17:02","fd252370c17a9971d68c1d4354a03c2e","","Mozilla/5.0 (Windows NT 10.0; Win64; x64) AppleWebKit/537.36 (KHTML, like Gecko) Chrome/107.0.0.0 Safari/537.36","WebKit","Chrome","107.0.0.0","Windows","10.0","null","null","","<p style=""font-size: 48px;"">+</p>","3","Light_Matched","",""
"","","","","","sentence","29859","html-keyboard-response","140","276526","0.0-6.0-1.26","42","3","2022-11-17 12:17:02","fd252370c17a9971d68c1d4354a03c2e","","Mozilla/5.0 (Windows NT 10.0; Win64; x64) AppleWebKit/537.36 (KHTML, like Gecko) Chrome/107.0.0.0 Safari/537.36","WebKit","Chrome","107.0.0.0","Windows","10.0","2355"," ","","A balloon dropped and touched a porcelain figure","3","Light_Matched","",""
"","","","","","fixation","29859","html-keyboard-response","141","277039","0.0-6.0-2.26","42","3","2022-11-17 12:17:02","fd252370c17a9971d68c1d4354a03c2e","","Mozilla/5.0 (Windows NT 10.0; Win64; x64) AppleWebKit/537.36 (KHTML, like Gecko) Chrome/107.0.0.0 Safari/537.36","WebKit","Chrome","107.0.0.0","Windows","10.0","null","null","","<p style=""font-size: 48px;"">+</p>","3","Light_Matched","",""
"","","","","","picture","29859","image-keyboard-response","142","279020","0.0-6.0-3.26","42","3","2022-11-17 12:17:02","fd252370c17a9971d68c1d4354a03c2e","","Mozilla/5.0 (Windows NT 10.0; Win64; x64) AppleWebKit/537.36 (KHTML, like Gecko) Chrome/107.0.0.0 Safari/537.36","WebKit","Chrome","107.0.0.0","Windows","10.0","1971","s","","figureS.jpg","3","Light_Matched","true",""
"","","","","","fixation","29859","html-keyboard-response","143","280031","0.0-6.0-0.27","42","3","2022-11-17 12:17:02","fd252370c17a9971d68c1d4354a03c2e","","Mozilla/5.0 (Windows NT 10.0; Win64; x64) AppleWebKit/537.36 (KHTML, like Gecko) Chrome/107.0.0.0 Safari/537.36","WebKit","Chrome","107.0.0.0","Windows","10.0","null","null","","<p style=""font-size: 48px;"">+</p>","3","Filler","",""
"","","","","","sentence","29859","html-keyboard-response","144","282185","0.0-6.0-1.27","42","3","2022-11-17 12:17:02","fd252370c17a9971d68c1d4354a03c2e","","Mozilla/5.0 (Windows NT 10.0; Win64; x64) AppleWebKit/537.36 (KHTML, like Gecko) Chrome/107.0.0.0 Safari/537.36","WebKit","Chrome","107.0.0.0","Windows","10.0","2150"," ","","A police officer is talking on the phone","3","Filler","",""
"","","","","","fixation","29859","html-keyboard-response","145","282713","0.0-6.0-2.27","42","3","2022-11-17 12:17:02","fd252370c17a9971d68c1d4354a03c2e","","Mozilla/5.0 (Windows NT 10.0; Win64; x64) AppleWebKit/537.36 (KHTML, like Gecko) Chrome/107.0.0.0 Safari/537.36","WebKit","Chrome","107.0.0.0","Windows","10.0","null","null","","<p style=""font-size: 48px;"">+</p>","3","Filler","",""
"","","","","","picture","29859","image-keyboard-response","146","284072","0.0-6.0-3.27","42","3","2022-11-17 12:17:02","fd252370c17a9971d68c1d4354a03c2e","","Mozilla/5.0 (Windows NT 10.0; Win64; x64) AppleWebKit/537.36 (KHTML, like Gecko) Chrome/107.0.0.0 Safari/537.36","WebKit","Chrome","107.0.0.0","Windows","10.0","1355","n","","tissuebox.jpg","3","Filler","true",""
"","","","","","fixation","29859","html-keyboard-response","147","285092","0.0-6.0-0.28","42","3","2022-11-17 12:17:02","fd252370c17a9971d68c1d4354a03c2e","","Mozilla/5.0 (Windows NT 10.0; Win64; x64) AppleWebKit/537.36 (KHTML, like Gecko) Chrome/107.0.0.0 Safari/537.36","WebKit","Chrome","107.0.0.0","Windows","10.0","null","null","","<p style=""font-size: 48px;"">+</p>","3","Filler","",""
"","","","","","sentence","29859","html-keyboard-response","148","286445","0.0-6.0-1.28","42","3","2022-11-17 12:17:02","fd252370c17a9971d68c1d4354a03c2e","","Mozilla/5.0 (Windows NT 10.0; Win64; x64) AppleWebKit/537.36 (KHTML, like Gecko) Chrome/107.0.0.0 Safari/537.36","WebKit","Chrome","107.0.0.0","Windows","10.0","1349"," ","","A puppy is playing with a ball","3","Filler","",""
"","","","","","fixation","29859","html-keyboard-response","149","286952","0.0-6.0-2.28","42","3","2022-11-17 12:17:02","fd252370c17a9971d68c1d4354a03c2e","","Mozilla/5.0 (Windows NT 10.0; Win64; x64) AppleWebKit/537.36 (KHTML, like Gecko) Chrome/107.0.0.0 Safari/537.36","WebKit","Chrome","107.0.0.0","Windows","10.0","null","null","","<p style=""font-size: 48px;"">+</p>","3","Filler","",""
"","","","","","picture","29859","image-keyboard-response","150","287930","0.0-6.0-3.28","42","3","2022-11-17 12:17:02","fd252370c17a9971d68c1d4354a03c2e","","Mozilla/5.0 (Windows NT 10.0; Win64; x64) AppleWebKit/537.36 (KHTML, like Gecko) Chrome/107.0.0.0 Safari/537.36","WebKit","Chrome","107.0.0.0","Windows","10.0","973","s","","tennisball.jpg","3","Filler","true",""
"","","","","","fixation","29859","html-keyboard-response","151","288951","0.0-6.0-0.29","42","3","2022-11-17 12:17:02","fd252370c17a9971d68c1d4354a03c2e","","Mozilla/5.0 (Windows NT 10.0; Win64; x64) AppleWebKit/537.36 (KHTML, like Gecko) Chrome/107.0.0.0 Safari/537.36","WebKit","Chrome","107.0.0.0","Windows","10.0","null","null","","<p style=""font-size: 48px;"">+</p>","3","Heavy_Contradictory","",""
"","","","","","sentence","29859","html-keyboard-response","152","291298","0.0-6.0-1.29","42","3","2022-11-17 12:17:02","fd252370c17a9971d68c1d4354a03c2e","","Mozilla/5.0 (Windows NT 10.0; Win64; x64) AppleWebKit/537.36 (KHTML, like Gecko) Chrome/107.0.0.0 Safari/537.36","WebKit","Chrome","107.0.0.0","Windows","10.0","2344"," ","","A bowling ball dropped and touched a piece of sushi","3","Heavy_Contradictory","",""
"","","","","","fixation","29859","html-keyboard-response","153","291807","0.0-6.0-2.29","42","3","2022-11-17 12:17:02","fd252370c17a9971d68c1d4354a03c2e","","Mozilla/5.0 (Windows NT 10.0; Win64; x64) AppleWebKit/537.36 (KHTML, like Gecko) Chrome/107.0.0.0 Safari/537.36","WebKit","Chrome","107.0.0.0","Windows","10.0","null","null","","<p style=""font-size: 48px;"">+</p>","3","Heavy_Contradictory","",""
"","","","","","picture","29859","image-keyboard-response","154","292869","0.0-6.0-3.29","42","3","2022-11-17 12:17:02","fd252370c17a9971d68c1d4354a03c2e","","Mozilla/5.0 (Windows NT 10.0; Win64; x64) AppleWebKit/537.36 (KHTML, like Gecko) Chrome/107.0.0.0 Safari/537.36","WebKit","Chrome","107.0.0.0","Windows","10.0","1047","s","","sushiS.jpg","3","Heavy_Contradictory","true",""
"","","","","","fixation","29859","html-keyboard-response","155","293894","0.0-6.0-0.30","42","3","2022-11-17 12:17:02","fd252370c17a9971d68c1d4354a03c2e","","Mozilla/5.0 (Windows NT 10.0; Win64; x64) AppleWebKit/537.36 (KHTML, like Gecko) Chrome/107.0.0.0 Safari/537.36","WebKit","Chrome","107.0.0.0","Windows","10.0","null","null","","<p style=""font-size: 48px;"">+</p>","3","Heavy_Contradictory","",""
"","","","","","sentence","29859","html-keyboard-response","156","295769","0.0-6.0-1.30","42","3","2022-11-17 12:17:02","fd252370c17a9971d68c1d4354a03c2e","","Mozilla/5.0 (Windows NT 10.0; Win64; x64) AppleWebKit/537.36 (KHTML, like Gecko) Chrome/107.0.0.0 Safari/537.36","WebKit","Chrome","107.0.0.0","Windows","10.0","1865"," ","","A bowling ball dropped and touched a strawberry","3","Heavy_Contradictory","",""
"","","","","","fixation","29859","html-keyboard-response","157","296279","0.0-6.0-2.30","42","3","2022-11-17 12:17:02","fd252370c17a9971d68c1d4354a03c2e","","Mozilla/5.0 (Windows NT 10.0; Win64; x64) AppleWebKit/537.36 (KHTML, like Gecko) Chrome/107.0.0.0 Safari/537.36","WebKit","Chrome","107.0.0.0","Windows","10.0","null","null","","<p style=""font-size: 48px;"">+</p>","3","Heavy_Contradictory","",""
"","","","","","picture","29859","image-keyboard-response","158","297040","0.0-6.0-3.30","42","3","2022-11-17 12:17:02","fd252370c17a9971d68c1d4354a03c2e","","Mozilla/5.0 (Windows NT 10.0; Win64; x64) AppleWebKit/537.36 (KHTML, like Gecko) Chrome/107.0.0.0 Safari/537.36","WebKit","Chrome","107.0.0.0","Windows","10.0","749","s","","strawberryS.jpg","3","Heavy_Contradictory","true",""
"","","","","","fixation","29859","html-keyboard-response","159","298056","0.0-6.0-0.31","42","3","2022-11-17 12:17:02","fd252370c17a9971d68c1d4354a03c2e","","Mozilla/5.0 (Windows NT 10.0; Win64; x64) AppleWebKit/537.36 (KHTML, like Gecko) Chrome/107.0.0.0 Safari/537.36","WebKit","Chrome","107.0.0.0","Windows","10.0","null","null","","<p style=""font-size: 48px;"">+</p>","3","Light_Matched","",""
"","","","","","sentence","29859","html-keyboard-response","160","300461","0.0-6.0-1.31","42","3","2022-11-17 12:17:02","fd252370c17a9971d68c1d4354a03c2e","","Mozilla/5.0 (Windows NT 10.0; Win64; x64) AppleWebKit/537.36 (KHTML, like Gecko) Chrome/107.0.0.0 Safari/537.36","WebKit","Chrome","107.0.0.0","Windows","10.0","2401"," ","","A balloon dropped and touched a piece of cake","3","Light_Matched","",""
"","","","","","fixation","29859","html-keyboard-response","161","300968","0.0-6.0-2.31","42","3","2022-11-17 12:17:02","fd252370c17a9971d68c1d4354a03c2e","","Mozilla/5.0 (Windows NT 10.0; Win64; x64) AppleWebKit/537.36 (KHTML, like Gecko) Chrome/107.0.0.0 Safari/537.36","WebKit","Chrome","107.0.0.0","Windows","10.0","null","null","","<p style=""font-size: 48px;"">+</p>","3","Light_Matched","",""
"","","","","","picture","29859","image-keyboard-response","162","302011","0.0-6.0-3.31","42","3","2022-11-17 12:17:02","fd252370c17a9971d68c1d4354a03c2e","","Mozilla/5.0 (Windows NT 10.0; Win64; x64) AppleWebKit/537.36 (KHTML, like Gecko) Chrome/107.0.0.0 Safari/537.36","WebKit","Chrome","107.0.0.0","Windows","10.0","1027","s","","cakeS.jpg","3","Light_Matched","true",""
"","","","","","fixation","29859","html-keyboard-response","163","303015","0.0-6.0-0.32","42","3","2022-11-17 12:17:02","fd252370c17a9971d68c1d4354a03c2e","","Mozilla/5.0 (Windows NT 10.0; Win64; x64) AppleWebKit/537.36 (KHTML, like Gecko) Chrome/107.0.0.0 Safari/537.36","WebKit","Chrome","107.0.0.0","Windows","10.0","null","null","","<p style=""font-size: 48px;"">+</p>","3","Heavy_Contradictory","",""
"","","","","","sentence","29859","html-keyboard-response","164","305973","0.0-6.0-1.32","42","3","2022-11-17 12:17:02","fd252370c17a9971d68c1d4354a03c2e","","Mozilla/5.0 (Windows NT 10.0; Win64; x64) AppleWebKit/537.36 (KHTML, like Gecko) Chrome/107.0.0.0 Safari/537.36","WebKit","Chrome","107.0.0.0","Windows","10.0","2949"," ","","A bowling ball dropped and touched a ceramic plate","3","Heavy_Contradictory","",""
"","","","","","fixation","29859","html-keyboard-response","165","306495","0.0-6.0-2.32","42","3","2022-11-17 12:17:02","fd252370c17a9971d68c1d4354a03c2e","","Mozilla/5.0 (Windows NT 10.0; Win64; x64) AppleWebKit/537.36 (KHTML, like Gecko) Chrome/107.0.0.0 Safari/537.36","WebKit","Chrome","107.0.0.0","Windows","10.0","null","null","","<p style=""font-size: 48px;"">+</p>","3","Heavy_Contradictory","",""
"","","","","","picture","29859","image-keyboard-response","166","307452","0.0-6.0-3.32","42","3","2022-11-17 12:17:02","fd252370c17a9971d68c1d4354a03c2e","","Mozilla/5.0 (Windows NT 10.0; Win64; x64) AppleWebKit/537.36 (KHTML, like Gecko) Chrome/107.0.0.0 Safari/537.36","WebKit","Chrome","107.0.0.0","Windows","10.0","945","s","","plateS.jpg","3","Heavy_Contradictory","true",""
"","","","","","fixation","29859","html-keyboard-response","167","308464","0.0-6.0-0.33","42","3","2022-11-17 12:17:02","fd252370c17a9971d68c1d4354a03c2e","","Mozilla/5.0 (Windows NT 10.0; Win64; x64) AppleWebKit/537.36 (KHTML, like Gecko) Chrome/107.0.0.0 Safari/537.36","WebKit","Chrome","107.0.0.0","Windows","10.0","null","null","","<p style=""font-size: 48px;"">+</p>","3","Heavy_Matched","",""
"","","","","","sentence","29859","html-keyboard-response","168","310329","0.0-6.0-1.33","42","3","2022-11-17 12:17:02","fd252370c17a9971d68c1d4354a03c2e","","Mozilla/5.0 (Windows NT 10.0; Win64; x64) AppleWebKit/537.36 (KHTML, like Gecko) Chrome/107.0.0.0 Safari/537.36","WebKit","Chrome","107.0.0.0","Windows","10.0","1856"," ","","A bowling ball dropped and smashed a mirror","3","Heavy_Matched","",""
"","","","","","fixation","29859","html-keyboard-response","169","310840","0.0-6.0-2.33","42","3","2022-11-17 12:17:02","fd252370c17a9971d68c1d4354a03c2e","","Mozilla/5.0 (Windows NT 10.0; Win64; x64) AppleWebKit/537.36 (KHTML, like Gecko) Chrome/107.0.0.0 Safari/537.36","WebKit","Chrome","107.0.0.0","Windows","10.0","null","null","","<p style=""font-size: 48px;"">+</p>","3","Heavy_Matched","",""
"","","","","","picture","29859","image-keyboard-response","170","312009","0.0-6.0-3.33","42","3","2022-11-17 12:17:02","fd252370c17a9971d68c1d4354a03c2e","","Mozilla/5.0 (Windows NT 10.0; Win64; x64) AppleWebKit/537.36 (KHTML, like Gecko) Chrome/107.0.0.0 Safari/537.36","WebKit","Chrome","107.0.0.0","Windows","10.0","1158","s","","mirrorS.jpg","3","Heavy_Matched","true",""
"","","","","","fixation","29859","html-keyboard-response","171","313023","0.0-6.0-0.34","42","3","2022-11-17 12:17:02","fd252370c17a9971d68c1d4354a03c2e","","Mozilla/5.0 (Windows NT 10.0; Win64; x64) AppleWebKit/537.36 (KHTML, like Gecko) Chrome/107.0.0.0 Safari/537.36","WebKit","Chrome","107.0.0.0","Windows","10.0","null","null","","<p style=""font-size: 48px;"">+</p>","3","Filler","",""
"","","","","","sentence","29859","html-keyboard-response","172","314378","0.0-6.0-1.34","42","3","2022-11-17 12:17:02","fd252370c17a9971d68c1d4354a03c2e","","Mozilla/5.0 (Windows NT 10.0; Win64; x64) AppleWebKit/537.36 (KHTML, like Gecko) Chrome/107.0.0.0 Safari/537.36","WebKit","Chrome","107.0.0.0","Windows","10.0","1343"," ","","A boy is wearing a hat","3","Filler","",""
"","","","","","fixation","29859","html-keyboard-response","173","314887","0.0-6.0-2.34","42","3","2022-11-17 12:17:02","fd252370c17a9971d68c1d4354a03c2e","","Mozilla/5.0 (Windows NT 10.0; Win64; x64) AppleWebKit/537.36 (KHTML, like Gecko) Chrome/107.0.0.0 Safari/537.36","WebKit","Chrome","107.0.0.0","Windows","10.0","null","null","","<p style=""font-size: 48px;"">+</p>","3","Filler","",""
"","","","","","picture","29859","image-keyboard-response","174","315835","0.0-6.0-3.34","42","3","2022-11-17 12:17:02","fd252370c17a9971d68c1d4354a03c2e","","Mozilla/5.0 (Windows NT 10.0; Win64; x64) AppleWebKit/537.36 (KHTML, like Gecko) Chrome/107.0.0.0 Safari/537.36","WebKit","Chrome","107.0.0.0","Windows","10.0","943","s","","hat.jpg","3","Filler","true",""
"","","","","","fixation","29859","html-keyboard-response","175","316855","0.0-6.0-0.35","42","3","2022-11-17 12:17:02","fd252370c17a9971d68c1d4354a03c2e","","Mozilla/5.0 (Windows NT 10.0; Win64; x64) AppleWebKit/537.36 (KHTML, like Gecko) Chrome/107.0.0.0 Safari/537.36","WebKit","Chrome","107.0.0.0","Windows","10.0","null","null","","<p style=""font-size: 48px;"">+</p>","3","Filler","",""
"","","","","","sentence","29859","html-keyboard-response","176","318359","0.0-6.0-1.35","42","3","2022-11-17 12:17:02","fd252370c17a9971d68c1d4354a03c2e","","Mozilla/5.0 (Windows NT 10.0; Win64; x64) AppleWebKit/537.36 (KHTML, like Gecko) Chrome/107.0.0.0 Safari/537.36","WebKit","Chrome","107.0.0.0","Windows","10.0","1500"," ","","A student is writing on a board","3","Filler","",""
"","","","","","fixation","29859","html-keyboard-response","177","318872","0.0-6.0-2.35","42","3","2022-11-17 12:17:02","fd252370c17a9971d68c1d4354a03c2e","","Mozilla/5.0 (Windows NT 10.0; Win64; x64) AppleWebKit/537.36 (KHTML, like Gecko) Chrome/107.0.0.0 Safari/537.36","WebKit","Chrome","107.0.0.0","Windows","10.0","null","null","","<p style=""font-size: 48px;"">+</p>","3","Filler","",""
"","","","","","picture","29859","image-keyboard-response","178","319803","0.0-6.0-3.35","42","3","2022-11-17 12:17:02","fd252370c17a9971d68c1d4354a03c2e","","Mozilla/5.0 (Windows NT 10.0; Win64; x64) AppleWebKit/537.36 (KHTML, like Gecko) Chrome/107.0.0.0 Safari/537.36","WebKit","Chrome","107.0.0.0","Windows","10.0","921","n","","owl.jpg","3","Filler","true",""
"","","","","","fixation","29859","html-keyboard-response","179","320815","0.0-6.0-0.36","42","3","2022-11-17 12:17:02","fd252370c17a9971d68c1d4354a03c2e","","Mozilla/5.0 (Windows NT 10.0; Win64; x64) AppleWebKit/537.36 (KHTML, like Gecko) Chrome/107.0.0.0 Safari/537.36","WebKit","Chrome","107.0.0.0","Windows","10.0","null","null","","<p style=""font-size: 48px;"">+</p>","3","Light_Contradictory","",""
"","","","","","sentence","29859","html-keyboard-response","180","322654","0.0-6.0-1.36","42","3","2022-11-17 12:17:02","fd252370c17a9971d68c1d4354a03c2e","","Mozilla/5.0 (Windows NT 10.0; Win64; x64) AppleWebKit/537.36 (KHTML, like Gecko) Chrome/107.0.0.0 Safari/537.36","WebKit","Chrome","107.0.0.0","Windows","10.0","1835"," ","","A balloon dropped and smashed a banana","3","Light_Contradictory","",""
"","","","","","fixation","29859","html-keyboard-response","181","323178","0.0-6.0-2.36","42","3","2022-11-17 12:17:02","fd252370c17a9971d68c1d4354a03c2e","","Mozilla/5.0 (Windows NT 10.0; Win64; x64) AppleWebKit/537.36 (KHTML, like Gecko) Chrome/107.0.0.0 Safari/537.36","WebKit","Chrome","107.0.0.0","Windows","10.0","null","null","","<p style=""font-size: 48px;"">+</p>","3","Light_Contradictory","",""
"","","","","","picture","29859","image-keyboard-response","182","324226","0.0-6.0-3.36","42","3","2022-11-17 12:17:02","fd252370c17a9971d68c1d4354a03c2e","","Mozilla/5.0 (Windows NT 10.0; Win64; x64) AppleWebKit/537.36 (KHTML, like Gecko) Chrome/107.0.0.0 Safari/537.36","WebKit","Chrome","107.0.0.0","Windows","10.0","1043","s","","bananaS.jpg","3","Light_Contradictory","true",""
"","","","","","fixation","29859","html-keyboard-response","183","325232","0.0-6.0-0.37","42","3","2022-11-17 12:17:02","fd252370c17a9971d68c1d4354a03c2e","","Mozilla/5.0 (Windows NT 10.0; Win64; x64) AppleWebKit/537.36 (KHTML, like Gecko) Chrome/107.0.0.0 Safari/537.36","WebKit","Chrome","107.0.0.0","Windows","10.0","null","null","","<p style=""font-size: 48px;"">+</p>","3","Filler","",""
"","","","","","sentence","29859","html-keyboard-response","184","327529","0.0-6.0-1.37","42","3","2022-11-17 12:17:02","fd252370c17a9971d68c1d4354a03c2e","","Mozilla/5.0 (Windows NT 10.0; Win64; x64) AppleWebKit/537.36 (KHTML, like Gecko) Chrome/107.0.0.0 Safari/537.36","WebKit","Chrome","107.0.0.0","Windows","10.0","2292"," ","","A keyboard was placed on the bed","3","Filler","",""
"","","","","","fixation","29859","html-keyboard-response","185","328041","0.0-6.0-2.37","42","3","2022-11-17 12:17:02","fd252370c17a9971d68c1d4354a03c2e","","Mozilla/5.0 (Windows NT 10.0; Win64; x64) AppleWebKit/537.36 (KHTML, like Gecko) Chrome/107.0.0.0 Safari/537.36","WebKit","Chrome","107.0.0.0","Windows","10.0","null","null","","<p style=""font-size: 48px;"">+</p>","3","Filler","",""
"","","","","","picture","29859","image-keyboard-response","186","329542","0.0-6.0-3.37","42","3","2022-11-17 12:17:02","fd252370c17a9971d68c1d4354a03c2e","","Mozilla/5.0 (Windows NT 10.0; Win64; x64) AppleWebKit/537.36 (KHTML, like Gecko) Chrome/107.0.0.0 Safari/537.36","WebKit","Chrome","107.0.0.0","Windows","10.0","1494","n","","bottlecap.jpg","3","Filler","true",""
"","","","","","fixation","29859","html-keyboard-response","187","330559","0.0-6.0-0.38","42","3","2022-11-17 12:17:02","fd252370c17a9971d68c1d4354a03c2e","","Mozilla/5.0 (Windows NT 10.0; Win64; x64) AppleWebKit/537.36 (KHTML, like Gecko) Chrome/107.0.0.0 Safari/537.36","WebKit","Chrome","107.0.0.0","Windows","10.0","null","null","","<p style=""font-size: 48px;"">+</p>","3","Filler","",""
"","","","","","sentence","29859","html-keyboard-response","188","332226","0.0-6.0-1.38","42","3","2022-11-17 12:17:02","fd252370c17a9971d68c1d4354a03c2e","","Mozilla/5.0 (Windows NT 10.0; Win64; x64) AppleWebKit/537.36 (KHTML, like Gecko) Chrome/107.0.0.0 Safari/537.36","WebKit","Chrome","107.0.0.0","Windows","10.0","1663"," ","","A giraffe is playing with a zebra","3","Filler","",""
"","","","","","fixation","29859","html-keyboard-response","189","332742","0.0-6.0-2.38","42","3","2022-11-17 12:17:02","fd252370c17a9971d68c1d4354a03c2e","","Mozilla/5.0 (Windows NT 10.0; Win64; x64) AppleWebKit/537.36 (KHTML, like Gecko) Chrome/107.0.0.0 Safari/537.36","WebKit","Chrome","107.0.0.0","Windows","10.0","null","null","","<p style=""font-size: 48px;"">+</p>","3","Filler","",""
"","","","","","picture","29859","image-keyboard-response","190","333929","0.0-6.0-3.38","42","3","2022-11-17 12:17:02","fd252370c17a9971d68c1d4354a03c2e","","Mozilla/5.0 (Windows NT 10.0; Win64; x64) AppleWebKit/537.36 (KHTML, like Gecko) Chrome/107.0.0.0 Safari/537.36","WebKit","Chrome","107.0.0.0","Windows","10.0","1183","n","","wallet.jpg","3","Filler","true",""
"","","","","","fixation","29859","html-keyboard-response","191","334943","0.0-6.0-0.39","42","3","2022-11-17 12:17:02","fd252370c17a9971d68c1d4354a03c2e","","Mozilla/5.0 (Windows NT 10.0; Win64; x64) AppleWebKit/537.36 (KHTML, like Gecko) Chrome/107.0.0.0 Safari/537.36","WebKit","Chrome","107.0.0.0","Windows","10.0","null","null","","<p style=""font-size: 48px;"">+</p>","3","Light_Contradictory","",""
"","","","","","sentence","29859","html-keyboard-response","192","337587","0.0-6.0-1.39","42","3","2022-11-17 12:17:02","fd252370c17a9971d68c1d4354a03c2e","","Mozilla/5.0 (Windows NT 10.0; Win64; x64) AppleWebKit/537.36 (KHTML, like Gecko) Chrome/107.0.0.0 Safari/537.36","WebKit","Chrome","107.0.0.0","Windows","10.0","2630"," ","","A balloon dropped and smashed an egg flan","3","Light_Contradictory","",""
"","","","","","fixation","29859","html-keyboard-response","193","338104","0.0-6.0-2.39","42","3","2022-11-17 12:17:02","fd252370c17a9971d68c1d4354a03c2e","","Mozilla/5.0 (Windows NT 10.0; Win64; x64) AppleWebKit/537.36 (KHTML, like Gecko) Chrome/107.0.0.0 Safari/537.36","WebKit","Chrome","107.0.0.0","Windows","10.0","null","null","","<p style=""font-size: 48px;"">+</p>","3","Light_Contradictory","",""
"","","","","","picture","29859","image-keyboard-response","194","340829","0.0-6.0-3.39","42","3","2022-11-17 12:17:02","fd252370c17a9971d68c1d4354a03c2e","","Mozilla/5.0 (Windows NT 10.0; Win64; x64) AppleWebKit/537.36 (KHTML, like Gecko) Chrome/107.0.0.0 Safari/537.36","WebKit","Chrome","107.0.0.0","Windows","10.0","2711","s","","eggflanS.jpg","3","Light_Contradictory","true",""
"","","","","","fixation","29859","html-keyboard-response","195","341840","0.0-6.0-0.40","42","3","2022-11-17 12:17:02","fd252370c17a9971d68c1d4354a03c2e","","Mozilla/5.0 (Windows NT 10.0; Win64; x64) AppleWebKit/537.36 (KHTML, like Gecko) Chrome/107.0.0.0 Safari/537.36","WebKit","Chrome","107.0.0.0","Windows","10.0","null","null","","<p style=""font-size: 48px;"">+</p>","3","Filler","",""
"","","","","","sentence","29859","html-keyboard-response","196","343984","0.0-6.0-1.40","42","3","2022-11-17 12:17:02","fd252370c17a9971d68c1d4354a03c2e","","Mozilla/5.0 (Windows NT 10.0; Win64; x64) AppleWebKit/537.36 (KHTML, like Gecko) Chrome/107.0.0.0 Safari/537.36","WebKit","Chrome","107.0.0.0","Windows","10.0","2140"," ","","A president is writing in the notebook","3","Filler","",""
"","","","","","fixation","29859","html-keyboard-response","197","344504","0.0-6.0-2.40","42","3","2022-11-17 12:17:02","fd252370c17a9971d68c1d4354a03c2e","","Mozilla/5.0 (Windows NT 10.0; Win64; x64) AppleWebKit/537.36 (KHTML, like Gecko) Chrome/107.0.0.0 Safari/537.36","WebKit","Chrome","107.0.0.0","Windows","10.0","null","null","","<p style=""font-size: 48px;"">+</p>","3","Filler","",""
"","","","","","picture","29859","image-keyboard-response","198","345650","0.0-6.0-3.40","42","3","2022-11-17 12:17:02","fd252370c17a9971d68c1d4354a03c2e","","Mozilla/5.0 (Windows NT 10.0; Win64; x64) AppleWebKit/537.36 (KHTML, like Gecko) Chrome/107.0.0.0 Safari/537.36","WebKit","Chrome","107.0.0.0","Windows","10.0","1141","n","","can.jpg","3","Filler","true",""
"","","","","","fixation","29859","html-keyboard-response","199","346672","0.0-6.0-0.41","42","3","2022-11-17 12:17:02","fd252370c17a9971d68c1d4354a03c2e","","Mozilla/5.0 (Windows NT 10.0; Win64; x64) AppleWebKit/537.36 (KHTML, like Gecko) Chrome/107.0.0.0 Safari/537.36","WebKit","Chrome","107.0.0.0","Windows","10.0","null","null","","<p style=""font-size: 48px;"">+</p>","3","Filler","",""
"","","","","","sentence","29859","html-keyboard-response","200","348488","0.0-6.0-1.41","42","3","2022-11-17 12:17:02","fd252370c17a9971d68c1d4354a03c2e","","Mozilla/5.0 (Windows NT 10.0; Win64; x64) AppleWebKit/537.36 (KHTML, like Gecko) Chrome/107.0.0.0 Safari/537.36","WebKit","Chrome","107.0.0.0","Windows","10.0","1803"," ","","A remote was placed on the rug","3","Filler","",""
"","","","","","fixation","29859","html-keyboard-response","201","349001","0.0-6.0-2.41","42","3","2022-11-17 12:17:02","fd252370c17a9971d68c1d4354a03c2e","","Mozilla/5.0 (Windows NT 10.0; Win64; x64) AppleWebKit/537.36 (KHTML, like Gecko) Chrome/107.0.0.0 Safari/537.36","WebKit","Chrome","107.0.0.0","Windows","10.0","null","null","","<p style=""font-size: 48px;"">+</p>","3","Filler","",""
"","","","","","picture","29859","image-keyboard-response","202","350479","0.0-6.0-3.41","42","3","2022-11-17 12:17:02","fd252370c17a9971d68c1d4354a03c2e","","Mozilla/5.0 (Windows NT 10.0; Win64; x64) AppleWebKit/537.36 (KHTML, like Gecko) Chrome/107.0.0.0 Safari/537.36","WebKit","Chrome","107.0.0.0","Windows","10.0","1470","n","","CD.jpg","3","Filler","true",""
"","","","","","fixation","29859","html-keyboard-response","203","351488","0.0-6.0-0.42","42","3","2022-11-17 12:17:02","fd252370c17a9971d68c1d4354a03c2e","","Mozilla/5.0 (Windows NT 10.0; Win64; x64) AppleWebKit/537.36 (KHTML, like Gecko) Chrome/107.0.0.0 Safari/537.36","WebKit","Chrome","107.0.0.0","Windows","10.0","null","null","","<p style=""font-size: 48px;"">+</p>","3","Filler","",""
"","","","","","sentence","29859","html-keyboard-response","204","353260","0.0-6.0-1.42","42","3","2022-11-17 12:17:02","fd252370c17a9971d68c1d4354a03c2e","","Mozilla/5.0 (Windows NT 10.0; Win64; x64) AppleWebKit/537.36 (KHTML, like Gecko) Chrome/107.0.0.0 Safari/537.36","WebKit","Chrome","107.0.0.0","Windows","10.0","1762"," ","","An elephant is eating a watermelon","3","Filler","",""
"","","","","","fixation","29859","html-keyboard-response","205","353773","0.0-6.0-2.42","42","3","2022-11-17 12:17:02","fd252370c17a9971d68c1d4354a03c2e","","Mozilla/5.0 (Windows NT 10.0; Win64; x64) AppleWebKit/537.36 (KHTML, like Gecko) Chrome/107.0.0.0 Safari/537.36","WebKit","Chrome","107.0.0.0","Windows","10.0","null","null","","<p style=""font-size: 48px;"">+</p>","3","Filler","",""
"","","","","","picture","29859","image-keyboard-response","206","354730","0.0-6.0-3.42","42","3","2022-11-17 12:17:02","fd252370c17a9971d68c1d4354a03c2e","","Mozilla/5.0 (Windows NT 10.0; Win64; x64) AppleWebKit/537.36 (KHTML, like Gecko) Chrome/107.0.0.0 Safari/537.36","WebKit","Chrome","107.0.0.0","Windows","10.0","942","s","","watermelon.jpg","3","Filler","true",""
"","","","","","fixation","29859","html-keyboard-response","207","355737","0.0-6.0-0.43","42","3","2022-11-17 12:17:02","fd252370c17a9971d68c1d4354a03c2e","","Mozilla/5.0 (Windows NT 10.0; Win64; x64) AppleWebKit/537.36 (KHTML, like Gecko) Chrome/107.0.0.0 Safari/537.36","WebKit","Chrome","107.0.0.0","Windows","10.0","null","null","","<p style=""font-size: 48px;"">+</p>","3","Light_Contradictory","",""
"","","","","","sentence","29859","html-keyboard-response","208","357884","0.0-6.0-1.43","42","3","2022-11-17 12:17:02","fd252370c17a9971d68c1d4354a03c2e","","Mozilla/5.0 (Windows NT 10.0; Win64; x64) AppleWebKit/537.36 (KHTML, like Gecko) Chrome/107.0.0.0 Safari/537.36","WebKit","Chrome","107.0.0.0","Windows","10.0","2143"," ","","A balloon dropped and smashed a chocolate ice-cream","3","Light_Contradictory","",""
"","","","","","fixation","29859","html-keyboard-response","209","358392","0.0-6.0-2.43","42","3","2022-11-17 12:17:02","fd252370c17a9971d68c1d4354a03c2e","","Mozilla/5.0 (Windows NT 10.0; Win64; x64) AppleWebKit/537.36 (KHTML, like Gecko) Chrome/107.0.0.0 Safari/537.36","WebKit","Chrome","107.0.0.0","Windows","10.0","null","null","","<p style=""font-size: 48px;"">+</p>","3","Light_Contradictory","",""
"","","","","","picture","29859","image-keyboard-response","210","360483","0.0-6.0-3.43","42","3","2022-11-17 12:17:02","fd252370c17a9971d68c1d4354a03c2e","","Mozilla/5.0 (Windows NT 10.0; Win64; x64) AppleWebKit/537.36 (KHTML, like Gecko) Chrome/107.0.0.0 Safari/537.36","WebKit","Chrome","107.0.0.0","Windows","10.0","2087","s","","icecreamS.jpg","3","Light_Contradictory","true",""
"","","","","","fixation","29859","html-keyboard-response","211","361505","0.0-6.0-0.44","42","3","2022-11-17 12:17:02","fd252370c17a9971d68c1d4354a03c2e","","Mozilla/5.0 (Windows NT 10.0; Win64; x64) AppleWebKit/537.36 (KHTML, like Gecko) Chrome/107.0.0.0 Safari/537.36","WebKit","Chrome","107.0.0.0","Windows","10.0","null","null","","<p style=""font-size: 48px;"">+</p>","3","Filler","",""
"","","","","","sentence","29859","html-keyboard-response","212","363410","0.0-6.0-1.44","42","3","2022-11-17 12:17:02","fd252370c17a9971d68c1d4354a03c2e","","Mozilla/5.0 (Windows NT 10.0; Win64; x64) AppleWebKit/537.36 (KHTML, like Gecko) Chrome/107.0.0.0 Safari/537.36","WebKit","Chrome","107.0.0.0","Windows","10.0","1899"," ","","A ring was placed on the newspaper","3","Filler","",""
"","","","","","fixation","29859","html-keyboard-response","213","363921","0.0-6.0-2.44","42","3","2022-11-17 12:17:02","fd252370c17a9971d68c1d4354a03c2e","","Mozilla/5.0 (Windows NT 10.0; Win64; x64) AppleWebKit/537.36 (KHTML, like Gecko) Chrome/107.0.0.0 Safari/537.36","WebKit","Chrome","107.0.0.0","Windows","10.0","null","null","","<p style=""font-size: 48px;"">+</p>","3","Filler","",""
"","","","","","picture","29859","image-keyboard-response","214","364875","0.0-6.0-3.44","42","3","2022-11-17 12:17:02","fd252370c17a9971d68c1d4354a03c2e","","Mozilla/5.0 (Windows NT 10.0; Win64; x64) AppleWebKit/537.36 (KHTML, like Gecko) Chrome/107.0.0.0 Safari/537.36","WebKit","Chrome","107.0.0.0","Windows","10.0","938","n","","cat.jpg","3","Filler","true",""
"","","","","","fixation","29859","html-keyboard-response","215","365889","0.0-6.0-0.45","42","3","2022-11-17 12:17:02","fd252370c17a9971d68c1d4354a03c2e","","Mozilla/5.0 (Windows NT 10.0; Win64; x64) AppleWebKit/537.36 (KHTML, like Gecko) Chrome/107.0.0.0 Safari/537.36","WebKit","Chrome","107.0.0.0","Windows","10.0","null","null","","<p style=""font-size: 48px;"">+</p>","3","Filler","",""
"","","","","","sentence","29859","html-keyboard-response","216","368321","0.0-6.0-1.45","42","3","2022-11-17 12:17:02","fd252370c17a9971d68c1d4354a03c2e","","Mozilla/5.0 (Windows NT 10.0; Win64; x64) AppleWebKit/537.36 (KHTML, like Gecko) Chrome/107.0.0.0 Safari/537.36","WebKit","Chrome","107.0.0.0","Windows","10.0","2419"," ","","A toothbrush was placed on the sponge","3","Filler","",""
"","","","","","fixation","29859","html-keyboard-response","217","368825","0.0-6.0-2.45","42","3","2022-11-17 12:17:02","fd252370c17a9971d68c1d4354a03c2e","","Mozilla/5.0 (Windows NT 10.0; Win64; x64) AppleWebKit/537.36 (KHTML, like Gecko) Chrome/107.0.0.0 Safari/537.36","WebKit","Chrome","107.0.0.0","Windows","10.0","null","null","","<p style=""font-size: 48px;"">+</p>","3","Filler","",""
"","","","","","picture","29859","image-keyboard-response","218","370157","0.0-6.0-3.45","42","3","2022-11-17 12:17:02","fd252370c17a9971d68c1d4354a03c2e","","Mozilla/5.0 (Windows NT 10.0; Win64; x64) AppleWebKit/537.36 (KHTML, like Gecko) Chrome/107.0.0.0 Safari/537.36","WebKit","Chrome","107.0.0.0","Windows","10.0","1325","s","","sponge.jpg","3","Filler","true",""
"","","","","","fixation","29859","html-keyboard-response","219","371178","0.0-6.0-0.46","42","3","2022-11-17 12:17:02","fd252370c17a9971d68c1d4354a03c2e","","Mozilla/5.0 (Windows NT 10.0; Win64; x64) AppleWebKit/537.36 (KHTML, like Gecko) Chrome/107.0.0.0 Safari/537.36","WebKit","Chrome","107.0.0.0","Windows","10.0","null","null","","<p style=""font-size: 48px;"">+</p>","3","Filler","",""
"","","","","","sentence","29859","html-keyboard-response","220","373715","0.0-6.0-1.46","42","3","2022-11-17 12:17:02","fd252370c17a9971d68c1d4354a03c2e","","Mozilla/5.0 (Windows NT 10.0; Win64; x64) AppleWebKit/537.36 (KHTML, like Gecko) Chrome/107.0.0.0 Safari/537.36","WebKit","Chrome","107.0.0.0","Windows","10.0","2522"," ","","A hairdresser is taking scissors","3","Filler","",""
"","","","","","fixation","29859","html-keyboard-response","221","374235","0.0-6.0-2.46","42","3","2022-11-17 12:17:02","fd252370c17a9971d68c1d4354a03c2e","","Mozilla/5.0 (Windows NT 10.0; Win64; x64) AppleWebKit/537.36 (KHTML, like Gecko) Chrome/107.0.0.0 Safari/537.36","WebKit","Chrome","107.0.0.0","Windows","10.0","null","null","","<p style=""font-size: 48px;"">+</p>","3","Filler","",""
"","","","","","picture","29859","image-keyboard-response","222","375418","0.0-6.0-3.46","42","3","2022-11-17 12:17:02","fd252370c17a9971d68c1d4354a03c2e","","Mozilla/5.0 (Windows NT 10.0; Win64; x64) AppleWebKit/537.36 (KHTML, like Gecko) Chrome/107.0.0.0 Safari/537.36","WebKit","Chrome","107.0.0.0","Windows","10.0","1175","n","","sock.jpg","3","Filler","true",""
"","","","","","fixation","29859","html-keyboard-response","223","376425","0.0-6.0-0.47","42","3","2022-11-17 12:17:02","fd252370c17a9971d68c1d4354a03c2e","","Mozilla/5.0 (Windows NT 10.0; Win64; x64) AppleWebKit/537.36 (KHTML, like Gecko) Chrome/107.0.0.0 Safari/537.36","WebKit","Chrome","107.0.0.0","Windows","10.0","null","null","","<p style=""font-size: 48px;"">+</p>","3","Filler","",""
"","","","","","sentence","29859","html-keyboard-response","224","378340","0.0-6.0-1.47","42","3","2022-11-17 12:17:02","fd252370c17a9971d68c1d4354a03c2e","","Mozilla/5.0 (Windows NT 10.0; Win64; x64) AppleWebKit/537.36 (KHTML, like Gecko) Chrome/107.0.0.0 Safari/537.36","WebKit","Chrome","107.0.0.0","Windows","10.0","1909"," ","","A horse is chewing hay","3","Filler","",""
"","","","","","fixation","29859","html-keyboard-response","225","378850","0.0-6.0-2.47","42","3","2022-11-17 12:17:02","fd252370c17a9971d68c1d4354a03c2e","","Mozilla/5.0 (Windows NT 10.0; Win64; x64) AppleWebKit/537.36 (KHTML, like Gecko) Chrome/107.0.0.0 Safari/537.36","WebKit","Chrome","107.0.0.0","Windows","10.0","null","null","","<p style=""font-size: 48px;"">+</p>","3","Filler","",""
"","","","","","picture","29859","image-keyboard-response","226","380132","0.0-6.0-3.47","42","3","2022-11-17 12:17:02","fd252370c17a9971d68c1d4354a03c2e","","Mozilla/5.0 (Windows NT 10.0; Win64; x64) AppleWebKit/537.36 (KHTML, like Gecko) Chrome/107.0.0.0 Safari/537.36","WebKit","Chrome","107.0.0.0","Windows","10.0","1270","n","","purse.jpg","3","Filler","true",""
"","","","","","fixation","29859","html-keyboard-response","227","381153","0.0-6.0-0.48","42","3","2022-11-17 12:17:02","fd252370c17a9971d68c1d4354a03c2e","","Mozilla/5.0 (Windows NT 10.0; Win64; x64) AppleWebKit/537.36 (KHTML, like Gecko) Chrome/107.0.0.0 Safari/537.36","WebKit","Chrome","107.0.0.0","Windows","10.0","null","null","","<p style=""font-size: 48px;"">+</p>","3","Filler","",""
"","","","","","sentence","29859","html-keyboard-response","228","383330","0.0-6.0-1.48","42","3","2022-11-17 12:17:02","fd252370c17a9971d68c1d4354a03c2e","","Mozilla/5.0 (Windows NT 10.0; Win64; x64) AppleWebKit/537.36 (KHTML, like Gecko) Chrome/107.0.0.0 Safari/537.36","WebKit","Chrome","107.0.0.0","Windows","10.0","2164"," ","","A zebra is playing with a horse","3","Filler","",""
"","","","","","fixation","29859","html-keyboard-response","229","383834","0.0-6.0-2.48","42","3","2022-11-17 12:17:02","fd252370c17a9971d68c1d4354a03c2e","","Mozilla/5.0 (Windows NT 10.0; Win64; x64) AppleWebKit/537.36 (KHTML, like Gecko) Chrome/107.0.0.0 Safari/537.36","WebKit","Chrome","107.0.0.0","Windows","10.0","null","null","","<p style=""font-size: 48px;"">+</p>","3","Filler","",""
"","","","","","picture","29859","image-keyboard-response","230","384855","0.0-6.0-3.48","42","3","2022-11-17 12:17:02","fd252370c17a9971d68c1d4354a03c2e","","Mozilla/5.0 (Windows NT 10.0; Win64; x64) AppleWebKit/537.36 (KHTML, like Gecko) Chrome/107.0.0.0 Safari/537.36","WebKit","Chrome","107.0.0.0","Windows","10.0","1011","n","","watch.jpg","3","Filler","true",""
"","","","","","fixation","29859","html-keyboard-response","231","385882","0.0-6.0-0.49","42","3","2022-11-17 12:17:02","fd252370c17a9971d68c1d4354a03c2e","","Mozilla/5.0 (Windows NT 10.0; Win64; x64) AppleWebKit/537.36 (KHTML, like Gecko) Chrome/107.0.0.0 Safari/537.36","WebKit","Chrome","107.0.0.0","Windows","10.0","null","null","","<p style=""font-size: 48px;"">+</p>","3","Filler","",""
"","","","","","sentence","29859","html-keyboard-response","232","388130","0.0-6.0-1.49","42","3","2022-11-17 12:17:02","fd252370c17a9971d68c1d4354a03c2e","","Mozilla/5.0 (Windows NT 10.0; Win64; x64) AppleWebKit/537.36 (KHTML, like Gecko) Chrome/107.0.0.0 Safari/537.36","WebKit","Chrome","107.0.0.0","Windows","10.0","2233"," ","","An actress is taking a microphone","3","Filler","",""
"","","","","","fixation","29859","html-keyboard-response","233","388649","0.0-6.0-2.49","42","3","2022-11-17 12:17:02","fd252370c17a9971d68c1d4354a03c2e","","Mozilla/5.0 (Windows NT 10.0; Win64; x64) AppleWebKit/537.36 (KHTML, like Gecko) Chrome/107.0.0.0 Safari/537.36","WebKit","Chrome","107.0.0.0","Windows","10.0","null","null","","<p style=""font-size: 48px;"">+</p>","3","Filler","",""
"","","","","","picture","29859","image-keyboard-response","234","389732","0.0-6.0-3.49","42","3","2022-11-17 12:17:02","fd252370c17a9971d68c1d4354a03c2e","","Mozilla/5.0 (Windows NT 10.0; Win64; x64) AppleWebKit/537.36 (KHTML, like Gecko) Chrome/107.0.0.0 Safari/537.36","WebKit","Chrome","107.0.0.0","Windows","10.0","1067","n","","pants.jpg","3","Filler","true",""
"","","","","","fixation","29859","html-keyboard-response","235","390753","0.0-6.0-0.50","42","3","2022-11-17 12:17:02","fd252370c17a9971d68c1d4354a03c2e","","Mozilla/5.0 (Windows NT 10.0; Win64; x64) AppleWebKit/537.36 (KHTML, like Gecko) Chrome/107.0.0.0 Safari/537.36","WebKit","Chrome","107.0.0.0","Windows","10.0","null","null","","<p style=""font-size: 48px;"">+</p>","3","Filler","",""
"","","","","","sentence","29859","html-keyboard-response","236","392578","0.0-6.0-1.50","42","3","2022-11-17 12:17:02","fd252370c17a9971d68c1d4354a03c2e","","Mozilla/5.0 (Windows NT 10.0; Win64; x64) AppleWebKit/537.36 (KHTML, like Gecko) Chrome/107.0.0.0 Safari/537.36","WebKit","Chrome","107.0.0.0","Windows","10.0","1816"," ","","A cushion was placed on the magazine","3","Filler","",""
"","","","","","fixation","29859","html-keyboard-response","237","393097","0.0-6.0-2.50","42","3","2022-11-17 12:17:02","fd252370c17a9971d68c1d4354a03c2e","","Mozilla/5.0 (Windows NT 10.0; Win64; x64) AppleWebKit/537.36 (KHTML, like Gecko) Chrome/107.0.0.0 Safari/537.36","WebKit","Chrome","107.0.0.0","Windows","10.0","null","null","","<p style=""font-size: 48px;"">+</p>","3","Filler","",""
"","","","","","picture","29859","image-keyboard-response","238","394230","0.0-6.0-3.50","42","3","2022-11-17 12:17:02","fd252370c17a9971d68c1d4354a03c2e","","Mozilla/5.0 (Windows NT 10.0; Win64; x64) AppleWebKit/537.36 (KHTML, like Gecko) Chrome/107.0.0.0 Safari/537.36","WebKit","Chrome","107.0.0.0","Windows","10.0","1117","n","","box.jpg","3","Filler","true",""
"","","","","","fixation","29859","html-keyboard-response","239","395249","0.0-6.0-0.51","42","3","2022-11-17 12:17:02","fd252370c17a9971d68c1d4354a03c2e","","Mozilla/5.0 (Windows NT 10.0; Win64; x64) AppleWebKit/537.36 (KHTML, like Gecko) Chrome/107.0.0.0 Safari/537.36","WebKit","Chrome","107.0.0.0","Windows","10.0","null","null","","<p style=""font-size: 48px;"">+</p>","3","Filler","",""
"","","","","","sentence","29859","html-keyboard-response","240","397073","0.0-6.0-1.51","42","3","2022-11-17 12:17:02","fd252370c17a9971d68c1d4354a03c2e","","Mozilla/5.0 (Windows NT 10.0; Win64; x64) AppleWebKit/537.36 (KHTML, like Gecko) Chrome/107.0.0.0 Safari/537.36","WebKit","Chrome","107.0.0.0","Windows","10.0","1820"," ","","A woman is taking money out of a wallet","3","Filler","",""
"","","","","","fixation","29859","html-keyboard-response","241","397586","0.0-6.0-2.51","42","3","2022-11-17 12:17:02","fd252370c17a9971d68c1d4354a03c2e","","Mozilla/5.0 (Windows NT 10.0; Win64; x64) AppleWebKit/537.36 (KHTML, like Gecko) Chrome/107.0.0.0 Safari/537.36","WebKit","Chrome","107.0.0.0","Windows","10.0","null","null","","<p style=""font-size: 48px;"">+</p>","3","Filler","",""
"","","","","","picture","29859","image-keyboard-response","242","398657","0.0-6.0-3.51","42","3","2022-11-17 12:17:02","fd252370c17a9971d68c1d4354a03c2e","","Mozilla/5.0 (Windows NT 10.0; Win64; x64) AppleWebKit/537.36 (KHTML, like Gecko) Chrome/107.0.0.0 Safari/537.36","WebKit","Chrome","107.0.0.0","Windows","10.0","1064","n","","coconut.jpg","3","Filler","true",""
"","","","","","fixation","29859","html-keyboard-response","243","399674","0.0-6.0-0.52","42","3","2022-11-17 12:17:02","fd252370c17a9971d68c1d4354a03c2e","","Mozilla/5.0 (Windows NT 10.0; Win64; x64) AppleWebKit/537.36 (KHTML, like Gecko) Chrome/107.0.0.0 Safari/537.36","WebKit","Chrome","107.0.0.0","Windows","10.0","null","null","","<p style=""font-size: 48px;"">+</p>","3","Filler","",""
"","","","","","sentence","29859","html-keyboard-response","244","400893","0.0-6.0-1.52","42","3","2022-11-17 12:17:02","fd252370c17a9971d68c1d4354a03c2e","","Mozilla/5.0 (Windows NT 10.0; Win64; x64) AppleWebKit/537.36 (KHTML, like Gecko) Chrome/107.0.0.0 Safari/537.36","WebKit","Chrome","107.0.0.0","Windows","10.0","1207"," ","","A mouse is eating cheese","3","Filler","",""
"","","","","","fixation","29859","html-keyboard-response","245","401421","0.0-6.0-2.52","42","3","2022-11-17 12:17:02","fd252370c17a9971d68c1d4354a03c2e","","Mozilla/5.0 (Windows NT 10.0; Win64; x64) AppleWebKit/537.36 (KHTML, like Gecko) Chrome/107.0.0.0 Safari/537.36","WebKit","Chrome","107.0.0.0","Windows","10.0","null","null","","<p style=""font-size: 48px;"">+</p>","3","Filler","",""
"","","","","","picture","29859","image-keyboard-response","246","402312","0.0-6.0-3.52","42","3","2022-11-17 12:17:02","fd252370c17a9971d68c1d4354a03c2e","","Mozilla/5.0 (Windows NT 10.0; Win64; x64) AppleWebKit/537.36 (KHTML, like Gecko) Chrome/107.0.0.0 Safari/537.36","WebKit","Chrome","107.0.0.0","Windows","10.0","878","n","","ring.jpg","3","Filler","true",""
"","","","","","fixation","29859","html-keyboard-response","247","403330","0.0-6.0-0.53","42","3","2022-11-17 12:17:02","fd252370c17a9971d68c1d4354a03c2e","","Mozilla/5.0 (Windows NT 10.0; Win64; x64) AppleWebKit/537.36 (KHTML, like Gecko) Chrome/107.0.0.0 Safari/537.36","WebKit","Chrome","107.0.0.0","Windows","10.0","null","null","","<p style=""font-size: 48px;"">+</p>","3","Filler","",""
"","","","","","sentence","29859","html-keyboard-response","248","405629","0.0-6.0-1.53","42","3","2022-11-17 12:17:02","fd252370c17a9971d68c1d4354a03c2e","","Mozilla/5.0 (Windows NT 10.0; Win64; x64) AppleWebKit/537.36 (KHTML, like Gecko) Chrome/107.0.0.0 Safari/537.36","WebKit","Chrome","107.0.0.0","Windows","10.0","2292"," ","","A needle was placed on the mouse pad","3","Filler","",""
