"success","timeout","failed_images","failed_audio","failed_video","typeoftrial","subject","trial_type","trial_index","time_elapsed","internal_node_id","run_id","condition","recorded_at","source_code_version","ip","user_agent","device","browser","browser_version","platform","platform_version","rt","response","Experiment","stimulus","list_number","trialcondition","correct","question_order"
"true","false","[]","[]","[]","preload","10194","preload","0","12479","0.0-0.0","53","3","2022-11-17 12:20:57","fd252370c17a9971d68c1d4354a03c2e","","Mozilla/5.0 (Windows NT 10.0; Win64; x64; rv:106.0) Gecko/20100101 Firefox/106.0","","Firefox","106.0","Windows","10.0","","","","","","","",""
"","","","","","ID","10194","survey-text","1","28404","0.0-1.0","53","3","2022-11-17 12:20:57","fd252370c17a9971d68c1d4354a03c2e","","Mozilla/5.0 (Windows NT 10.0; Win64; x64; rv:106.0) Gecko/20100101 Firefox/106.0","","Firefox","106.0","Windows","10.0","15899","{""ID"":""6108c2a4793126a1db8dcae8""}","","","","","",""
"","","","","","instructions","10194","html-button-response","2","62088","0.0-2.0","53","3","2022-11-17 12:20:57","fd252370c17a9971d68c1d4354a03c2e","","Mozilla/5.0 (Windows NT 10.0; Win64; x64; rv:106.0) Gecko/20100101 Firefox/106.0","","Firefox","106.0","Windows","10.0","33676","0","","
                    <p style=""font-size:20px;""> Welcome to the experiment! </p>
                    <p style=""font-size:20px;""> In this experiment, you will be asked to make judgments about the content of different sentences.</p>
                    <p style=""font-size:20px;""> On each trial, you will read a sentence, and will be shown a picture immediately following the sentence. </p>
                    <p style=""font-size:20px;""> Your task is to decide whether the object displayed in the picture was mentioned in the sentence or not </p>
                    <p style=""font-size:20px;""> and respond as quickly as possible by pressing <strong>S</strong> for yes or <strong>N</strong> for no. </p>
                    <p style=""font-size:20px;""> You will now do a practice session with feedback and instructions. </p>
                    <p style=""font-size:20px;""> Click the button below to continue.</p>
                    ","","","",""
"","","","","","instructions","10194","html-button-response","3","70536","0.0-3.0","53","3","2022-11-17 12:20:57","fd252370c17a9971d68c1d4354a03c2e","","Mozilla/5.0 (Windows NT 10.0; Win64; x64; rv:106.0) Gecko/20100101 Firefox/106.0","","Firefox","106.0","Windows","10.0","8438","0","","
                    <p style=""font-size:20px;""> You are about to begin the practice test. </p>
                    <p style=""font-size:20px;""> On each trial, a sentence will appear on the screen. You should press SPACEBAR when you have read and understood the sentence.</p>
                    <p style=""font-size:20px;""> After you press SPACEBAR, a picture will appear on the screen. </p>
                    <p style=""font-size:20px;""> You need to indicate whether or not the pictured object was mentioned in the sentence. </p>
                    <p style=""font-size:20px;""> If the object WAS mentioned in the preceding sentence, you should press <strong>S</strong> </p>
                    <p style=""font-size:20px;""> If the object was NOT mentioned in the preceding sentence, you should press <strong>N</strong>. </p>
                    <p style=""font-size:20px;""> Click the button below to continue to the practice session.</p>
                    ","","","",""
"","","","","","fixation","10194","html-keyboard-response","4","71546","0.0-4.0-0.0","53","3","2022-11-17 12:20:57","fd252370c17a9971d68c1d4354a03c2e","","Mozilla/5.0 (Windows NT 10.0; Win64; x64; rv:106.0) Gecko/20100101 Firefox/106.0","","Firefox","106.0","Windows","10.0","null","null","","<p style=""font-size: 48px;"">+</p>","practice","practice_n","",""
"","","","","","sentence","10194","html-keyboard-response","5","78548","0.0-4.0-1.0","53","3","2022-11-17 12:20:57","fd252370c17a9971d68c1d4354a03c2e","","Mozilla/5.0 (Windows NT 10.0; Win64; x64; rv:106.0) Gecko/20100101 Firefox/106.0","","Firefox","106.0","Windows","10.0","6993"," ","","A fork was placed on a stool","practice","practice_n","",""
"","","","","","fixation","10194","html-keyboard-response","6","79057","0.0-4.0-2.0","53","3","2022-11-17 12:20:57","fd252370c17a9971d68c1d4354a03c2e","","Mozilla/5.0 (Windows NT 10.0; Win64; x64; rv:106.0) Gecko/20100101 Firefox/106.0","","Firefox","106.0","Windows","10.0","null","null","","<p style=""font-size: 48px;"">+</p>","practice","practice_n","",""
"","","","","","picture","10194","image-keyboard-response","7","83392","0.0-4.0-3.0","53","3","2022-11-17 12:20:57","fd252370c17a9971d68c1d4354a03c2e","","Mozilla/5.0 (Windows NT 10.0; Win64; x64; rv:106.0) Gecko/20100101 Firefox/106.0","","Firefox","106.0","Windows","10.0","4314","n","","tableB.jpg","practice","practice_n","true",""
"","","","","","","","html-keyboard-response","8","85401","0.0-4.0-4.0","53","3","2022-11-17 12:20:57","fd252370c17a9971d68c1d4354a03c2e","","Mozilla/5.0 (Windows NT 10.0; Win64; x64; rv:106.0) Gecko/20100101 Firefox/106.0","","Firefox","106.0","Windows","10.0","null","null","","CORRECT!","","","",""
"","","","","","fixation","10194","html-keyboard-response","9","86405","0.0-4.0-0.1","53","3","2022-11-17 12:20:57","fd252370c17a9971d68c1d4354a03c2e","","Mozilla/5.0 (Windows NT 10.0; Win64; x64; rv:106.0) Gecko/20100101 Firefox/106.0","","Firefox","106.0","Windows","10.0","null","null","","<p style=""font-size: 48px;"">+</p>","practice","practice_s","",""
"","","","","","sentence","10194","html-keyboard-response","10","88776","0.0-4.0-1.1","53","3","2022-11-17 12:20:57","fd252370c17a9971d68c1d4354a03c2e","","Mozilla/5.0 (Windows NT 10.0; Win64; x64; rv:106.0) Gecko/20100101 Firefox/106.0","","Firefox","106.0","Windows","10.0","2364"," ","","A knife was placed on a hammer","practice","practice_s","",""
"","","","","","fixation","10194","html-keyboard-response","11","89286","0.0-4.0-2.1","53","3","2022-11-17 12:20:57","fd252370c17a9971d68c1d4354a03c2e","","Mozilla/5.0 (Windows NT 10.0; Win64; x64; rv:106.0) Gecko/20100101 Firefox/106.0","","Firefox","106.0","Windows","10.0","null","null","","<p style=""font-size: 48px;"">+</p>","practice","practice_s","",""
"","","","","","picture","10194","image-keyboard-response","12","91133","0.0-4.0-3.1","53","3","2022-11-17 12:20:57","fd252370c17a9971d68c1d4354a03c2e","","Mozilla/5.0 (Windows NT 10.0; Win64; x64; rv:106.0) Gecko/20100101 Firefox/106.0","","Firefox","106.0","Windows","10.0","1830","n","","hammerB.jpg","practice","practice_s","false",""
"","","","","","","","html-keyboard-response","13","93139","0.0-4.0-4.1","53","3","2022-11-17 12:20:57","fd252370c17a9971d68c1d4354a03c2e","","Mozilla/5.0 (Windows NT 10.0; Win64; x64; rv:106.0) Gecko/20100101 Firefox/106.0","","Firefox","106.0","Windows","10.0","null","null","","WRONG!","","","",""
"","","","","","fixation","10194","html-keyboard-response","14","94149","0.0-4.0-0.2","53","3","2022-11-17 12:20:57","fd252370c17a9971d68c1d4354a03c2e","","Mozilla/5.0 (Windows NT 10.0; Win64; x64; rv:106.0) Gecko/20100101 Firefox/106.0","","Firefox","106.0","Windows","10.0","null","null","","<p style=""font-size: 48px;"">+</p>","practice","practice_s","",""
"","","","","","sentence","10194","html-keyboard-response","15","97453","0.0-4.0-1.2","53","3","2022-11-17 12:20:57","fd252370c17a9971d68c1d4354a03c2e","","Mozilla/5.0 (Windows NT 10.0; Win64; x64; rv:106.0) Gecko/20100101 Firefox/106.0","","Firefox","106.0","Windows","10.0","3299"," ","","A balloon dropped and touched a cigarette","practice","practice_s","",""
"","","","","","fixation","10194","html-keyboard-response","16","97961","0.0-4.0-2.2","53","3","2022-11-17 12:20:57","fd252370c17a9971d68c1d4354a03c2e","","Mozilla/5.0 (Windows NT 10.0; Win64; x64; rv:106.0) Gecko/20100101 Firefox/106.0","","Firefox","106.0","Windows","10.0","null","null","","<p style=""font-size: 48px;"">+</p>","practice","practice_s","",""
"","","","","","picture","10194","image-keyboard-response","17","99518","0.0-4.0-3.2","53","3","2022-11-17 12:20:57","fd252370c17a9971d68c1d4354a03c2e","","Mozilla/5.0 (Windows NT 10.0; Win64; x64; rv:106.0) Gecko/20100101 Firefox/106.0","","Firefox","106.0","Windows","10.0","1539","s","","cigaretteB.jpg","practice","practice_s","true",""
"","","","","","","","html-keyboard-response","18","101524","0.0-4.0-4.2","53","3","2022-11-17 12:20:57","fd252370c17a9971d68c1d4354a03c2e","","Mozilla/5.0 (Windows NT 10.0; Win64; x64; rv:106.0) Gecko/20100101 Firefox/106.0","","Firefox","106.0","Windows","10.0","null","null","","CORRECT!","","","",""
"","","","","","fixation","10194","html-keyboard-response","19","102532","0.0-4.0-0.3","53","3","2022-11-17 12:20:57","fd252370c17a9971d68c1d4354a03c2e","","Mozilla/5.0 (Windows NT 10.0; Win64; x64; rv:106.0) Gecko/20100101 Firefox/106.0","","Firefox","106.0","Windows","10.0","null","null","","<p style=""font-size: 48px;"">+</p>","practice","practice_s","",""
"","","","","","sentence","10194","html-keyboard-response","20","104341","0.0-4.0-1.3","53","3","2022-11-17 12:20:57","fd252370c17a9971d68c1d4354a03c2e","","Mozilla/5.0 (Windows NT 10.0; Win64; x64; rv:106.0) Gecko/20100101 Firefox/106.0","","Firefox","106.0","Windows","10.0","1803"," ","","A bowling ball dropped and smashed a teacup","practice","practice_s","",""
"","","","","","fixation","10194","html-keyboard-response","21","104849","0.0-4.0-2.3","53","3","2022-11-17 12:20:57","fd252370c17a9971d68c1d4354a03c2e","","Mozilla/5.0 (Windows NT 10.0; Win64; x64; rv:106.0) Gecko/20100101 Firefox/106.0","","Firefox","106.0","Windows","10.0","null","null","","<p style=""font-size: 48px;"">+</p>","practice","practice_s","",""
"","","","","","picture","10194","image-keyboard-response","22","105745","0.0-4.0-3.3","53","3","2022-11-17 12:20:57","fd252370c17a9971d68c1d4354a03c2e","","Mozilla/5.0 (Windows NT 10.0; Win64; x64; rv:106.0) Gecko/20100101 Firefox/106.0","","Firefox","106.0","Windows","10.0","882","s","","cupB.jpg","practice","practice_s","true",""
"","","","","","","","html-keyboard-response","23","107752","0.0-4.0-4.3","53","3","2022-11-17 12:20:57","fd252370c17a9971d68c1d4354a03c2e","","Mozilla/5.0 (Windows NT 10.0; Win64; x64; rv:106.0) Gecko/20100101 Firefox/106.0","","Firefox","106.0","Windows","10.0","null","null","","CORRECT!","","","",""
"","","","","","fixation","10194","html-keyboard-response","24","108758","0.0-4.0-0.4","53","3","2022-11-17 12:20:57","fd252370c17a9971d68c1d4354a03c2e","","Mozilla/5.0 (Windows NT 10.0; Win64; x64; rv:106.0) Gecko/20100101 Firefox/106.0","","Firefox","106.0","Windows","10.0","null","null","","<p style=""font-size: 48px;"">+</p>","practice","practice_n","",""
"","","","","","sentence","10194","html-keyboard-response","25","110113","0.0-4.0-1.4","53","3","2022-11-17 12:20:57","fd252370c17a9971d68c1d4354a03c2e","","Mozilla/5.0 (Windows NT 10.0; Win64; x64; rv:106.0) Gecko/20100101 Firefox/106.0","","Firefox","106.0","Windows","10.0","1349"," ","","A balloon dropped and smashed a cup","practice","practice_n","",""
"","","","","","fixation","10194","html-keyboard-response","26","110621","0.0-4.0-2.4","53","3","2022-11-17 12:20:57","fd252370c17a9971d68c1d4354a03c2e","","Mozilla/5.0 (Windows NT 10.0; Win64; x64; rv:106.0) Gecko/20100101 Firefox/106.0","","Firefox","106.0","Windows","10.0","null","null","","<p style=""font-size: 48px;"">+</p>","practice","practice_n","",""
"","","","","","picture","10194","image-keyboard-response","27","111245","0.0-4.0-3.4","53","3","2022-11-17 12:20:57","fd252370c17a9971d68c1d4354a03c2e","","Mozilla/5.0 (Windows NT 10.0; Win64; x64; rv:106.0) Gecko/20100101 Firefox/106.0","","Firefox","106.0","Windows","10.0","607","n","","bananaB.jpg","practice","practice_n","true",""
"","","","","","","","html-keyboard-response","28","113249","0.0-4.0-4.4","53","3","2022-11-17 12:20:57","fd252370c17a9971d68c1d4354a03c2e","","Mozilla/5.0 (Windows NT 10.0; Win64; x64; rv:106.0) Gecko/20100101 Firefox/106.0","","Firefox","106.0","Windows","10.0","null","null","","CORRECT!","","","",""
"","","","","","fixation","10194","html-keyboard-response","29","114258","0.0-4.0-0.5","53","3","2022-11-17 12:20:57","fd252370c17a9971d68c1d4354a03c2e","","Mozilla/5.0 (Windows NT 10.0; Win64; x64; rv:106.0) Gecko/20100101 Firefox/106.0","","Firefox","106.0","Windows","10.0","null","null","","<p style=""font-size: 48px;"">+</p>","practice","practice_n","",""
"","","","","","sentence","10194","html-keyboard-response","30","115343","0.0-4.0-1.5","53","3","2022-11-17 12:20:57","fd252370c17a9971d68c1d4354a03c2e","","Mozilla/5.0 (Windows NT 10.0; Win64; x64; rv:106.0) Gecko/20100101 Firefox/106.0","","Firefox","106.0","Windows","10.0","1079"," ","","A bowling ball dropped and touched a bottle","practice","practice_n","",""
"","","","","","fixation","10194","html-keyboard-response","31","115851","0.0-4.0-2.5","53","3","2022-11-17 12:20:57","fd252370c17a9971d68c1d4354a03c2e","","Mozilla/5.0 (Windows NT 10.0; Win64; x64; rv:106.0) Gecko/20100101 Firefox/106.0","","Firefox","106.0","Windows","10.0","null","null","","<p style=""font-size: 48px;"">+</p>","practice","practice_n","",""
"","","","","","picture","10194","image-keyboard-response","32","116408","0.0-4.0-3.5","53","3","2022-11-17 12:20:57","fd252370c17a9971d68c1d4354a03c2e","","Mozilla/5.0 (Windows NT 10.0; Win64; x64; rv:106.0) Gecko/20100101 Firefox/106.0","","Firefox","106.0","Windows","10.0","539","s","","bookB.jpg","practice","practice_n","false",""
"","","","","","","","html-keyboard-response","33","118416","0.0-4.0-4.5","53","3","2022-11-17 12:20:57","fd252370c17a9971d68c1d4354a03c2e","","Mozilla/5.0 (Windows NT 10.0; Win64; x64; rv:106.0) Gecko/20100101 Firefox/106.0","","Firefox","106.0","Windows","10.0","null","null","","WRONG!","","","",""
"","","","","","movetoexp","10194","html-button-response","34","134001","0.0-5.0","53","3","2022-11-17 12:20:57","fd252370c17a9971d68c1d4354a03c2e","","Mozilla/5.0 (Windows NT 10.0; Win64; x64; rv:106.0) Gecko/20100101 Firefox/106.0","","Firefox","106.0","Windows","10.0","15576","0","","<p style=""font-size:20px;"">You have now completed the practice session! </p>
                    <p style=""font-size:20px;"">You will now move on to the main experiment, where you will not be provided any feedback. </p>
                    <p style=""font-size:20px;"">Remember, you should press <strong>S</strong> if the pictured object was mentioned in the preceding sentence<br> and <strong>N</strong> if the pictured object was not mentioned in the preceding sentence.</p>
                    <p style=""font-size:20px;"">Please click the button below to continue to the main experiment. </p>","","","",""
"","","","","","fixation","10194","html-keyboard-response","35","135034","0.0-6.0-0.0","53","3","2022-11-17 12:20:57","fd252370c17a9971d68c1d4354a03c2e","","Mozilla/5.0 (Windows NT 10.0; Win64; x64; rv:106.0) Gecko/20100101 Firefox/106.0","","Firefox","106.0","Windows","10.0","null","null","","<p style=""font-size: 48px;"">+</p>","3","Filler","",""
"","","","","","sentence","10194","html-keyboard-response","36","136148","0.0-6.0-1.0","53","3","2022-11-17 12:20:57","fd252370c17a9971d68c1d4354a03c2e","","Mozilla/5.0 (Windows NT 10.0; Win64; x64; rv:106.0) Gecko/20100101 Firefox/106.0","","Firefox","106.0","Windows","10.0","1102"," ","","A keyboard was placed on the bed","3","Filler","",""
"","","","","","fixation","10194","html-keyboard-response","37","136666","0.0-6.0-2.0","53","3","2022-11-17 12:20:57","fd252370c17a9971d68c1d4354a03c2e","","Mozilla/5.0 (Windows NT 10.0; Win64; x64; rv:106.0) Gecko/20100101 Firefox/106.0","","Firefox","106.0","Windows","10.0","null","null","","<p style=""font-size: 48px;"">+</p>","3","Filler","",""
"","","","","","picture","10194","image-keyboard-response","38","137869","0.0-6.0-3.0","53","3","2022-11-17 12:20:57","fd252370c17a9971d68c1d4354a03c2e","","Mozilla/5.0 (Windows NT 10.0; Win64; x64; rv:106.0) Gecko/20100101 Firefox/106.0","","Firefox","106.0","Windows","10.0","1182","n","","bottlecap.jpg","3","Filler","true",""
"","","","","","fixation","10194","html-keyboard-response","39","138881","0.0-6.0-0.1","53","3","2022-11-17 12:20:57","fd252370c17a9971d68c1d4354a03c2e","","Mozilla/5.0 (Windows NT 10.0; Win64; x64; rv:106.0) Gecko/20100101 Firefox/106.0","","Firefox","106.0","Windows","10.0","null","null","","<p style=""font-size: 48px;"">+</p>","3","Filler","",""
"","","","","","sentence","10194","html-keyboard-response","40","140435","0.0-6.0-1.1","53","3","2022-11-17 12:20:57","fd252370c17a9971d68c1d4354a03c2e","","Mozilla/5.0 (Windows NT 10.0; Win64; x64; rv:106.0) Gecko/20100101 Firefox/106.0","","Firefox","106.0","Windows","10.0","1545"," ","","A woman is paying with a debit card","3","Filler","",""
"","","","","","fixation","10194","html-keyboard-response","41","140946","0.0-6.0-2.1","53","3","2022-11-17 12:20:57","fd252370c17a9971d68c1d4354a03c2e","","Mozilla/5.0 (Windows NT 10.0; Win64; x64; rv:106.0) Gecko/20100101 Firefox/106.0","","Firefox","106.0","Windows","10.0","null","null","","<p style=""font-size: 48px;"">+</p>","3","Filler","",""
"","","","","","picture","10194","image-keyboard-response","42","141622","0.0-6.0-3.1","53","3","2022-11-17 12:20:57","fd252370c17a9971d68c1d4354a03c2e","","Mozilla/5.0 (Windows NT 10.0; Win64; x64; rv:106.0) Gecko/20100101 Firefox/106.0","","Firefox","106.0","Windows","10.0","651","n","","papercup.jpg","3","Filler","true",""
"","","","","","fixation","10194","html-keyboard-response","43","142635","0.0-6.0-0.2","53","3","2022-11-17 12:20:57","fd252370c17a9971d68c1d4354a03c2e","","Mozilla/5.0 (Windows NT 10.0; Win64; x64; rv:106.0) Gecko/20100101 Firefox/106.0","","Firefox","106.0","Windows","10.0","null","null","","<p style=""font-size: 48px;"">+</p>","3","Filler","",""
"","","","","","sentence","10194","html-keyboard-response","44","143775","0.0-6.0-1.2","53","3","2022-11-17 12:20:57","fd252370c17a9971d68c1d4354a03c2e","","Mozilla/5.0 (Windows NT 10.0; Win64; x64; rv:106.0) Gecko/20100101 Firefox/106.0","","Firefox","106.0","Windows","10.0","1133"," ","","A teenage girl is playing the piano","3","Filler","",""
"","","","","","fixation","10194","html-keyboard-response","45","144288","0.0-6.0-2.2","53","3","2022-11-17 12:20:57","fd252370c17a9971d68c1d4354a03c2e","","Mozilla/5.0 (Windows NT 10.0; Win64; x64; rv:106.0) Gecko/20100101 Firefox/106.0","","Firefox","106.0","Windows","10.0","null","null","","<p style=""font-size: 48px;"">+</p>","3","Filler","",""
"","","","","","picture","10194","image-keyboard-response","46","145471","0.0-6.0-3.2","53","3","2022-11-17 12:20:57","fd252370c17a9971d68c1d4354a03c2e","","Mozilla/5.0 (Windows NT 10.0; Win64; x64; rv:106.0) Gecko/20100101 Firefox/106.0","","Firefox","106.0","Windows","10.0","1153","n","","pillow.jpg","3","Filler","true",""
"","","","","","fixation","10194","html-keyboard-response","47","146480","0.0-6.0-0.3","53","3","2022-11-17 12:20:57","fd252370c17a9971d68c1d4354a03c2e","","Mozilla/5.0 (Windows NT 10.0; Win64; x64; rv:106.0) Gecko/20100101 Firefox/106.0","","Firefox","106.0","Windows","10.0","null","null","","<p style=""font-size: 48px;"">+</p>","3","Light_Contradictory","",""
"","","","","","sentence","10194","html-keyboard-response","48","147628","0.0-6.0-1.3","53","3","2022-11-17 12:20:57","fd252370c17a9971d68c1d4354a03c2e","","Mozilla/5.0 (Windows NT 10.0; Win64; x64; rv:106.0) Gecko/20100101 Firefox/106.0","","Firefox","106.0","Windows","10.0","1139"," ","","A balloon dropped and smashed glasses","3","Light_Contradictory","",""
"","","","","","fixation","10194","html-keyboard-response","49","148137","0.0-6.0-2.3","53","3","2022-11-17 12:20:57","fd252370c17a9971d68c1d4354a03c2e","","Mozilla/5.0 (Windows NT 10.0; Win64; x64; rv:106.0) Gecko/20100101 Firefox/106.0","","Firefox","106.0","Windows","10.0","null","null","","<p style=""font-size: 48px;"">+</p>","3","Light_Contradictory","",""
"","","","","","picture","10194","image-keyboard-response","50","148800","0.0-6.0-3.3","53","3","2022-11-17 12:20:57","fd252370c17a9971d68c1d4354a03c2e","","Mozilla/5.0 (Windows NT 10.0; Win64; x64; rv:106.0) Gecko/20100101 Firefox/106.0","","Firefox","106.0","Windows","10.0","637","n","","glassesS.jpg","3","Light_Contradictory","false",""
"","","","","","fixation","10194","html-keyboard-response","51","149810","0.0-6.0-0.4","53","3","2022-11-17 12:20:57","fd252370c17a9971d68c1d4354a03c2e","","Mozilla/5.0 (Windows NT 10.0; Win64; x64; rv:106.0) Gecko/20100101 Firefox/106.0","","Firefox","106.0","Windows","10.0","null","null","","<p style=""font-size: 48px;"">+</p>","3","Heavy_Contradictory","",""
"","","","","","sentence","10194","html-keyboard-response","52","150806","0.0-6.0-1.4","53","3","2022-11-17 12:20:57","fd252370c17a9971d68c1d4354a03c2e","","Mozilla/5.0 (Windows NT 10.0; Win64; x64; rv:106.0) Gecko/20100101 Firefox/106.0","","Firefox","106.0","Windows","10.0","987"," ","","A bowling ball dropped and touched a tomato","3","Heavy_Contradictory","",""
"","","","","","fixation","10194","html-keyboard-response","53","151318","0.0-6.0-2.4","53","3","2022-11-17 12:20:57","fd252370c17a9971d68c1d4354a03c2e","","Mozilla/5.0 (Windows NT 10.0; Win64; x64; rv:106.0) Gecko/20100101 Firefox/106.0","","Firefox","106.0","Windows","10.0","null","null","","<p style=""font-size: 48px;"">+</p>","3","Heavy_Contradictory","",""
"","","","","","picture","10194","image-keyboard-response","54","151910","0.0-6.0-3.4","53","3","2022-11-17 12:20:57","fd252370c17a9971d68c1d4354a03c2e","","Mozilla/5.0 (Windows NT 10.0; Win64; x64; rv:106.0) Gecko/20100101 Firefox/106.0","","Firefox","106.0","Windows","10.0","563","s","","tomatoS.jpg","3","Heavy_Contradictory","true",""
"","","","","","fixation","10194","html-keyboard-response","55","152922","0.0-6.0-0.5","53","3","2022-11-17 12:20:57","fd252370c17a9971d68c1d4354a03c2e","","Mozilla/5.0 (Windows NT 10.0; Win64; x64; rv:106.0) Gecko/20100101 Firefox/106.0","","Firefox","106.0","Windows","10.0","null","null","","<p style=""font-size: 48px;"">+</p>","3","Light_Contradictory","",""
"","","","","","sentence","10194","html-keyboard-response","56","154215","0.0-6.0-1.5","53","3","2022-11-17 12:20:57","fd252370c17a9971d68c1d4354a03c2e","","Mozilla/5.0 (Windows NT 10.0; Win64; x64; rv:106.0) Gecko/20100101 Firefox/106.0","","Firefox","106.0","Windows","10.0","1284"," ","","A balloon dropped and smashed an egg flan","3","Light_Contradictory","",""
"","","","","","fixation","10194","html-keyboard-response","57","154724","0.0-6.0-2.5","53","3","2022-11-17 12:20:57","fd252370c17a9971d68c1d4354a03c2e","","Mozilla/5.0 (Windows NT 10.0; Win64; x64; rv:106.0) Gecko/20100101 Firefox/106.0","","Firefox","106.0","Windows","10.0","null","null","","<p style=""font-size: 48px;"">+</p>","3","Light_Contradictory","",""
"","","","","","picture","10194","image-keyboard-response","58","155289","0.0-6.0-3.5","53","3","2022-11-17 12:20:57","fd252370c17a9971d68c1d4354a03c2e","","Mozilla/5.0 (Windows NT 10.0; Win64; x64; rv:106.0) Gecko/20100101 Firefox/106.0","","Firefox","106.0","Windows","10.0","538","s","","eggflanS.jpg","3","Light_Contradictory","true",""
"","","","","","fixation","10194","html-keyboard-response","59","156302","0.0-6.0-0.6","53","3","2022-11-17 12:20:57","fd252370c17a9971d68c1d4354a03c2e","","Mozilla/5.0 (Windows NT 10.0; Win64; x64; rv:106.0) Gecko/20100101 Firefox/106.0","","Firefox","106.0","Windows","10.0","null","null","","<p style=""font-size: 48px;"">+</p>","3","Filler","",""
"","","","","","sentence","10194","html-keyboard-response","60","156328","0.0-6.0-1.6","53","3","2022-11-17 12:20:57","fd252370c17a9971d68c1d4354a03c2e","","Mozilla/5.0 (Windows NT 10.0; Win64; x64; rv:106.0) Gecko/20100101 Firefox/106.0","","Firefox","106.0","Windows","10.0","17"," ","","A cook is taking a knife","3","Filler","",""
"","","","","","fixation","10194","html-keyboard-response","61","156839","0.0-6.0-2.6","53","3","2022-11-17 12:20:57","fd252370c17a9971d68c1d4354a03c2e","","Mozilla/5.0 (Windows NT 10.0; Win64; x64; rv:106.0) Gecko/20100101 Firefox/106.0","","Firefox","106.0","Windows","10.0","null","null","","<p style=""font-size: 48px;"">+</p>","3","Filler","",""
"","","","","","picture","10194","image-keyboard-response","62","158228","0.0-6.0-3.6","53","3","2022-11-17 12:20:57","fd252370c17a9971d68c1d4354a03c2e","","Mozilla/5.0 (Windows NT 10.0; Win64; x64; rv:106.0) Gecko/20100101 Firefox/106.0","","Firefox","106.0","Windows","10.0","1367","s","","knife.jpg","3","Filler","true",""
"","","","","","fixation","10194","html-keyboard-response","63","159240","0.0-6.0-0.7","53","3","2022-11-17 12:20:57","fd252370c17a9971d68c1d4354a03c2e","","Mozilla/5.0 (Windows NT 10.0; Win64; x64; rv:106.0) Gecko/20100101 Firefox/106.0","","Firefox","106.0","Windows","10.0","null","null","","<p style=""font-size: 48px;"">+</p>","3","Light_Contradictory","",""
"","","","","","sentence","10194","html-keyboard-response","64","160361","0.0-6.0-1.7","53","3","2022-11-17 12:20:57","fd252370c17a9971d68c1d4354a03c2e","","Mozilla/5.0 (Windows NT 10.0; Win64; x64; rv:106.0) Gecko/20100101 Firefox/106.0","","Firefox","106.0","Windows","10.0","1113"," ","","A balloon dropped and smashed a banana","3","Light_Contradictory","",""
"","","","","","fixation","10194","html-keyboard-response","65","160873","0.0-6.0-2.7","53","3","2022-11-17 12:20:57","fd252370c17a9971d68c1d4354a03c2e","","Mozilla/5.0 (Windows NT 10.0; Win64; x64; rv:106.0) Gecko/20100101 Firefox/106.0","","Firefox","106.0","Windows","10.0","null","null","","<p style=""font-size: 48px;"">+</p>","3","Light_Contradictory","",""
"","","","","","picture","10194","image-keyboard-response","66","161544","0.0-6.0-3.7","53","3","2022-11-17 12:20:57","fd252370c17a9971d68c1d4354a03c2e","","Mozilla/5.0 (Windows NT 10.0; Win64; x64; rv:106.0) Gecko/20100101 Firefox/106.0","","Firefox","106.0","Windows","10.0","640","s","","bananaS.jpg","3","Light_Contradictory","true",""
"","","","","","fixation","10194","html-keyboard-response","67","162555","0.0-6.0-0.8","53","3","2022-11-17 12:20:57","fd252370c17a9971d68c1d4354a03c2e","","Mozilla/5.0 (Windows NT 10.0; Win64; x64; rv:106.0) Gecko/20100101 Firefox/106.0","","Firefox","106.0","Windows","10.0","null","null","","<p style=""font-size: 48px;"">+</p>","3","Filler","",""
"","","","","","sentence","10194","html-keyboard-response","68","163357","0.0-6.0-1.8","53","3","2022-11-17 12:20:57","fd252370c17a9971d68c1d4354a03c2e","","Mozilla/5.0 (Windows NT 10.0; Win64; x64; rv:106.0) Gecko/20100101 Firefox/106.0","","Firefox","106.0","Windows","10.0","792"," ","","A mouse is eating cheese","3","Filler","",""
"","","","","","fixation","10194","html-keyboard-response","69","163869","0.0-6.0-2.8","53","3","2022-11-17 12:20:57","fd252370c17a9971d68c1d4354a03c2e","","Mozilla/5.0 (Windows NT 10.0; Win64; x64; rv:106.0) Gecko/20100101 Firefox/106.0","","Firefox","106.0","Windows","10.0","null","null","","<p style=""font-size: 48px;"">+</p>","3","Filler","",""
"","","","","","picture","10194","image-keyboard-response","70","164366","0.0-6.0-3.8","53","3","2022-11-17 12:20:57","fd252370c17a9971d68c1d4354a03c2e","","Mozilla/5.0 (Windows NT 10.0; Win64; x64; rv:106.0) Gecko/20100101 Firefox/106.0","","Firefox","106.0","Windows","10.0","476","n","","ring.jpg","3","Filler","true",""
"","","","","","fixation","10194","html-keyboard-response","71","165380","0.0-6.0-0.9","53","3","2022-11-17 12:20:57","fd252370c17a9971d68c1d4354a03c2e","","Mozilla/5.0 (Windows NT 10.0; Win64; x64; rv:106.0) Gecko/20100101 Firefox/106.0","","Firefox","106.0","Windows","10.0","null","null","","<p style=""font-size: 48px;"">+</p>","3","Filler","",""
"","","","","","sentence","10194","html-keyboard-response","72","166483","0.0-6.0-1.9","53","3","2022-11-17 12:20:57","fd252370c17a9971d68c1d4354a03c2e","","Mozilla/5.0 (Windows NT 10.0; Win64; x64; rv:106.0) Gecko/20100101 Firefox/106.0","","Firefox","106.0","Windows","10.0","1093"," ","","A nurse is taking a syringe","3","Filler","",""
"","","","","","fixation","10194","html-keyboard-response","73","166997","0.0-6.0-2.9","53","3","2022-11-17 12:20:57","fd252370c17a9971d68c1d4354a03c2e","","Mozilla/5.0 (Windows NT 10.0; Win64; x64; rv:106.0) Gecko/20100101 Firefox/106.0","","Firefox","106.0","Windows","10.0","null","null","","<p style=""font-size: 48px;"">+</p>","3","Filler","",""
"","","","","","picture","10194","image-keyboard-response","74","167591","0.0-6.0-3.9","53","3","2022-11-17 12:20:57","fd252370c17a9971d68c1d4354a03c2e","","Mozilla/5.0 (Windows NT 10.0; Win64; x64; rv:106.0) Gecko/20100101 Firefox/106.0","","Firefox","106.0","Windows","10.0","571","s","","headphones.jpg","3","Filler","false",""
"","","","","","fixation","10194","html-keyboard-response","75","168604","0.0-6.0-0.10","53","3","2022-11-17 12:20:57","fd252370c17a9971d68c1d4354a03c2e","","Mozilla/5.0 (Windows NT 10.0; Win64; x64; rv:106.0) Gecko/20100101 Firefox/106.0","","Firefox","106.0","Windows","10.0","null","null","","<p style=""font-size: 48px;"">+</p>","3","Filler","",""
"","","","","","sentence","10194","html-keyboard-response","76","169463","0.0-6.0-1.10","53","3","2022-11-17 12:20:57","fd252370c17a9971d68c1d4354a03c2e","","Mozilla/5.0 (Windows NT 10.0; Win64; x64; rv:106.0) Gecko/20100101 Firefox/106.0","","Firefox","106.0","Windows","10.0","848"," ","","A man is playing with a cat","3","Filler","",""
"","","","","","fixation","10194","html-keyboard-response","77","169974","0.0-6.0-2.10","53","3","2022-11-17 12:20:57","fd252370c17a9971d68c1d4354a03c2e","","Mozilla/5.0 (Windows NT 10.0; Win64; x64; rv:106.0) Gecko/20100101 Firefox/106.0","","Firefox","106.0","Windows","10.0","null","null","","<p style=""font-size: 48px;"">+</p>","3","Filler","",""
"","","","","","picture","10194","image-keyboard-response","78","171039","0.0-6.0-3.10","53","3","2022-11-17 12:20:57","fd252370c17a9971d68c1d4354a03c2e","","Mozilla/5.0 (Windows NT 10.0; Win64; x64; rv:106.0) Gecko/20100101 Firefox/106.0","","Firefox","106.0","Windows","10.0","1041","n","","ceramicplate.jpg","3","Filler","true",""
"","","","","","fixation","10194","html-keyboard-response","79","172053","0.0-6.0-0.11","53","3","2022-11-17 12:20:57","fd252370c17a9971d68c1d4354a03c2e","","Mozilla/5.0 (Windows NT 10.0; Win64; x64; rv:106.0) Gecko/20100101 Firefox/106.0","","Firefox","106.0","Windows","10.0","null","null","","<p style=""font-size: 48px;"">+</p>","3","Filler","",""
"","","","","","sentence","10194","html-keyboard-response","80","172884","0.0-6.0-1.11","53","3","2022-11-17 12:20:57","fd252370c17a9971d68c1d4354a03c2e","","Mozilla/5.0 (Windows NT 10.0; Win64; x64; rv:106.0) Gecko/20100101 Firefox/106.0","","Firefox","106.0","Windows","10.0","818"," ","","A hairdresser is taking scissors","3","Filler","",""
"","","","","","fixation","10194","html-keyboard-response","81","173398","0.0-6.0-2.11","53","3","2022-11-17 12:20:57","fd252370c17a9971d68c1d4354a03c2e","","Mozilla/5.0 (Windows NT 10.0; Win64; x64; rv:106.0) Gecko/20100101 Firefox/106.0","","Firefox","106.0","Windows","10.0","null","null","","<p style=""font-size: 48px;"">+</p>","3","Filler","",""
"","","","","","picture","10194","image-keyboard-response","82","173992","0.0-6.0-3.11","53","3","2022-11-17 12:20:57","fd252370c17a9971d68c1d4354a03c2e","","Mozilla/5.0 (Windows NT 10.0; Win64; x64; rv:106.0) Gecko/20100101 Firefox/106.0","","Firefox","106.0","Windows","10.0","573","n","","sock.jpg","3","Filler","true",""
"","","","","","fixation","10194","html-keyboard-response","83","175006","0.0-6.0-0.12","53","3","2022-11-17 12:20:57","fd252370c17a9971d68c1d4354a03c2e","","Mozilla/5.0 (Windows NT 10.0; Win64; x64; rv:106.0) Gecko/20100101 Firefox/106.0","","Firefox","106.0","Windows","10.0","null","null","","<p style=""font-size: 48px;"">+</p>","3","Filler","",""
"","","","","","sentence","10194","html-keyboard-response","84","176162","0.0-6.0-1.12","53","3","2022-11-17 12:20:57","fd252370c17a9971d68c1d4354a03c2e","","Mozilla/5.0 (Windows NT 10.0; Win64; x64; rv:106.0) Gecko/20100101 Firefox/106.0","","Firefox","106.0","Windows","10.0","1145"," ","","A police officer is talking on the phone","3","Filler","",""
"","","","","","fixation","10194","html-keyboard-response","85","176677","0.0-6.0-2.12","53","3","2022-11-17 12:20:57","fd252370c17a9971d68c1d4354a03c2e","","Mozilla/5.0 (Windows NT 10.0; Win64; x64; rv:106.0) Gecko/20100101 Firefox/106.0","","Firefox","106.0","Windows","10.0","null","null","","<p style=""font-size: 48px;"">+</p>","3","Filler","",""
"","","","","","picture","10194","image-keyboard-response","86","177500","0.0-6.0-3.12","53","3","2022-11-17 12:20:57","fd252370c17a9971d68c1d4354a03c2e","","Mozilla/5.0 (Windows NT 10.0; Win64; x64; rv:106.0) Gecko/20100101 Firefox/106.0","","Firefox","106.0","Windows","10.0","802","n","","tissuebox.jpg","3","Filler","true",""
"","","","","","fixation","10194","html-keyboard-response","87","178514","0.0-6.0-0.13","53","3","2022-11-17 12:20:57","fd252370c17a9971d68c1d4354a03c2e","","Mozilla/5.0 (Windows NT 10.0; Win64; x64; rv:106.0) Gecko/20100101 Firefox/106.0","","Firefox","106.0","Windows","10.0","null","null","","<p style=""font-size: 48px;"">+</p>","3","Filler","",""
"","","","","","sentence","10194","html-keyboard-response","88","179337","0.0-6.0-1.13","53","3","2022-11-17 12:20:57","fd252370c17a9971d68c1d4354a03c2e","","Mozilla/5.0 (Windows NT 10.0; Win64; x64; rv:106.0) Gecko/20100101 Firefox/106.0","","Firefox","106.0","Windows","10.0","811"," ","","An owl is sitting on the branch","3","Filler","",""
"","","","","","fixation","10194","html-keyboard-response","89","179852","0.0-6.0-2.13","53","3","2022-11-17 12:20:57","fd252370c17a9971d68c1d4354a03c2e","","Mozilla/5.0 (Windows NT 10.0; Win64; x64; rv:106.0) Gecko/20100101 Firefox/106.0","","Firefox","106.0","Windows","10.0","null","null","","<p style=""font-size: 48px;"">+</p>","3","Filler","",""
"","","","","","picture","10194","image-keyboard-response","90","180658","0.0-6.0-3.13","53","3","2022-11-17 12:20:57","fd252370c17a9971d68c1d4354a03c2e","","Mozilla/5.0 (Windows NT 10.0; Win64; x64; rv:106.0) Gecko/20100101 Firefox/106.0","","Firefox","106.0","Windows","10.0","782","n","","rubberduck.jpg","3","Filler","true",""
"","","","","","fixation","10194","html-keyboard-response","91","181674","0.0-6.0-0.14","53","3","2022-11-17 12:20:57","fd252370c17a9971d68c1d4354a03c2e","","Mozilla/5.0 (Windows NT 10.0; Win64; x64; rv:106.0) Gecko/20100101 Firefox/106.0","","Firefox","106.0","Windows","10.0","null","null","","<p style=""font-size: 48px;"">+</p>","3","Heavy_Matched","",""
"","","","","","sentence","10194","html-keyboard-response","92","182806","0.0-6.0-1.14","53","3","2022-11-17 12:20:57","fd252370c17a9971d68c1d4354a03c2e","","Mozilla/5.0 (Windows NT 10.0; Win64; x64; rv:106.0) Gecko/20100101 Firefox/106.0","","Firefox","106.0","Windows","10.0","1119"," ","","A bowling ball dropped and smashed a mirror","3","Heavy_Matched","",""
"","","","","","fixation","10194","html-keyboard-response","93","183321","0.0-6.0-2.14","53","3","2022-11-17 12:20:57","fd252370c17a9971d68c1d4354a03c2e","","Mozilla/5.0 (Windows NT 10.0; Win64; x64; rv:106.0) Gecko/20100101 Firefox/106.0","","Firefox","106.0","Windows","10.0","null","null","","<p style=""font-size: 48px;"">+</p>","3","Heavy_Matched","",""
"","","","","","picture","10194","image-keyboard-response","94","183959","0.0-6.0-3.14","53","3","2022-11-17 12:20:57","fd252370c17a9971d68c1d4354a03c2e","","Mozilla/5.0 (Windows NT 10.0; Win64; x64; rv:106.0) Gecko/20100101 Firefox/106.0","","Firefox","106.0","Windows","10.0","580","s","","mirrorS.jpg","3","Heavy_Matched","true",""
"","","","","","fixation","10194","html-keyboard-response","95","184986","0.0-6.0-0.15","53","3","2022-11-17 12:20:57","fd252370c17a9971d68c1d4354a03c2e","","Mozilla/5.0 (Windows NT 10.0; Win64; x64; rv:106.0) Gecko/20100101 Firefox/106.0","","Firefox","106.0","Windows","10.0","null","null","","<p style=""font-size: 48px;"">+</p>","3","Filler","",""
"","","","","","sentence","10194","html-keyboard-response","96","185959","0.0-6.0-1.15","53","3","2022-11-17 12:20:57","fd252370c17a9971d68c1d4354a03c2e","","Mozilla/5.0 (Windows NT 10.0; Win64; x64; rv:106.0) Gecko/20100101 Firefox/106.0","","Firefox","106.0","Windows","10.0","951"," ","","A giraffe is playing with a zebra","3","Filler","",""
"","","","","","fixation","10194","html-keyboard-response","97","186480","0.0-6.0-2.15","53","3","2022-11-17 12:20:57","fd252370c17a9971d68c1d4354a03c2e","","Mozilla/5.0 (Windows NT 10.0; Win64; x64; rv:106.0) Gecko/20100101 Firefox/106.0","","Firefox","106.0","Windows","10.0","null","null","","<p style=""font-size: 48px;"">+</p>","3","Filler","",""
"","","","","","picture","10194","image-keyboard-response","98","187079","0.0-6.0-3.15","53","3","2022-11-17 12:20:57","fd252370c17a9971d68c1d4354a03c2e","","Mozilla/5.0 (Windows NT 10.0; Win64; x64; rv:106.0) Gecko/20100101 Firefox/106.0","","Firefox","106.0","Windows","10.0","565","n","","wallet.jpg","3","Filler","true",""
"","","","","","fixation","10194","html-keyboard-response","99","188102","0.0-6.0-0.16","53","3","2022-11-17 12:20:57","fd252370c17a9971d68c1d4354a03c2e","","Mozilla/5.0 (Windows NT 10.0; Win64; x64; rv:106.0) Gecko/20100101 Firefox/106.0","","Firefox","106.0","Windows","10.0","null","null","","<p style=""font-size: 48px;"">+</p>","3","Light_Contradictory","",""
"","","","","","sentence","10194","html-keyboard-response","100","189199","0.0-6.0-1.16","53","3","2022-11-17 12:20:57","fd252370c17a9971d68c1d4354a03c2e","","Mozilla/5.0 (Windows NT 10.0; Win64; x64; rv:106.0) Gecko/20100101 Firefox/106.0","","Firefox","106.0","Windows","10.0","1059"," ","","A balloon dropped and smashed a blackberry","3","Light_Contradictory","",""
"","","","","","fixation","10194","html-keyboard-response","101","189725","0.0-6.0-2.16","53","3","2022-11-17 12:20:57","fd252370c17a9971d68c1d4354a03c2e","","Mozilla/5.0 (Windows NT 10.0; Win64; x64; rv:106.0) Gecko/20100101 Firefox/106.0","","Firefox","106.0","Windows","10.0","null","null","","<p style=""font-size: 48px;"">+</p>","3","Light_Contradictory","",""
"","","","","","picture","10194","image-keyboard-response","102","190415","0.0-6.0-3.16","53","3","2022-11-17 12:20:57","fd252370c17a9971d68c1d4354a03c2e","","Mozilla/5.0 (Windows NT 10.0; Win64; x64; rv:106.0) Gecko/20100101 Firefox/106.0","","Firefox","106.0","Windows","10.0","655","s","","blackberryS.jpg","3","Light_Contradictory","true",""
"","","","","","fixation","10194","html-keyboard-response","103","191439","0.0-6.0-0.17","53","3","2022-11-17 12:20:57","fd252370c17a9971d68c1d4354a03c2e","","Mozilla/5.0 (Windows NT 10.0; Win64; x64; rv:106.0) Gecko/20100101 Firefox/106.0","","Firefox","106.0","Windows","10.0","null","null","","<p style=""font-size: 48px;"">+</p>","3","Filler","",""
"","","","","","sentence","10194","html-keyboard-response","104","192817","0.0-6.0-1.17","53","3","2022-11-17 12:20:57","fd252370c17a9971d68c1d4354a03c2e","","Mozilla/5.0 (Windows NT 10.0; Win64; x64; rv:106.0) Gecko/20100101 Firefox/106.0","","Firefox","106.0","Windows","10.0","1355"," ","","A dentist is drinking a can of cola","3","Filler","",""
"","","","","","fixation","10194","html-keyboard-response","105","193335","0.0-6.0-2.17","53","3","2022-11-17 12:20:57","fd252370c17a9971d68c1d4354a03c2e","","Mozilla/5.0 (Windows NT 10.0; Win64; x64; rv:106.0) Gecko/20100101 Firefox/106.0","","Firefox","106.0","Windows","10.0","null","null","","<p style=""font-size: 48px;"">+</p>","3","Filler","",""
"","","","","","picture","10194","image-keyboard-response","106","194282","0.0-6.0-3.17","53","3","2022-11-17 12:20:57","fd252370c17a9971d68c1d4354a03c2e","","Mozilla/5.0 (Windows NT 10.0; Win64; x64; rv:106.0) Gecko/20100101 Firefox/106.0","","Firefox","106.0","Windows","10.0","914","n","","doll.jpg","3","Filler","true",""
"","","","","","fixation","10194","html-keyboard-response","107","195299","0.0-6.0-0.18","53","3","2022-11-17 12:20:57","fd252370c17a9971d68c1d4354a03c2e","","Mozilla/5.0 (Windows NT 10.0; Win64; x64; rv:106.0) Gecko/20100101 Firefox/106.0","","Firefox","106.0","Windows","10.0","null","null","","<p style=""font-size: 48px;"">+</p>","3","Filler","",""
"","","","","","sentence","10194","html-keyboard-response","108","196781","0.0-6.0-1.18","53","3","2022-11-17 12:20:57","fd252370c17a9971d68c1d4354a03c2e","","Mozilla/5.0 (Windows NT 10.0; Win64; x64; rv:106.0) Gecko/20100101 Firefox/106.0","","Firefox","106.0","Windows","10.0","1467"," ","","A pilot is reading a book","3","Filler","",""
"","","","","","fixation","10194","html-keyboard-response","109","197300","0.0-6.0-2.18","53","3","2022-11-17 12:20:57","fd252370c17a9971d68c1d4354a03c2e","","Mozilla/5.0 (Windows NT 10.0; Win64; x64; rv:106.0) Gecko/20100101 Firefox/106.0","","Firefox","106.0","Windows","10.0","null","null","","<p style=""font-size: 48px;"">+</p>","3","Filler","",""
"","","","","","picture","10194","image-keyboard-response","110","198292","0.0-6.0-3.18","53","3","2022-11-17 12:20:57","fd252370c17a9971d68c1d4354a03c2e","","Mozilla/5.0 (Windows NT 10.0; Win64; x64; rv:106.0) Gecko/20100101 Firefox/106.0","","Firefox","106.0","Windows","10.0","964","n","","spoon.jpg","3","Filler","true",""
"","","","","","fixation","10194","html-keyboard-response","111","199309","0.0-6.0-0.19","53","3","2022-11-17 12:20:57","fd252370c17a9971d68c1d4354a03c2e","","Mozilla/5.0 (Windows NT 10.0; Win64; x64; rv:106.0) Gecko/20100101 Firefox/106.0","","Firefox","106.0","Windows","10.0","null","null","","<p style=""font-size: 48px;"">+</p>","3","Filler","",""
"","","","","","sentence","10194","html-keyboard-response","112","200203","0.0-6.0-1.19","53","3","2022-11-17 12:20:57","fd252370c17a9971d68c1d4354a03c2e","","Mozilla/5.0 (Windows NT 10.0; Win64; x64; rv:106.0) Gecko/20100101 Firefox/106.0","","Firefox","106.0","Windows","10.0","880"," ","","A puppy is playing with a ball","3","Filler","",""
"","","","","","fixation","10194","html-keyboard-response","113","200719","0.0-6.0-2.19","53","3","2022-11-17 12:20:57","fd252370c17a9971d68c1d4354a03c2e","","Mozilla/5.0 (Windows NT 10.0; Win64; x64; rv:106.0) Gecko/20100101 Firefox/106.0","","Firefox","106.0","Windows","10.0","null","null","","<p style=""font-size: 48px;"">+</p>","3","Filler","",""
"","","","","","picture","10194","image-keyboard-response","114","201280","0.0-6.0-3.19","53","3","2022-11-17 12:20:57","fd252370c17a9971d68c1d4354a03c2e","","Mozilla/5.0 (Windows NT 10.0; Win64; x64; rv:106.0) Gecko/20100101 Firefox/106.0","","Firefox","106.0","Windows","10.0","523","s","","tennisball.jpg","3","Filler","true",""
"","","","","","fixation","10194","html-keyboard-response","115","202306","0.0-6.0-0.20","53","3","2022-11-17 12:20:57","fd252370c17a9971d68c1d4354a03c2e","","Mozilla/5.0 (Windows NT 10.0; Win64; x64; rv:106.0) Gecko/20100101 Firefox/106.0","","Firefox","106.0","Windows","10.0","null","null","","<p style=""font-size: 48px;"">+</p>","3","Filler","",""
"","","","","","sentence","10194","html-keyboard-response","116","203360","0.0-6.0-1.20","53","3","2022-11-17 12:20:57","fd252370c17a9971d68c1d4354a03c2e","","Mozilla/5.0 (Windows NT 10.0; Win64; x64; rv:106.0) Gecko/20100101 Firefox/106.0","","Firefox","106.0","Windows","10.0","1027"," ","","A student is writing on a board","3","Filler","",""
"","","","","","fixation","10194","html-keyboard-response","117","203880","0.0-6.0-2.20","53","3","2022-11-17 12:20:57","fd252370c17a9971d68c1d4354a03c2e","","Mozilla/5.0 (Windows NT 10.0; Win64; x64; rv:106.0) Gecko/20100101 Firefox/106.0","","Firefox","106.0","Windows","10.0","null","null","","<p style=""font-size: 48px;"">+</p>","3","Filler","",""
"","","","","","picture","10194","image-keyboard-response","118","204531","0.0-6.0-3.20","53","3","2022-11-17 12:20:57","fd252370c17a9971d68c1d4354a03c2e","","Mozilla/5.0 (Windows NT 10.0; Win64; x64; rv:106.0) Gecko/20100101 Firefox/106.0","","Firefox","106.0","Windows","10.0","624","n","","owl.jpg","3","Filler","true",""
"","","","","","fixation","10194","html-keyboard-response","119","205551","0.0-6.0-0.21","53","3","2022-11-17 12:20:57","fd252370c17a9971d68c1d4354a03c2e","","Mozilla/5.0 (Windows NT 10.0; Win64; x64; rv:106.0) Gecko/20100101 Firefox/106.0","","Firefox","106.0","Windows","10.0","null","null","","<p style=""font-size: 48px;"">+</p>","3","Heavy_Matched","",""
"","","","","","sentence","10194","html-keyboard-response","120","207233","0.0-6.0-1.21","53","3","2022-11-17 12:20:57","fd252370c17a9971d68c1d4354a03c2e","","Mozilla/5.0 (Windows NT 10.0; Win64; x64; rv:106.0) Gecko/20100101 Firefox/106.0","","Firefox","106.0","Windows","10.0","1665"," ","","A bowling ball dropped and smashed a donut","3","Heavy_Matched","",""
"","","","","","fixation","10194","html-keyboard-response","121","207747","0.0-6.0-2.21","53","3","2022-11-17 12:20:57","fd252370c17a9971d68c1d4354a03c2e","","Mozilla/5.0 (Windows NT 10.0; Win64; x64; rv:106.0) Gecko/20100101 Firefox/106.0","","Firefox","106.0","Windows","10.0","null","null","","<p style=""font-size: 48px;"">+</p>","3","Heavy_Matched","",""
"","","","","","picture","10194","image-keyboard-response","122","208662","0.0-6.0-3.21","53","3","2022-11-17 12:20:57","fd252370c17a9971d68c1d4354a03c2e","","Mozilla/5.0 (Windows NT 10.0; Win64; x64; rv:106.0) Gecko/20100101 Firefox/106.0","","Firefox","106.0","Windows","10.0","883","s","","donutS.jpg","3","Heavy_Matched","true",""
"","","","","","fixation","10194","html-keyboard-response","123","209682","0.0-6.0-0.22","53","3","2022-11-17 12:20:57","fd252370c17a9971d68c1d4354a03c2e","","Mozilla/5.0 (Windows NT 10.0; Win64; x64; rv:106.0) Gecko/20100101 Firefox/106.0","","Firefox","106.0","Windows","10.0","null","null","","<p style=""font-size: 48px;"">+</p>","3","Filler","",""
"","","","","","sentence","10194","html-keyboard-response","124","210763","0.0-6.0-1.22","53","3","2022-11-17 12:20:57","fd252370c17a9971d68c1d4354a03c2e","","Mozilla/5.0 (Windows NT 10.0; Win64; x64; rv:106.0) Gecko/20100101 Firefox/106.0","","Firefox","106.0","Windows","10.0","1066"," ","","A boy is wearing a hat","3","Filler","",""
"","","","","","fixation","10194","html-keyboard-response","125","211282","0.0-6.0-2.22","53","3","2022-11-17 12:20:57","fd252370c17a9971d68c1d4354a03c2e","","Mozilla/5.0 (Windows NT 10.0; Win64; x64; rv:106.0) Gecko/20100101 Firefox/106.0","","Firefox","106.0","Windows","10.0","null","null","","<p style=""font-size: 48px;"">+</p>","3","Filler","",""
"","","","","","picture","10194","image-keyboard-response","126","212277","0.0-6.0-3.22","53","3","2022-11-17 12:20:57","fd252370c17a9971d68c1d4354a03c2e","","Mozilla/5.0 (Windows NT 10.0; Win64; x64; rv:106.0) Gecko/20100101 Firefox/106.0","","Firefox","106.0","Windows","10.0","959","s","","hat.jpg","3","Filler","true",""
"","","","","","fixation","10194","html-keyboard-response","127","213296","0.0-6.0-0.23","53","3","2022-11-17 12:20:57","fd252370c17a9971d68c1d4354a03c2e","","Mozilla/5.0 (Windows NT 10.0; Win64; x64; rv:106.0) Gecko/20100101 Firefox/106.0","","Firefox","106.0","Windows","10.0","null","null","","<p style=""font-size: 48px;"">+</p>","3","Heavy_Matched","",""
"","","","","","sentence","10194","html-keyboard-response","128","214257","0.0-6.0-1.23","53","3","2022-11-17 12:20:57","fd252370c17a9971d68c1d4354a03c2e","","Mozilla/5.0 (Windows NT 10.0; Win64; x64; rv:106.0) Gecko/20100101 Firefox/106.0","","Firefox","106.0","Windows","10.0","944"," ","","A bowling ball dropped and smashed a rice cake","3","Heavy_Matched","",""
"","","","","","fixation","10194","html-keyboard-response","129","214775","0.0-6.0-2.23","53","3","2022-11-17 12:20:57","fd252370c17a9971d68c1d4354a03c2e","","Mozilla/5.0 (Windows NT 10.0; Win64; x64; rv:106.0) Gecko/20100101 Firefox/106.0","","Firefox","106.0","Windows","10.0","null","null","","<p style=""font-size: 48px;"">+</p>","3","Heavy_Matched","",""
"","","","","","picture","10194","image-keyboard-response","130","215443","0.0-6.0-3.23","53","3","2022-11-17 12:20:57","fd252370c17a9971d68c1d4354a03c2e","","Mozilla/5.0 (Windows NT 10.0; Win64; x64; rv:106.0) Gecko/20100101 Firefox/106.0","","Firefox","106.0","Windows","10.0","631","s","","tortitaS.jpg","3","Heavy_Matched","true",""
"","","","","","fixation","10194","html-keyboard-response","131","216463","0.0-6.0-0.24","53","3","2022-11-17 12:20:57","fd252370c17a9971d68c1d4354a03c2e","","Mozilla/5.0 (Windows NT 10.0; Win64; x64; rv:106.0) Gecko/20100101 Firefox/106.0","","Firefox","106.0","Windows","10.0","null","null","","<p style=""font-size: 48px;"">+</p>","3","Filler","",""
"","","","","","sentence","10194","html-keyboard-response","132","217289","0.0-6.0-1.24","53","3","2022-11-17 12:20:57","fd252370c17a9971d68c1d4354a03c2e","","Mozilla/5.0 (Windows NT 10.0; Win64; x64; rv:106.0) Gecko/20100101 Firefox/106.0","","Firefox","106.0","Windows","10.0","809"," ","","An actress is taking a microphone","3","Filler","",""
"","","","","","fixation","10194","html-keyboard-response","133","217809","0.0-6.0-2.24","53","3","2022-11-17 12:20:57","fd252370c17a9971d68c1d4354a03c2e","","Mozilla/5.0 (Windows NT 10.0; Win64; x64; rv:106.0) Gecko/20100101 Firefox/106.0","","Firefox","106.0","Windows","10.0","null","null","","<p style=""font-size: 48px;"">+</p>","3","Filler","",""
"","","","","","picture","10194","image-keyboard-response","134","218833","0.0-6.0-3.24","53","3","2022-11-17 12:20:57","fd252370c17a9971d68c1d4354a03c2e","","Mozilla/5.0 (Windows NT 10.0; Win64; x64; rv:106.0) Gecko/20100101 Firefox/106.0","","Firefox","106.0","Windows","10.0","992","n","","pants.jpg","3","Filler","true",""
"","","","","","fixation","10194","html-keyboard-response","135","219850","0.0-6.0-0.25","53","3","2022-11-17 12:20:57","fd252370c17a9971d68c1d4354a03c2e","","Mozilla/5.0 (Windows NT 10.0; Win64; x64; rv:106.0) Gecko/20100101 Firefox/106.0","","Firefox","106.0","Windows","10.0","null","null","","<p style=""font-size: 48px;"">+</p>","3","Filler","",""
"","","","","","sentence","10194","html-keyboard-response","136","220707","0.0-6.0-1.25","53","3","2022-11-17 12:20:57","fd252370c17a9971d68c1d4354a03c2e","","Mozilla/5.0 (Windows NT 10.0; Win64; x64; rv:106.0) Gecko/20100101 Firefox/106.0","","Firefox","106.0","Windows","10.0","839"," ","","A donkey is drinking water.","3","Filler","",""
"","","","","","fixation","10194","html-keyboard-response","137","221223","0.0-6.0-2.25","53","3","2022-11-17 12:20:57","fd252370c17a9971d68c1d4354a03c2e","","Mozilla/5.0 (Windows NT 10.0; Win64; x64; rv:106.0) Gecko/20100101 Firefox/106.0","","Firefox","106.0","Windows","10.0","null","null","","<p style=""font-size: 48px;"">+</p>","3","Filler","",""
"","","","","","picture","10194","image-keyboard-response","138","221950","0.0-6.0-3.25","53","3","2022-11-17 12:20:57","fd252370c17a9971d68c1d4354a03c2e","","Mozilla/5.0 (Windows NT 10.0; Win64; x64; rv:106.0) Gecko/20100101 Firefox/106.0","","Firefox","106.0","Windows","10.0","696","n","","couch.jpg","3","Filler","true",""
"","","","","","fixation","10194","html-keyboard-response","139","222972","0.0-6.0-0.26","53","3","2022-11-17 12:20:57","fd252370c17a9971d68c1d4354a03c2e","","Mozilla/5.0 (Windows NT 10.0; Win64; x64; rv:106.0) Gecko/20100101 Firefox/106.0","","Firefox","106.0","Windows","10.0","null","null","","<p style=""font-size: 48px;"">+</p>","3","Filler","",""
"","","","","","sentence","10194","html-keyboard-response","140","223747","0.0-6.0-1.26","53","3","2022-11-17 12:20:57","fd252370c17a9971d68c1d4354a03c2e","","Mozilla/5.0 (Windows NT 10.0; Win64; x64; rv:106.0) Gecko/20100101 Firefox/106.0","","Firefox","106.0","Windows","10.0","757"," ","","A panda is resting on a tree","3","Filler","",""
"","","","","","fixation","10194","html-keyboard-response","141","224267","0.0-6.0-2.26","53","3","2022-11-17 12:20:57","fd252370c17a9971d68c1d4354a03c2e","","Mozilla/5.0 (Windows NT 10.0; Win64; x64; rv:106.0) Gecko/20100101 Firefox/106.0","","Firefox","106.0","Windows","10.0","null","null","","<p style=""font-size: 48px;"">+</p>","3","Filler","",""
"","","","","","picture","10194","image-keyboard-response","142","224998","0.0-6.0-3.26","53","3","2022-11-17 12:20:57","fd252370c17a9971d68c1d4354a03c2e","","Mozilla/5.0 (Windows NT 10.0; Win64; x64; rv:106.0) Gecko/20100101 Firefox/106.0","","Firefox","106.0","Windows","10.0","688","n","","dollar.jpg","3","Filler","true",""
"","","","","","fixation","10194","html-keyboard-response","143","226016","0.0-6.0-0.27","53","3","2022-11-17 12:20:57","fd252370c17a9971d68c1d4354a03c2e","","Mozilla/5.0 (Windows NT 10.0; Win64; x64; rv:106.0) Gecko/20100101 Firefox/106.0","","Firefox","106.0","Windows","10.0","null","null","","<p style=""font-size: 48px;"">+</p>","3","Light_Contradictory","",""
"","","","","","sentence","10194","html-keyboard-response","144","226939","0.0-6.0-1.27","53","3","2022-11-17 12:20:57","fd252370c17a9971d68c1d4354a03c2e","","Mozilla/5.0 (Windows NT 10.0; Win64; x64; rv:106.0) Gecko/20100101 Firefox/106.0","","Firefox","106.0","Windows","10.0","905"," ","","A balloon dropped and smashed an iPAD","3","Light_Contradictory","",""
"","","","","","fixation","10194","html-keyboard-response","145","227459","0.0-6.0-2.27","53","3","2022-11-17 12:20:57","fd252370c17a9971d68c1d4354a03c2e","","Mozilla/5.0 (Windows NT 10.0; Win64; x64; rv:106.0) Gecko/20100101 Firefox/106.0","","Firefox","106.0","Windows","10.0","null","null","","<p style=""font-size: 48px;"">+</p>","3","Light_Contradictory","",""
"","","","","","picture","10194","image-keyboard-response","146","227976","0.0-6.0-3.27","53","3","2022-11-17 12:20:57","fd252370c17a9971d68c1d4354a03c2e","","Mozilla/5.0 (Windows NT 10.0; Win64; x64; rv:106.0) Gecko/20100101 Firefox/106.0","","Firefox","106.0","Windows","10.0","480","s","","iPadS.jpg","3","Light_Contradictory","true",""
"","","","","","fixation","10194","html-keyboard-response","147","228999","0.0-6.0-0.28","53","3","2022-11-17 12:20:57","fd252370c17a9971d68c1d4354a03c2e","","Mozilla/5.0 (Windows NT 10.0; Win64; x64; rv:106.0) Gecko/20100101 Firefox/106.0","","Firefox","106.0","Windows","10.0","null","null","","<p style=""font-size: 48px;"">+</p>","3","Light_Matched","",""
"","","","","","sentence","10194","html-keyboard-response","148","230097","0.0-6.0-1.28","53","3","2022-11-17 12:20:57","fd252370c17a9971d68c1d4354a03c2e","","Mozilla/5.0 (Windows NT 10.0; Win64; x64; rv:106.0) Gecko/20100101 Firefox/106.0","","Firefox","106.0","Windows","10.0","1080"," ","","A balloon dropped and touched a TV","3","Light_Matched","",""
"","","","","","fixation","10194","html-keyboard-response","149","230615","0.0-6.0-2.28","53","3","2022-11-17 12:20:57","fd252370c17a9971d68c1d4354a03c2e","","Mozilla/5.0 (Windows NT 10.0; Win64; x64; rv:106.0) Gecko/20100101 Firefox/106.0","","Firefox","106.0","Windows","10.0","null","null","","<p style=""font-size: 48px;"">+</p>","3","Light_Matched","",""
"","","","","","picture","10194","image-keyboard-response","150","231540","0.0-6.0-3.28","53","3","2022-11-17 12:20:57","fd252370c17a9971d68c1d4354a03c2e","","Mozilla/5.0 (Windows NT 10.0; Win64; x64; rv:106.0) Gecko/20100101 Firefox/106.0","","Firefox","106.0","Windows","10.0","895","s","","tvS.jpg","3","Light_Matched","true",""
"","","","","","fixation","10194","html-keyboard-response","151","232562","0.0-6.0-0.29","53","3","2022-11-17 12:20:57","fd252370c17a9971d68c1d4354a03c2e","","Mozilla/5.0 (Windows NT 10.0; Win64; x64; rv:106.0) Gecko/20100101 Firefox/106.0","","Firefox","106.0","Windows","10.0","null","null","","<p style=""font-size: 48px;"">+</p>","3","Filler","",""
"","","","","","sentence","10194","html-keyboard-response","152","234172","0.0-6.0-1.29","53","3","2022-11-17 12:20:57","fd252370c17a9971d68c1d4354a03c2e","","Mozilla/5.0 (Windows NT 10.0; Win64; x64; rv:106.0) Gecko/20100101 Firefox/106.0","","Firefox","106.0","Windows","10.0","1591"," ","","A towel was placed on the TV","3","Filler","",""
"","","","","","fixation","10194","html-keyboard-response","153","234692","0.0-6.0-2.29","53","3","2022-11-17 12:20:57","fd252370c17a9971d68c1d4354a03c2e","","Mozilla/5.0 (Windows NT 10.0; Win64; x64; rv:106.0) Gecko/20100101 Firefox/106.0","","Firefox","106.0","Windows","10.0","null","null","","<p style=""font-size: 48px;"">+</p>","3","Filler","",""
"","","","","","picture","10194","image-keyboard-response","154","235921","0.0-6.0-3.29","53","3","2022-11-17 12:20:57","fd252370c17a9971d68c1d4354a03c2e","","Mozilla/5.0 (Windows NT 10.0; Win64; x64; rv:106.0) Gecko/20100101 Firefox/106.0","","Firefox","106.0","Windows","10.0","1196","n","","pencil.jpg","3","Filler","true",""
"","","","","","fixation","10194","html-keyboard-response","155","236943","0.0-6.0-0.30","53","3","2022-11-17 12:20:57","fd252370c17a9971d68c1d4354a03c2e","","Mozilla/5.0 (Windows NT 10.0; Win64; x64; rv:106.0) Gecko/20100101 Firefox/106.0","","Firefox","106.0","Windows","10.0","null","null","","<p style=""font-size: 48px;"">+</p>","3","Heavy_Contradictory","",""
"","","","","","sentence","10194","html-keyboard-response","156","237766","0.0-6.0-1.30","53","3","2022-11-17 12:20:57","fd252370c17a9971d68c1d4354a03c2e","","Mozilla/5.0 (Windows NT 10.0; Win64; x64; rv:106.0) Gecko/20100101 Firefox/106.0","","Firefox","106.0","Windows","10.0","804"," ","","A bowling ball dropped and touched a vase","3","Heavy_Contradictory","",""
"","","","","","fixation","10194","html-keyboard-response","157","238289","0.0-6.0-2.30","53","3","2022-11-17 12:20:57","fd252370c17a9971d68c1d4354a03c2e","","Mozilla/5.0 (Windows NT 10.0; Win64; x64; rv:106.0) Gecko/20100101 Firefox/106.0","","Firefox","106.0","Windows","10.0","null","null","","<p style=""font-size: 48px;"">+</p>","3","Heavy_Contradictory","",""
"","","","","","picture","10194","image-keyboard-response","158","239638","0.0-6.0-3.30","53","3","2022-11-17 12:20:57","fd252370c17a9971d68c1d4354a03c2e","","Mozilla/5.0 (Windows NT 10.0; Win64; x64; rv:106.0) Gecko/20100101 Firefox/106.0","","Firefox","106.0","Windows","10.0","1317","s","","vaseS.jpg","3","Heavy_Contradictory","true",""
"","","","","","fixation","10194","html-keyboard-response","159","240659","0.0-6.0-0.31","53","3","2022-11-17 12:20:57","fd252370c17a9971d68c1d4354a03c2e","","Mozilla/5.0 (Windows NT 10.0; Win64; x64; rv:106.0) Gecko/20100101 Firefox/106.0","","Firefox","106.0","Windows","10.0","null","null","","<p style=""font-size: 48px;"">+</p>","3","Heavy_Contradictory","",""
"","","","","","sentence","10194","html-keyboard-response","160","242081","0.0-6.0-1.31","53","3","2022-11-17 12:20:57","fd252370c17a9971d68c1d4354a03c2e","","Mozilla/5.0 (Windows NT 10.0; Win64; x64; rv:106.0) Gecko/20100101 Firefox/106.0","","Firefox","106.0","Windows","10.0","1404"," ","","A bowling ball dropped and touched a piece of sushi","3","Heavy_Contradictory","",""
"","","","","","fixation","10194","html-keyboard-response","161","242603","0.0-6.0-2.31","53","3","2022-11-17 12:20:57","fd252370c17a9971d68c1d4354a03c2e","","Mozilla/5.0 (Windows NT 10.0; Win64; x64; rv:106.0) Gecko/20100101 Firefox/106.0","","Firefox","106.0","Windows","10.0","null","null","","<p style=""font-size: 48px;"">+</p>","3","Heavy_Contradictory","",""
"","","","","","picture","10194","image-keyboard-response","162","243237","0.0-6.0-3.31","53","3","2022-11-17 12:20:57","fd252370c17a9971d68c1d4354a03c2e","","Mozilla/5.0 (Windows NT 10.0; Win64; x64; rv:106.0) Gecko/20100101 Firefox/106.0","","Firefox","106.0","Windows","10.0","595","s","","sushiS.jpg","3","Heavy_Contradictory","true",""
"","","","","","fixation","10194","html-keyboard-response","163","244259","0.0-6.0-0.32","53","3","2022-11-17 12:20:57","fd252370c17a9971d68c1d4354a03c2e","","Mozilla/5.0 (Windows NT 10.0; Win64; x64; rv:106.0) Gecko/20100101 Firefox/106.0","","Firefox","106.0","Windows","10.0","null","null","","<p style=""font-size: 48px;"">+</p>","3","Filler","",""
"","","","","","sentence","10194","html-keyboard-response","164","245132","0.0-6.0-1.32","53","3","2022-11-17 12:20:57","fd252370c17a9971d68c1d4354a03c2e","","Mozilla/5.0 (Windows NT 10.0; Win64; x64; rv:106.0) Gecko/20100101 Firefox/106.0","","Firefox","106.0","Windows","10.0","853"," ","","A thermometer was placed on the box","3","Filler","",""
"","","","","","fixation","10194","html-keyboard-response","165","245651","0.0-6.0-2.32","53","3","2022-11-17 12:20:57","fd252370c17a9971d68c1d4354a03c2e","","Mozilla/5.0 (Windows NT 10.0; Win64; x64; rv:106.0) Gecko/20100101 Firefox/106.0","","Firefox","106.0","Windows","10.0","null","null","","<p style=""font-size: 48px;"">+</p>","3","Filler","",""
"","","","","","picture","10194","image-keyboard-response","166","246223","0.0-6.0-3.32","53","3","2022-11-17 12:20:57","fd252370c17a9971d68c1d4354a03c2e","","Mozilla/5.0 (Windows NT 10.0; Win64; x64; rv:106.0) Gecko/20100101 Firefox/106.0","","Firefox","106.0","Windows","10.0","538","n","","button.jpg","3","Filler","true",""
"","","","","","fixation","10194","html-keyboard-response","167","247244","0.0-6.0-0.33","53","3","2022-11-17 12:20:57","fd252370c17a9971d68c1d4354a03c2e","","Mozilla/5.0 (Windows NT 10.0; Win64; x64; rv:106.0) Gecko/20100101 Firefox/106.0","","Firefox","106.0","Windows","10.0","null","null","","<p style=""font-size: 48px;"">+</p>","3","Filler","",""
"","","","","","sentence","10194","html-keyboard-response","168","248220","0.0-6.0-1.33","53","3","2022-11-17 12:20:57","fd252370c17a9971d68c1d4354a03c2e","","Mozilla/5.0 (Windows NT 10.0; Win64; x64; rv:106.0) Gecko/20100101 Firefox/106.0","","Firefox","106.0","Windows","10.0","954"," ","","A musician is playing a guitar","3","Filler","",""
"","","","","","fixation","10194","html-keyboard-response","169","248773","0.0-6.0-2.33","53","3","2022-11-17 12:20:57","fd252370c17a9971d68c1d4354a03c2e","","Mozilla/5.0 (Windows NT 10.0; Win64; x64; rv:106.0) Gecko/20100101 Firefox/106.0","","Firefox","106.0","Windows","10.0","null","null","","<p style=""font-size: 48px;"">+</p>","3","Filler","",""
"","","","","","picture","10194","image-keyboard-response","170","249843","0.0-6.0-3.33","53","3","2022-11-17 12:20:57","fd252370c17a9971d68c1d4354a03c2e","","Mozilla/5.0 (Windows NT 10.0; Win64; x64; rv:106.0) Gecko/20100101 Firefox/106.0","","Firefox","106.0","Windows","10.0","1028","s","","guitar.jpg","3","Filler","true",""
"","","","","","fixation","10194","html-keyboard-response","171","250879","0.0-6.0-0.34","53","3","2022-11-17 12:20:57","fd252370c17a9971d68c1d4354a03c2e","","Mozilla/5.0 (Windows NT 10.0; Win64; x64; rv:106.0) Gecko/20100101 Firefox/106.0","","Firefox","106.0","Windows","10.0","null","null","","<p style=""font-size: 48px;"">+</p>","3","Filler","",""
"","","","","","sentence","10194","html-keyboard-response","172","251848","0.0-6.0-1.34","53","3","2022-11-17 12:20:57","fd252370c17a9971d68c1d4354a03c2e","","Mozilla/5.0 (Windows NT 10.0; Win64; x64; rv:106.0) Gecko/20100101 Firefox/106.0","","Firefox","106.0","Windows","10.0","938"," ","","A doctor is taking a stethoscope","3","Filler","",""
"","","","","","fixation","10194","html-keyboard-response","173","252399","0.0-6.0-2.34","53","3","2022-11-17 12:20:57","fd252370c17a9971d68c1d4354a03c2e","","Mozilla/5.0 (Windows NT 10.0; Win64; x64; rv:106.0) Gecko/20100101 Firefox/106.0","","Firefox","106.0","Windows","10.0","null","null","","<p style=""font-size: 48px;"">+</p>","3","Filler","",""
"","","","","","picture","10194","image-keyboard-response","174","253080","0.0-6.0-3.34","53","3","2022-11-17 12:20:57","fd252370c17a9971d68c1d4354a03c2e","","Mozilla/5.0 (Windows NT 10.0; Win64; x64; rv:106.0) Gecko/20100101 Firefox/106.0","","Firefox","106.0","Windows","10.0","627","n","","matchesbox.jpg","3","Filler","true",""
"","","","","","fixation","10194","html-keyboard-response","175","254110","0.0-6.0-0.35","53","3","2022-11-17 12:20:57","fd252370c17a9971d68c1d4354a03c2e","","Mozilla/5.0 (Windows NT 10.0; Win64; x64; rv:106.0) Gecko/20100101 Firefox/106.0","","Firefox","106.0","Windows","10.0","null","null","","<p style=""font-size: 48px;"">+</p>","3","Filler","",""
"","","","","","sentence","10194","html-keyboard-response","176","254921","0.0-6.0-1.35","53","3","2022-11-17 12:20:57","fd252370c17a9971d68c1d4354a03c2e","","Mozilla/5.0 (Windows NT 10.0; Win64; x64; rv:106.0) Gecko/20100101 Firefox/106.0","","Firefox","106.0","Windows","10.0","780"," ","","A photographer is taking a photo of a lion","3","Filler","",""
"","","","","","fixation","10194","html-keyboard-response","177","255454","0.0-6.0-2.35","53","3","2022-11-17 12:20:57","fd252370c17a9971d68c1d4354a03c2e","","Mozilla/5.0 (Windows NT 10.0; Win64; x64; rv:106.0) Gecko/20100101 Firefox/106.0","","Firefox","106.0","Windows","10.0","null","null","","<p style=""font-size: 48px;"">+</p>","3","Filler","",""
"","","","","","picture","10194","image-keyboard-response","178","256022","0.0-6.0-3.35","53","3","2022-11-17 12:20:57","fd252370c17a9971d68c1d4354a03c2e","","Mozilla/5.0 (Windows NT 10.0; Win64; x64; rv:106.0) Gecko/20100101 Firefox/106.0","","Firefox","106.0","Windows","10.0","516","s","","lion.jpg","3","Filler","true",""
"","","","","","fixation","10194","html-keyboard-response","179","257064","0.0-6.0-0.36","53","3","2022-11-17 12:20:57","fd252370c17a9971d68c1d4354a03c2e","","Mozilla/5.0 (Windows NT 10.0; Win64; x64; rv:106.0) Gecko/20100101 Firefox/106.0","","Firefox","106.0","Windows","10.0","null","null","","<p style=""font-size: 48px;"">+</p>","3","Filler","",""
"","","","","","sentence","10194","html-keyboard-response","180","257993","0.0-6.0-1.36","53","3","2022-11-17 12:20:57","fd252370c17a9971d68c1d4354a03c2e","","Mozilla/5.0 (Windows NT 10.0; Win64; x64; rv:106.0) Gecko/20100101 Firefox/106.0","","Firefox","106.0","Windows","10.0","895"," ","","A man is shaving his beard","3","Filler","",""
"","","","","","fixation","10194","html-keyboard-response","181","258513","0.0-6.0-2.36","53","3","2022-11-17 12:20:57","fd252370c17a9971d68c1d4354a03c2e","","Mozilla/5.0 (Windows NT 10.0; Win64; x64; rv:106.0) Gecko/20100101 Firefox/106.0","","Firefox","106.0","Windows","10.0","null","null","","<p style=""font-size: 48px;"">+</p>","3","Filler","",""
"","","","","","picture","10194","image-keyboard-response","182","259160","0.0-6.0-3.36","53","3","2022-11-17 12:20:57","fd252370c17a9971d68c1d4354a03c2e","","Mozilla/5.0 (Windows NT 10.0; Win64; x64; rv:106.0) Gecko/20100101 Firefox/106.0","","Firefox","106.0","Windows","10.0","612","n","","clock.jpg","3","Filler","true",""
"","","","","","fixation","10194","html-keyboard-response","183","260184","0.0-6.0-0.37","53","3","2022-11-17 12:20:57","fd252370c17a9971d68c1d4354a03c2e","","Mozilla/5.0 (Windows NT 10.0; Win64; x64; rv:106.0) Gecko/20100101 Firefox/106.0","","Firefox","106.0","Windows","10.0","null","null","","<p style=""font-size: 48px;"">+</p>","3","Heavy_Contradictory","",""
"","","","","","sentence","10194","html-keyboard-response","184","261189","0.0-6.0-1.37","53","3","2022-11-17 12:20:57","fd252370c17a9971d68c1d4354a03c2e","","Mozilla/5.0 (Windows NT 10.0; Win64; x64; rv:106.0) Gecko/20100101 Firefox/106.0","","Firefox","106.0","Windows","10.0","982"," ","","A bowling ball dropped and touched a ceramic plate","3","Heavy_Contradictory","",""
"","","","","","fixation","10194","html-keyboard-response","185","261713","0.0-6.0-2.37","53","3","2022-11-17 12:20:57","fd252370c17a9971d68c1d4354a03c2e","","Mozilla/5.0 (Windows NT 10.0; Win64; x64; rv:106.0) Gecko/20100101 Firefox/106.0","","Firefox","106.0","Windows","10.0","null","null","","<p style=""font-size: 48px;"">+</p>","3","Heavy_Contradictory","",""
"","","","","","picture","10194","image-keyboard-response","186","262362","0.0-6.0-3.37","53","3","2022-11-17 12:20:57","fd252370c17a9971d68c1d4354a03c2e","","Mozilla/5.0 (Windows NT 10.0; Win64; x64; rv:106.0) Gecko/20100101 Firefox/106.0","","Firefox","106.0","Windows","10.0","608","s","","plateS.jpg","3","Heavy_Contradictory","true",""
"","","","","","fixation","10194","html-keyboard-response","187","263382","0.0-6.0-0.38","53","3","2022-11-17 12:20:57","fd252370c17a9971d68c1d4354a03c2e","","Mozilla/5.0 (Windows NT 10.0; Win64; x64; rv:106.0) Gecko/20100101 Firefox/106.0","","Firefox","106.0","Windows","10.0","null","null","","<p style=""font-size: 48px;"">+</p>","3","Filler","",""
"","","","","","sentence","10194","html-keyboard-response","188","264303","0.0-6.0-1.38","53","3","2022-11-17 12:20:57","fd252370c17a9971d68c1d4354a03c2e","","Mozilla/5.0 (Windows NT 10.0; Win64; x64; rv:106.0) Gecko/20100101 Firefox/106.0","","Firefox","106.0","Windows","10.0","899"," ","","A needle was placed on the mouse pad","3","Filler","",""
"","","","","","fixation","10194","html-keyboard-response","189","264826","0.0-6.0-2.38","53","3","2022-11-17 12:20:57","fd252370c17a9971d68c1d4354a03c2e","","Mozilla/5.0 (Windows NT 10.0; Win64; x64; rv:106.0) Gecko/20100101 Firefox/106.0","","Firefox","106.0","Windows","10.0","null","null","","<p style=""font-size: 48px;"">+</p>","3","Filler","",""
"","","","","","picture","10194","image-keyboard-response","190","266054","0.0-6.0-3.38","53","3","2022-11-17 12:20:57","fd252370c17a9971d68c1d4354a03c2e","","Mozilla/5.0 (Windows NT 10.0; Win64; x64; rv:106.0) Gecko/20100101 Firefox/106.0","","Firefox","106.0","Windows","10.0","1195","n","","chocolate.jpg","3","Filler","true",""
"","","","","","fixation","10194","html-keyboard-response","191","267078","0.0-6.0-0.39","53","3","2022-11-17 12:20:57","fd252370c17a9971d68c1d4354a03c2e","","Mozilla/5.0 (Windows NT 10.0; Win64; x64; rv:106.0) Gecko/20100101 Firefox/106.0","","Firefox","106.0","Windows","10.0","null","null","","<p style=""font-size: 48px;"">+</p>","3","Filler","",""
"","","","","","sentence","10194","html-keyboard-response","192","268168","0.0-6.0-1.39","53","3","2022-11-17 12:20:57","fd252370c17a9971d68c1d4354a03c2e","","Mozilla/5.0 (Windows NT 10.0; Win64; x64; rv:106.0) Gecko/20100101 Firefox/106.0","","Firefox","106.0","Windows","10.0","1069"," ","","A man is boiling potatoes.","3","Filler","",""
"","","","","","fixation","10194","html-keyboard-response","193","268693","0.0-6.0-2.39","53","3","2022-11-17 12:20:57","fd252370c17a9971d68c1d4354a03c2e","","Mozilla/5.0 (Windows NT 10.0; Win64; x64; rv:106.0) Gecko/20100101 Firefox/106.0","","Firefox","106.0","Windows","10.0","null","null","","<p style=""font-size: 48px;"">+</p>","3","Filler","",""
"","","","","","picture","10194","image-keyboard-response","194","269778","0.0-6.0-3.39","53","3","2022-11-17 12:20:57","fd252370c17a9971d68c1d4354a03c2e","","Mozilla/5.0 (Windows NT 10.0; Win64; x64; rv:106.0) Gecko/20100101 Firefox/106.0","","Firefox","106.0","Windows","10.0","1051","n","","cup.jpg","3","Filler","true",""
"","","","","","fixation","10194","html-keyboard-response","195","270803","0.0-6.0-0.40","53","3","2022-11-17 12:20:57","fd252370c17a9971d68c1d4354a03c2e","","Mozilla/5.0 (Windows NT 10.0; Win64; x64; rv:106.0) Gecko/20100101 Firefox/106.0","","Firefox","106.0","Windows","10.0","null","null","","<p style=""font-size: 48px;"">+</p>","3","Filler","",""
"","","","","","sentence","10194","html-keyboard-response","196","272414","0.0-6.0-1.40","53","3","2022-11-17 12:20:57","fd252370c17a9971d68c1d4354a03c2e","","Mozilla/5.0 (Windows NT 10.0; Win64; x64; rv:106.0) Gecko/20100101 Firefox/106.0","","Firefox","106.0","Windows","10.0","1590"," ","","A cat is drinking water from a bowl","3","Filler","",""
"","","","","","fixation","10194","html-keyboard-response","197","272937","0.0-6.0-2.40","53","3","2022-11-17 12:20:57","fd252370c17a9971d68c1d4354a03c2e","","Mozilla/5.0 (Windows NT 10.0; Win64; x64; rv:106.0) Gecko/20100101 Firefox/106.0","","Firefox","106.0","Windows","10.0","null","null","","<p style=""font-size: 48px;"">+</p>","3","Filler","",""
"","","","","","picture","10194","image-keyboard-response","198","273448","0.0-6.0-3.40","53","3","2022-11-17 12:20:57","fd252370c17a9971d68c1d4354a03c2e","","Mozilla/5.0 (Windows NT 10.0; Win64; x64; rv:106.0) Gecko/20100101 Firefox/106.0","","Firefox","106.0","Windows","10.0","482","s","","bowl.jpg","3","Filler","true",""
"","","","","","fixation","10194","html-keyboard-response","199","274469","0.0-6.0-0.41","53","3","2022-11-17 12:20:57","fd252370c17a9971d68c1d4354a03c2e","","Mozilla/5.0 (Windows NT 10.0; Win64; x64; rv:106.0) Gecko/20100101 Firefox/106.0","","Firefox","106.0","Windows","10.0","null","null","","<p style=""font-size: 48px;"">+</p>","3","Filler","",""
"","","","","","sentence","10194","html-keyboard-response","200","275161","0.0-6.0-1.41","53","3","2022-11-17 12:20:57","fd252370c17a9971d68c1d4354a03c2e","","Mozilla/5.0 (Windows NT 10.0; Win64; x64; rv:106.0) Gecko/20100101 Firefox/106.0","","Firefox","106.0","Windows","10.0","668"," ","","A horse is chewing hay","3","Filler","",""
"","","","","","fixation","10194","html-keyboard-response","201","275685","0.0-6.0-2.41","53","3","2022-11-17 12:20:57","fd252370c17a9971d68c1d4354a03c2e","","Mozilla/5.0 (Windows NT 10.0; Win64; x64; rv:106.0) Gecko/20100101 Firefox/106.0","","Firefox","106.0","Windows","10.0","null","null","","<p style=""font-size: 48px;"">+</p>","3","Filler","",""
"","","","","","picture","10194","image-keyboard-response","202","276367","0.0-6.0-3.41","53","3","2022-11-17 12:20:57","fd252370c17a9971d68c1d4354a03c2e","","Mozilla/5.0 (Windows NT 10.0; Win64; x64; rv:106.0) Gecko/20100101 Firefox/106.0","","Firefox","106.0","Windows","10.0","643","n","","purse.jpg","3","Filler","true",""
"","","","","","fixation","10194","html-keyboard-response","203","277391","0.0-6.0-0.42","53","3","2022-11-17 12:20:57","fd252370c17a9971d68c1d4354a03c2e","","Mozilla/5.0 (Windows NT 10.0; Win64; x64; rv:106.0) Gecko/20100101 Firefox/106.0","","Firefox","106.0","Windows","10.0","null","null","","<p style=""font-size: 48px;"">+</p>","3","Light_Matched","",""
"","","","","","sentence","10194","html-keyboard-response","204","278091","0.0-6.0-1.42","53","3","2022-11-17 12:20:57","fd252370c17a9971d68c1d4354a03c2e","","Mozilla/5.0 (Windows NT 10.0; Win64; x64; rv:106.0) Gecko/20100101 Firefox/106.0","","Firefox","106.0","Windows","10.0","677"," ","","A balloon dropped and touched a piece of cake","3","Light_Matched","",""
"","","","","","fixation","10194","html-keyboard-response","205","278612","0.0-6.0-2.42","53","3","2022-11-17 12:20:57","fd252370c17a9971d68c1d4354a03c2e","","Mozilla/5.0 (Windows NT 10.0; Win64; x64; rv:106.0) Gecko/20100101 Firefox/106.0","","Firefox","106.0","Windows","10.0","null","null","","<p style=""font-size: 48px;"">+</p>","3","Light_Matched","",""
"","","","","","picture","10194","image-keyboard-response","206","279172","0.0-6.0-3.42","53","3","2022-11-17 12:20:57","fd252370c17a9971d68c1d4354a03c2e","","Mozilla/5.0 (Windows NT 10.0; Win64; x64; rv:106.0) Gecko/20100101 Firefox/106.0","","Firefox","106.0","Windows","10.0","520","s","","cakeS.jpg","3","Light_Matched","true",""
"","","","","","fixation","10194","html-keyboard-response","207","280195","0.0-6.0-0.43","53","3","2022-11-17 12:20:57","fd252370c17a9971d68c1d4354a03c2e","","Mozilla/5.0 (Windows NT 10.0; Win64; x64; rv:106.0) Gecko/20100101 Firefox/106.0","","Firefox","106.0","Windows","10.0","null","null","","<p style=""font-size: 48px;"">+</p>","3","Light_Matched","",""
"","","","","","sentence","10194","html-keyboard-response","208","281175","0.0-6.0-1.43","53","3","2022-11-17 12:20:57","fd252370c17a9971d68c1d4354a03c2e","","Mozilla/5.0 (Windows NT 10.0; Win64; x64; rv:106.0) Gecko/20100101 Firefox/106.0","","Firefox","106.0","Windows","10.0","956"," ","","A balloon dropped and touched a cracker","3","Light_Matched","",""
"","","","","","fixation","10194","html-keyboard-response","209","281701","0.0-6.0-2.43","53","3","2022-11-17 12:20:57","fd252370c17a9971d68c1d4354a03c2e","","Mozilla/5.0 (Windows NT 10.0; Win64; x64; rv:106.0) Gecko/20100101 Firefox/106.0","","Firefox","106.0","Windows","10.0","null","null","","<p style=""font-size: 48px;"">+</p>","3","Light_Matched","",""
"","","","","","picture","10194","image-keyboard-response","210","282177","0.0-6.0-3.43","53","3","2022-11-17 12:20:57","fd252370c17a9971d68c1d4354a03c2e","","Mozilla/5.0 (Windows NT 10.0; Win64; x64; rv:106.0) Gecko/20100101 Firefox/106.0","","Firefox","106.0","Windows","10.0","436","s","","crackerS.jpg","3","Light_Matched","true",""
"","","","","","fixation","10194","html-keyboard-response","211","283198","0.0-6.0-0.44","53","3","2022-11-17 12:20:57","fd252370c17a9971d68c1d4354a03c2e","","Mozilla/5.0 (Windows NT 10.0; Win64; x64; rv:106.0) Gecko/20100101 Firefox/106.0","","Firefox","106.0","Windows","10.0","null","null","","<p style=""font-size: 48px;"">+</p>","3","Filler","",""
"","","","","","sentence","10194","html-keyboard-response","212","284042","0.0-6.0-1.44","53","3","2022-11-17 12:20:57","fd252370c17a9971d68c1d4354a03c2e","","Mozilla/5.0 (Windows NT 10.0; Win64; x64; rv:106.0) Gecko/20100101 Firefox/106.0","","Firefox","106.0","Windows","10.0","823"," ","","A fork was placed on the plate","3","Filler","",""
"","","","","","fixation","10194","html-keyboard-response","213","284563","0.0-6.0-2.44","53","3","2022-11-17 12:20:57","fd252370c17a9971d68c1d4354a03c2e","","Mozilla/5.0 (Windows NT 10.0; Win64; x64; rv:106.0) Gecko/20100101 Firefox/106.0","","Firefox","106.0","Windows","10.0","null","null","","<p style=""font-size: 48px;"">+</p>","3","Filler","",""
"","","","","","picture","10194","image-keyboard-response","214","285459","0.0-6.0-3.44","53","3","2022-11-17 12:20:57","fd252370c17a9971d68c1d4354a03c2e","","Mozilla/5.0 (Windows NT 10.0; Win64; x64; rv:106.0) Gecko/20100101 Firefox/106.0","","Firefox","106.0","Windows","10.0","859","s","","plate.jpg","3","Filler","true",""
"","","","","","fixation","10194","html-keyboard-response","215","286482","0.0-6.0-0.45","53","3","2022-11-17 12:20:57","fd252370c17a9971d68c1d4354a03c2e","","Mozilla/5.0 (Windows NT 10.0; Win64; x64; rv:106.0) Gecko/20100101 Firefox/106.0","","Firefox","106.0","Windows","10.0","null","null","","<p style=""font-size: 48px;"">+</p>","3","Heavy_Contradictory","",""
"","","","","","sentence","10194","html-keyboard-response","216","287197","0.0-6.0-1.45","53","3","2022-11-17 12:20:57","fd252370c17a9971d68c1d4354a03c2e","","Mozilla/5.0 (Windows NT 10.0; Win64; x64; rv:106.0) Gecko/20100101 Firefox/106.0","","Firefox","106.0","Windows","10.0","693"," ","","A bowling ball dropped and touched a strawberry","3","Heavy_Contradictory","",""
"","","","","","fixation","10194","html-keyboard-response","217","287722","0.0-6.0-2.45","53","3","2022-11-17 12:20:57","fd252370c17a9971d68c1d4354a03c2e","","Mozilla/5.0 (Windows NT 10.0; Win64; x64; rv:106.0) Gecko/20100101 Firefox/106.0","","Firefox","106.0","Windows","10.0","null","null","","<p style=""font-size: 48px;"">+</p>","3","Heavy_Contradictory","",""
"","","","","","picture","10194","image-keyboard-response","218","288181","0.0-6.0-3.45","53","3","2022-11-17 12:20:57","fd252370c17a9971d68c1d4354a03c2e","","Mozilla/5.0 (Windows NT 10.0; Win64; x64; rv:106.0) Gecko/20100101 Firefox/106.0","","Firefox","106.0","Windows","10.0","420","s","","strawberryS.jpg","3","Heavy_Contradictory","true",""
"","","","","","fixation","10194","html-keyboard-response","219","289204","0.0-6.0-0.46","53","3","2022-11-17 12:20:57","fd252370c17a9971d68c1d4354a03c2e","","Mozilla/5.0 (Windows NT 10.0; Win64; x64; rv:106.0) Gecko/20100101 Firefox/106.0","","Firefox","106.0","Windows","10.0","null","null","","<p style=""font-size: 48px;"">+</p>","3","Light_Matched","",""
"","","","","","sentence","10194","html-keyboard-response","220","289875","0.0-6.0-1.46","53","3","2022-11-17 12:20:57","fd252370c17a9971d68c1d4354a03c2e","","Mozilla/5.0 (Windows NT 10.0; Win64; x64; rv:106.0) Gecko/20100101 Firefox/106.0","","Firefox","106.0","Windows","10.0","646"," ","","A balloon dropped and touched a wineglass","3","Light_Matched","",""
"","","","","","fixation","10194","html-keyboard-response","221","290400","0.0-6.0-2.46","53","3","2022-11-17 12:20:57","fd252370c17a9971d68c1d4354a03c2e","","Mozilla/5.0 (Windows NT 10.0; Win64; x64; rv:106.0) Gecko/20100101 Firefox/106.0","","Firefox","106.0","Windows","10.0","null","null","","<p style=""font-size: 48px;"">+</p>","3","Light_Matched","",""
"","","","","","picture","10194","image-keyboard-response","222","290977","0.0-6.0-3.46","53","3","2022-11-17 12:20:57","fd252370c17a9971d68c1d4354a03c2e","","Mozilla/5.0 (Windows NT 10.0; Win64; x64; rv:106.0) Gecko/20100101 Firefox/106.0","","Firefox","106.0","Windows","10.0","548","s","","wineglassS.jpg","3","Light_Matched","true",""
"","","","","","fixation","10194","html-keyboard-response","223","292004","0.0-6.0-0.47","53","3","2022-11-17 12:20:57","fd252370c17a9971d68c1d4354a03c2e","","Mozilla/5.0 (Windows NT 10.0; Win64; x64; rv:106.0) Gecko/20100101 Firefox/106.0","","Firefox","106.0","Windows","10.0","null","null","","<p style=""font-size: 48px;"">+</p>","3","Light_Contradictory","",""
"","","","","","sentence","10194","html-keyboard-response","224","293055","0.0-6.0-1.47","53","3","2022-11-17 12:20:57","fd252370c17a9971d68c1d4354a03c2e","","Mozilla/5.0 (Windows NT 10.0; Win64; x64; rv:106.0) Gecko/20100101 Firefox/106.0","","Firefox","106.0","Windows","10.0","1028"," ","","A balloon dropped and smashed a chocolate ice-cream","3","Light_Contradictory","",""
"","","","","","fixation","10194","html-keyboard-response","225","293579","0.0-6.0-2.47","53","3","2022-11-17 12:20:57","fd252370c17a9971d68c1d4354a03c2e","","Mozilla/5.0 (Windows NT 10.0; Win64; x64; rv:106.0) Gecko/20100101 Firefox/106.0","","Firefox","106.0","Windows","10.0","null","null","","<p style=""font-size: 48px;"">+</p>","3","Light_Contradictory","",""
"","","","","","picture","10194","image-keyboard-response","226","294400","0.0-6.0-3.47","53","3","2022-11-17 12:20:57","fd252370c17a9971d68c1d4354a03c2e","","Mozilla/5.0 (Windows NT 10.0; Win64; x64; rv:106.0) Gecko/20100101 Firefox/106.0","","Firefox","106.0","Windows","10.0","779","s","","icecreamS.jpg","3","Light_Contradictory","true",""
"","","","","","fixation","10194","html-keyboard-response","227","295426","0.0-6.0-0.48","53","3","2022-11-17 12:20:57","fd252370c17a9971d68c1d4354a03c2e","","Mozilla/5.0 (Windows NT 10.0; Win64; x64; rv:106.0) Gecko/20100101 Firefox/106.0","","Firefox","106.0","Windows","10.0","null","null","","<p style=""font-size: 48px;"">+</p>","3","Light_Matched","",""
"","","","","","sentence","10194","html-keyboard-response","228","296982","0.0-6.0-1.48","53","3","2022-11-17 12:20:57","fd252370c17a9971d68c1d4354a03c2e","","Mozilla/5.0 (Windows NT 10.0; Win64; x64; rv:106.0) Gecko/20100101 Firefox/106.0","","Firefox","106.0","Windows","10.0","1531"," ","","A balloon dropped and touched an egg","3","Light_Matched","",""
"","","","","","fixation","10194","html-keyboard-response","229","297507","0.0-6.0-2.48","53","3","2022-11-17 12:20:57","fd252370c17a9971d68c1d4354a03c2e","","Mozilla/5.0 (Windows NT 10.0; Win64; x64; rv:106.0) Gecko/20100101 Firefox/106.0","","Firefox","106.0","Windows","10.0","null","null","","<p style=""font-size: 48px;"">+</p>","3","Light_Matched","",""
"","","","","","picture","10194","image-keyboard-response","230","297958","0.0-6.0-3.48","53","3","2022-11-17 12:20:57","fd252370c17a9971d68c1d4354a03c2e","","Mozilla/5.0 (Windows NT 10.0; Win64; x64; rv:106.0) Gecko/20100101 Firefox/106.0","","Firefox","106.0","Windows","10.0","408","s","","eggS.jpg","3","Light_Matched","true",""
"","","","","","fixation","10194","html-keyboard-response","231","298987","0.0-6.0-0.49","53","3","2022-11-17 12:20:57","fd252370c17a9971d68c1d4354a03c2e","","Mozilla/5.0 (Windows NT 10.0; Win64; x64; rv:106.0) Gecko/20100101 Firefox/106.0","","Firefox","106.0","Windows","10.0","null","null","","<p style=""font-size: 48px;"">+</p>","3","Filler","",""
"","","","","","sentence","10194","html-keyboard-response","232","299830","0.0-6.0-1.49","53","3","2022-11-17 12:20:57","fd252370c17a9971d68c1d4354a03c2e","","Mozilla/5.0 (Windows NT 10.0; Win64; x64; rv:106.0) Gecko/20100101 Firefox/106.0","","Firefox","106.0","Windows","10.0","818"," ","","A toothbrush was placed on the sponge","3","Filler","",""
"","","","","","fixation","10194","html-keyboard-response","233","300358","0.0-6.0-2.49","53","3","2022-11-17 12:20:57","fd252370c17a9971d68c1d4354a03c2e","","Mozilla/5.0 (Windows NT 10.0; Win64; x64; rv:106.0) Gecko/20100101 Firefox/106.0","","Firefox","106.0","Windows","10.0","null","null","","<p style=""font-size: 48px;"">+</p>","3","Filler","",""
"","","","","","picture","10194","image-keyboard-response","234","300993","0.0-6.0-3.49","53","3","2022-11-17 12:20:57","fd252370c17a9971d68c1d4354a03c2e","","Mozilla/5.0 (Windows NT 10.0; Win64; x64; rv:106.0) Gecko/20100101 Firefox/106.0","","Firefox","106.0","Windows","10.0","599","s","","sponge.jpg","3","Filler","true",""
"","","","","","fixation","10194","html-keyboard-response","235","302018","0.0-6.0-0.50","53","3","2022-11-17 12:20:57","fd252370c17a9971d68c1d4354a03c2e","","Mozilla/5.0 (Windows NT 10.0; Win64; x64; rv:106.0) Gecko/20100101 Firefox/106.0","","Firefox","106.0","Windows","10.0","null","null","","<p style=""font-size: 48px;"">+</p>","3","Heavy_Matched","",""
"","","","","","sentence","10194","html-keyboard-response","236","303121","0.0-6.0-1.50","53","3","2022-11-17 12:20:57","fd252370c17a9971d68c1d4354a03c2e","","Mozilla/5.0 (Windows NT 10.0; Win64; x64; rv:106.0) Gecko/20100101 Firefox/106.0","","Firefox","106.0","Windows","10.0","1078"," ","","A bowling ball dropped and smashed a chocolate muffin","3","Heavy_Matched","",""
"","","","","","fixation","10194","html-keyboard-response","237","303648","0.0-6.0-2.50","53","3","2022-11-17 12:20:57","fd252370c17a9971d68c1d4354a03c2e","","Mozilla/5.0 (Windows NT 10.0; Win64; x64; rv:106.0) Gecko/20100101 Firefox/106.0","","Firefox","106.0","Windows","10.0","null","null","","<p style=""font-size: 48px;"">+</p>","3","Heavy_Matched","",""
"","","","","","picture","10194","image-keyboard-response","238","304090","0.0-6.0-3.50","53","3","2022-11-17 12:20:57","fd252370c17a9971d68c1d4354a03c2e","","Mozilla/5.0 (Windows NT 10.0; Win64; x64; rv:106.0) Gecko/20100101 Firefox/106.0","","Firefox","106.0","Windows","10.0","402","s","","muffinS.jpg","3","Heavy_Matched","true",""
"","","","","","fixation","10194","html-keyboard-response","239","305115","0.0-6.0-0.51","53","3","2022-11-17 12:20:57","fd252370c17a9971d68c1d4354a03c2e","","Mozilla/5.0 (Windows NT 10.0; Win64; x64; rv:106.0) Gecko/20100101 Firefox/106.0","","Firefox","106.0","Windows","10.0","null","null","","<p style=""font-size: 48px;"">+</p>","3","Filler","",""
"","","","","","sentence","10194","html-keyboard-response","240","305878","0.0-6.0-1.51","53","3","2022-11-17 12:20:57","fd252370c17a9971d68c1d4354a03c2e","","Mozilla/5.0 (Windows NT 10.0; Win64; x64; rv:106.0) Gecko/20100101 Firefox/106.0","","Firefox","106.0","Windows","10.0","739"," ","","A cabbage was placed on the table","3","Filler","",""
"","","","","","fixation","10194","html-keyboard-response","241","306407","0.0-6.0-2.51","53","3","2022-11-17 12:20:57","fd252370c17a9971d68c1d4354a03c2e","","Mozilla/5.0 (Windows NT 10.0; Win64; x64; rv:106.0) Gecko/20100101 Firefox/106.0","","Firefox","106.0","Windows","10.0","null","null","","<p style=""font-size: 48px;"">+</p>","3","Filler","",""
"","","","","","picture","10194","image-keyboard-response","242","307716","0.0-6.0-3.51","53","3","2022-11-17 12:20:57","fd252370c17a9971d68c1d4354a03c2e","","Mozilla/5.0 (Windows NT 10.0; Win64; x64; rv:106.0) Gecko/20100101 Firefox/106.0","","Firefox","106.0","Windows","10.0","1273","n","","ladder.jpg","3","Filler","true",""
"","","","","","fixation","10194","html-keyboard-response","243","308753","0.0-6.0-0.52","53","3","2022-11-17 12:20:57","fd252370c17a9971d68c1d4354a03c2e","","Mozilla/5.0 (Windows NT 10.0; Win64; x64; rv:106.0) Gecko/20100101 Firefox/106.0","","Firefox","106.0","Windows","10.0","null","null","","<p style=""font-size: 48px;"">+</p>","3","Filler","",""
"","","","","","sentence","10194","html-keyboard-response","244","310549","0.0-6.0-1.52","53","3","2022-11-17 12:20:57","fd252370c17a9971d68c1d4354a03c2e","","Mozilla/5.0 (Windows NT 10.0; Win64; x64; rv:106.0) Gecko/20100101 Firefox/106.0","","Firefox","106.0","Windows","10.0","1772"," ","","A president is writing in the notebook","3","Filler","",""
"","","","","","fixation","10194","html-keyboard-response","245","311087","0.0-6.0-2.52","53","3","2022-11-17 12:20:57","fd252370c17a9971d68c1d4354a03c2e","","Mozilla/5.0 (Windows NT 10.0; Win64; x64; rv:106.0) Gecko/20100101 Firefox/106.0","","Firefox","106.0","Windows","10.0","null","null","","<p style=""font-size: 48px;"">+</p>","3","Filler","",""
"","","","","","picture","10194","image-keyboard-response","246","311933","0.0-6.0-3.52","53","3","2022-11-17 12:20:57","fd252370c17a9971d68c1d4354a03c2e","","Mozilla/5.0 (Windows NT 10.0; Win64; x64; rv:106.0) Gecko/20100101 Firefox/106.0","","Firefox","106.0","Windows","10.0","803","n","","can.jpg","3","Filler","true",""
"","","","","","fixation","10194","html-keyboard-response","247","312993","0.0-6.0-0.53","53","3","2022-11-17 12:20:57","fd252370c17a9971d68c1d4354a03c2e","","Mozilla/5.0 (Windows NT 10.0; Win64; x64; rv:106.0) Gecko/20100101 Firefox/106.0","","Firefox","106.0","Windows","10.0","null","null","","<p style=""font-size: 48px;"">+</p>","3","Filler","",""
"","","","","","sentence","10194","html-keyboard-response","248","313795","0.0-6.0-1.53","53","3","2022-11-17 12:20:57","fd252370c17a9971d68c1d4354a03c2e","","Mozilla/5.0 (Windows NT 10.0; Win64; x64; rv:106.0) Gecko/20100101 Firefox/106.0","","Firefox","106.0","Windows","10.0","764"," ","","A cushion was placed on the magazine","3","Filler","",""
"","","","","","fixation","10194","html-keyboard-response","249","314345","0.0-6.0-2.53","53","3","2022-11-17 12:20:57","fd252370c17a9971d68c1d4354a03c2e","","Mozilla/5.0 (Windows NT 10.0; Win64; x64; rv:106.0) Gecko/20100101 Firefox/106.0","","Firefox","106.0","Windows","10.0","null","null","","<p style=""font-size: 48px;"">+</p>","3","Filler","",""
"","","","","","picture","10194","image-keyboard-response","250","315208","0.0-6.0-3.53","53","3","2022-11-17 12:20:57","fd252370c17a9971d68c1d4354a03c2e","","Mozilla/5.0 (Windows NT 10.0; Win64; x64; rv:106.0) Gecko/20100101 Firefox/106.0","","Firefox","106.0","Windows","10.0","822","n","","box.jpg","3","Filler","true",""
"","","","","","fixation","10194","html-keyboard-response","251","316248","0.0-6.0-0.54","53","3","2022-11-17 12:20:57","fd252370c17a9971d68c1d4354a03c2e","","Mozilla/5.0 (Windows NT 10.0; Win64; x64; rv:106.0) Gecko/20100101 Firefox/106.0","","Firefox","106.0","Windows","10.0","null","null","","<p style=""font-size: 48px;"">+</p>","3","Filler","",""
"","","","","","sentence","10194","html-keyboard-response","252","317366","0.0-6.0-1.54","53","3","2022-11-17 12:20:57","fd252370c17a9971d68c1d4354a03c2e","","Mozilla/5.0 (Windows NT 10.0; Win64; x64; rv:106.0) Gecko/20100101 Firefox/106.0","","Firefox","106.0","Windows","10.0","1068"," ","","A watch was placed on the laptop","3","Filler","",""
"","","","","","fixation","10194","html-keyboard-response","253","317915","0.0-6.0-2.54","53","3","2022-11-17 12:20:57","fd252370c17a9971d68c1d4354a03c2e","","Mozilla/5.0 (Windows NT 10.0; Win64; x64; rv:106.0) Gecko/20100101 Firefox/106.0","","Firefox","106.0","Windows","10.0","null","null","","<p style=""font-size: 48px;"">+</p>","3","Filler","",""
"","","","","","picture","10194","image-keyboard-response","254","318600","0.0-6.0-3.54","53","3","2022-11-17 12:20:57","fd252370c17a9971d68c1d4354a03c2e","","Mozilla/5.0 (Windows NT 10.0; Win64; x64; rv:106.0) Gecko/20100101 Firefox/106.0","","Firefox","106.0","Windows","10.0","646","n","","bow.jpg","3","Filler","true",""
"","","","","","fixation","10194","html-keyboard-response","255","319626","0.0-6.0-0.55","53","3","2022-11-17 12:20:57","fd252370c17a9971d68c1d4354a03c2e","","Mozilla/5.0 (Windows NT 10.0; Win64; x64; rv:106.0) Gecko/20100101 Firefox/106.0","","Firefox","106.0","Windows","10.0","null","null","","<p style=""font-size: 48px;"">+</p>","3","Heavy_Matched","",""
"","","","","","sentence","10194","html-keyboard-response","256","320343","0.0-6.0-1.55","53","3","2022-11-17 12:20:57","fd252370c17a9971d68c1d4354a03c2e","","Mozilla/5.0 (Windows NT 10.0; Win64; x64; rv:106.0) Gecko/20100101 Firefox/106.0","","Firefox","106.0","Windows","10.0","689"," ","","A bowling ball dropped and smashed an iPhone","3","Heavy_Matched","",""
"","","","","","fixation","10194","html-keyboard-response","257","320874","0.0-6.0-2.55","53","3","2022-11-17 12:20:57","fd252370c17a9971d68c1d4354a03c2e","","Mozilla/5.0 (Windows NT 10.0; Win64; x64; rv:106.0) Gecko/20100101 Firefox/106.0","","Firefox","106.0","Windows","10.0","null","null","","<p style=""font-size: 48px;"">+</p>","3","Heavy_Matched","",""
"","","","","","picture","10194","image-keyboard-response","258","321353","0.0-6.0-3.55","53","3","2022-11-17 12:20:57","fd252370c17a9971d68c1d4354a03c2e","","Mozilla/5.0 (Windows NT 10.0; Win64; x64; rv:106.0) Gecko/20100101 Firefox/106.0","","Firefox","106.0","Windows","10.0","443","s","","iphoneS.png","3","Heavy_Matched","true",""
"","","","","","fixation","10194","html-keyboard-response","259","322381","0.0-6.0-0.56","53","3","2022-11-17 12:20:57","fd252370c17a9971d68c1d4354a03c2e","","Mozilla/5.0 (Windows NT 10.0; Win64; x64; rv:106.0) Gecko/20100101 Firefox/106.0","","Firefox","106.0","Windows","10.0","null","null","","<p style=""font-size: 48px;"">+</p>","3","Filler","",""
"","","","","","sentence","10194","html-keyboard-response","260","323375","0.0-6.0-1.56","53","3","2022-11-17 12:20:57","fd252370c17a9971d68c1d4354a03c2e","","Mozilla/5.0 (Windows NT 10.0; Win64; x64; rv:106.0) Gecko/20100101 Firefox/106.0","","Firefox","106.0","Windows","10.0","967"," ","","A parrot is eating an apple","3","Filler","",""
"","","","","","fixation","10194","html-keyboard-response","261","323902","0.0-6.0-2.56","53","3","2022-11-17 12:20:57","fd252370c17a9971d68c1d4354a03c2e","","Mozilla/5.0 (Windows NT 10.0; Win64; x64; rv:106.0) Gecko/20100101 Firefox/106.0","","Firefox","106.0","Windows","10.0","null","null","","<p style=""font-size: 48px;"">+</p>","3","Filler","",""
"","","","","","picture","10194","image-keyboard-response","262","325023","0.0-6.0-3.56","53","3","2022-11-17 12:20:57","fd252370c17a9971d68c1d4354a03c2e","","Mozilla/5.0 (Windows NT 10.0; Win64; x64; rv:106.0) Gecko/20100101 Firefox/106.0","","Firefox","106.0","Windows","10.0","1077","n","","shirt.jpg","3","Filler","true",""
"","","","","","fixation","10194","html-keyboard-response","263","326053","0.0-6.0-0.57","53","3","2022-11-17 12:20:57","fd252370c17a9971d68c1d4354a03c2e","","Mozilla/5.0 (Windows NT 10.0; Win64; x64; rv:106.0) Gecko/20100101 Firefox/106.0","","Firefox","106.0","Windows","10.0","null","null","","<p style=""font-size: 48px;"">+</p>","3","Filler","",""
"","","","","","sentence","10194","html-keyboard-response","264","326942","0.0-6.0-1.57","53","3","2022-11-17 12:20:57","fd252370c17a9971d68c1d4354a03c2e","","Mozilla/5.0 (Windows NT 10.0; Win64; x64; rv:106.0) Gecko/20100101 Firefox/106.0","","Firefox","106.0","Windows","10.0","860"," ","","An astronaut is putting on a space suit","3","Filler","",""
"","","","","","fixation","10194","html-keyboard-response","265","327470","0.0-6.0-2.57","53","3","2022-11-17 12:20:57","fd252370c17a9971d68c1d4354a03c2e","","Mozilla/5.0 (Windows NT 10.0; Win64; x64; rv:106.0) Gecko/20100101 Firefox/106.0","","Firefox","106.0","Windows","10.0","null","null","","<p style=""font-size: 48px;"">+</p>","3","Filler","",""
"","","","","","picture","10194","image-keyboard-response","266","327972","0.0-6.0-3.57","53","3","2022-11-17 12:20:57","fd252370c17a9971d68c1d4354a03c2e","","Mozilla/5.0 (Windows NT 10.0; Win64; x64; rv:106.0) Gecko/20100101 Firefox/106.0","","Firefox","106.0","Windows","10.0","465","s","","spacesuit.jpg","3","Filler","true",""
"","","","","","fixation","10194","html-keyboard-response","267","329001","0.0-6.0-0.58","53","3","2022-11-17 12:20:57","fd252370c17a9971d68c1d4354a03c2e","","Mozilla/5.0 (Windows NT 10.0; Win64; x64; rv:106.0) Gecko/20100101 Firefox/106.0","","Firefox","106.0","Windows","10.0","null","null","","<p style=""font-size: 48px;"">+</p>","3","Filler","",""
"","","","","","sentence","10194","html-keyboard-response","268","329884","0.0-6.0-1.58","53","3","2022-11-17 12:20:57","fd252370c17a9971d68c1d4354a03c2e","","Mozilla/5.0 (Windows NT 10.0; Win64; x64; rv:106.0) Gecko/20100101 Firefox/106.0","","Firefox","106.0","Windows","10.0","855"," ","","A pencil was placed on the shoe","3","Filler","",""
"","","","","","fixation","10194","html-keyboard-response","269","330413","0.0-6.0-2.58","53","3","2022-11-17 12:20:57","fd252370c17a9971d68c1d4354a03c2e","","Mozilla/5.0 (Windows NT 10.0; Win64; x64; rv:106.0) Gecko/20100101 Firefox/106.0","","Firefox","106.0","Windows","10.0","null","null","","<p style=""font-size: 48px;"">+</p>","3","Filler","",""
"","","","","","picture","10194","image-keyboard-response","270","331176","0.0-6.0-3.58","53","3","2022-11-17 12:20:57","fd252370c17a9971d68c1d4354a03c2e","","Mozilla/5.0 (Windows NT 10.0; Win64; x64; rv:106.0) Gecko/20100101 Firefox/106.0","","Firefox","106.0","Windows","10.0","719","n","","perfume.jpg","3","Filler","true",""
"","","","","","fixation","10194","html-keyboard-response","271","332207","0.0-6.0-0.59","53","3","2022-11-17 12:20:57","fd252370c17a9971d68c1d4354a03c2e","","Mozilla/5.0 (Windows NT 10.0; Win64; x64; rv:106.0) Gecko/20100101 Firefox/106.0","","Firefox","106.0","Windows","10.0","null","null","","<p style=""font-size: 48px;"">+</p>","3","Filler","",""
"","","","","","sentence","10194","html-keyboard-response","272","332826","0.0-6.0-1.59","53","3","2022-11-17 12:20:57","fd252370c17a9971d68c1d4354a03c2e","","Mozilla/5.0 (Windows NT 10.0; Win64; x64; rv:106.0) Gecko/20100101 Firefox/106.0","","Firefox","106.0","Windows","10.0","592"," ","","A zebra is playing with a horse","3","Filler","",""
"","","","","","fixation","10194","html-keyboard-response","273","333357","0.0-6.0-2.59","53","3","2022-11-17 12:20:57","fd252370c17a9971d68c1d4354a03c2e","","Mozilla/5.0 (Windows NT 10.0; Win64; x64; rv:106.0) Gecko/20100101 Firefox/106.0","","Firefox","106.0","Windows","10.0","null","null","","<p style=""font-size: 48px;"">+</p>","3","Filler","",""
"","","","","","picture","10194","image-keyboard-response","274","334134","0.0-6.0-3.59","53","3","2022-11-17 12:20:57","fd252370c17a9971d68c1d4354a03c2e","","Mozilla/5.0 (Windows NT 10.0; Win64; x64; rv:106.0) Gecko/20100101 Firefox/106.0","","Firefox","106.0","Windows","10.0","733","n","","watch.jpg","3","Filler","true",""
"","","","","","fixation","10194","html-keyboard-response","275","335162","0.0-6.0-0.60","53","3","2022-11-17 12:20:57","fd252370c17a9971d68c1d4354a03c2e","","Mozilla/5.0 (Windows NT 10.0; Win64; x64; rv:106.0) Gecko/20100101 Firefox/106.0","","Firefox","106.0","Windows","10.0","null","null","","<p style=""font-size: 48px;"">+</p>","3","Filler","",""
"","","","","","sentence","10194","html-keyboard-response","276","335708","0.0-6.0-1.60","53","3","2022-11-17 12:20:57","fd252370c17a9971d68c1d4354a03c2e","","Mozilla/5.0 (Windows NT 10.0; Win64; x64; rv:106.0) Gecko/20100101 Firefox/106.0","","Firefox","106.0","Windows","10.0","516"," ","","A ring was placed on the newspaper","3","Filler","",""
"","","","","","fixation","10194","html-keyboard-response","277","336236","0.0-6.0-2.60","53","3","2022-11-17 12:20:57","fd252370c17a9971d68c1d4354a03c2e","","Mozilla/5.0 (Windows NT 10.0; Win64; x64; rv:106.0) Gecko/20100101 Firefox/106.0","","Firefox","106.0","Windows","10.0","null","null","","<p style=""font-size: 48px;"">+</p>","3","Filler","",""
