"success","timeout","failed_images","failed_audio","failed_video","typeoftrial","subject","trial_type","trial_index","time_elapsed","internal_node_id","run_id","condition","recorded_at","source_code_version","ip","user_agent","device","browser","browser_version","platform","platform_version","rt","response","Experiment","stimulus","list_number","trialcondition","correct","question_order"
"true","false","[]","[]","[]","preload","35137","preload","0","6867","0.0-0.0","59","1","2022-11-17 12:22:27","fd252370c17a9971d68c1d4354a03c2e","","Mozilla/5.0 (Windows NT 10.0; Win64; x64) AppleWebKit/537.36 (KHTML, like Gecko) Chrome/107.0.0.0 Safari/537.36","WebKit","Chrome","107.0.0.0","Windows","10.0","","","","","","","",""
"","","","","","ID","35137","survey-text","1","17698","0.0-1.0","59","1","2022-11-17 12:22:27","fd252370c17a9971d68c1d4354a03c2e","","Mozilla/5.0 (Windows NT 10.0; Win64; x64) AppleWebKit/537.36 (KHTML, like Gecko) Chrome/107.0.0.0 Safari/537.36","WebKit","Chrome","107.0.0.0","Windows","10.0","10820","{""ID"":""603e398b791c600929143195""}","","","","","",""
"","","","","","instructions","35137","html-button-response","2","442374","0.0-2.0","59","1","2022-11-17 12:22:27","fd252370c17a9971d68c1d4354a03c2e","","Mozilla/5.0 (Windows NT 10.0; Win64; x64) AppleWebKit/537.36 (KHTML, like Gecko) Chrome/107.0.0.0 Safari/537.36","WebKit","Chrome","107.0.0.0","Windows","10.0","424674","0","","
                    <p style=""font-size:20px;""> Welcome to the experiment! </p>
                    <p style=""font-size:20px;""> In this experiment, you will be asked to make judgments about the content of different sentences.</p>
                    <p style=""font-size:20px;""> On each trial, you will read a sentence, and will be shown a picture immediately following the sentence. </p>
                    <p style=""font-size:20px;""> Your task is to decide whether the object displayed in the picture was mentioned in the sentence or not </p>
                    <p style=""font-size:20px;""> and respond as quickly as possible by pressing <strong>S</strong> for yes or <strong>N</strong> for no. </p>
                    <p style=""font-size:20px;""> You will now do a practice session with feedback and instructions. </p>
                    <p style=""font-size:20px;""> Click the button below to continue.</p>
                    ","","","",""
"","","","","","instructions","35137","html-button-response","3","462023","0.0-3.0","59","1","2022-11-17 12:22:27","fd252370c17a9971d68c1d4354a03c2e","","Mozilla/5.0 (Windows NT 10.0; Win64; x64) AppleWebKit/537.36 (KHTML, like Gecko) Chrome/107.0.0.0 Safari/537.36","WebKit","Chrome","107.0.0.0","Windows","10.0","19648","0","","
                    <p style=""font-size:20px;""> You are about to begin the practice test. </p>
                    <p style=""font-size:20px;""> On each trial, a sentence will appear on the screen. You should press SPACEBAR when you have read and understood the sentence.</p>
                    <p style=""font-size:20px;""> After you press SPACEBAR, a picture will appear on the screen. </p>
                    <p style=""font-size:20px;""> You need to indicate whether or not the pictured object was mentioned in the sentence. </p>
                    <p style=""font-size:20px;""> If the object WAS mentioned in the preceding sentence, you should press <strong>S</strong> </p>
                    <p style=""font-size:20px;""> If the object was NOT mentioned in the preceding sentence, you should press <strong>N</strong>. </p>
                    <p style=""font-size:20px;""> Click the button below to continue to the practice session.</p>
                    ","","","",""
"","","","","","fixation","35137","html-keyboard-response","4","463032","0.0-4.0-0.0","59","1","2022-11-17 12:22:27","fd252370c17a9971d68c1d4354a03c2e","","Mozilla/5.0 (Windows NT 10.0; Win64; x64) AppleWebKit/537.36 (KHTML, like Gecko) Chrome/107.0.0.0 Safari/537.36","WebKit","Chrome","107.0.0.0","Windows","10.0","null","null","","<p style=""font-size: 48px;"">+</p>","practice","practice_s","",""
"","","","","","sentence","35137","html-keyboard-response","5","466813","0.0-4.0-1.0","59","1","2022-11-17 12:22:27","fd252370c17a9971d68c1d4354a03c2e","","Mozilla/5.0 (Windows NT 10.0; Win64; x64) AppleWebKit/537.36 (KHTML, like Gecko) Chrome/107.0.0.0 Safari/537.36","WebKit","Chrome","107.0.0.0","Windows","10.0","3778"," ","","A knife was placed on a hammer","practice","practice_s","",""
"","","","","","fixation","35137","html-keyboard-response","6","467320","0.0-4.0-2.0","59","1","2022-11-17 12:22:27","fd252370c17a9971d68c1d4354a03c2e","","Mozilla/5.0 (Windows NT 10.0; Win64; x64) AppleWebKit/537.36 (KHTML, like Gecko) Chrome/107.0.0.0 Safari/537.36","WebKit","Chrome","107.0.0.0","Windows","10.0","null","null","","<p style=""font-size: 48px;"">+</p>","practice","practice_s","",""
"","","","","","picture","35137","image-keyboard-response","7","470709","0.0-4.0-3.0","59","1","2022-11-17 12:22:27","fd252370c17a9971d68c1d4354a03c2e","","Mozilla/5.0 (Windows NT 10.0; Win64; x64) AppleWebKit/537.36 (KHTML, like Gecko) Chrome/107.0.0.0 Safari/537.36","WebKit","Chrome","107.0.0.0","Windows","10.0","3374","s","","hammerB.jpg","practice","practice_s","true",""
"","","","","","","","html-keyboard-response","8","472720","0.0-4.0-4.0","59","1","2022-11-17 12:22:27","fd252370c17a9971d68c1d4354a03c2e","","Mozilla/5.0 (Windows NT 10.0; Win64; x64) AppleWebKit/537.36 (KHTML, like Gecko) Chrome/107.0.0.0 Safari/537.36","WebKit","Chrome","107.0.0.0","Windows","10.0","null","null","","CORRECT!","","","",""
"","","","","","fixation","35137","html-keyboard-response","9","473727","0.0-4.0-0.1","59","1","2022-11-17 12:22:27","fd252370c17a9971d68c1d4354a03c2e","","Mozilla/5.0 (Windows NT 10.0; Win64; x64) AppleWebKit/537.36 (KHTML, like Gecko) Chrome/107.0.0.0 Safari/537.36","WebKit","Chrome","107.0.0.0","Windows","10.0","null","null","","<p style=""font-size: 48px;"">+</p>","practice","practice_n","",""
"","","","","","sentence","35137","html-keyboard-response","10","477775","0.0-4.0-1.1","59","1","2022-11-17 12:22:27","fd252370c17a9971d68c1d4354a03c2e","","Mozilla/5.0 (Windows NT 10.0; Win64; x64) AppleWebKit/537.36 (KHTML, like Gecko) Chrome/107.0.0.0 Safari/537.36","WebKit","Chrome","107.0.0.0","Windows","10.0","4044"," ","","A balloon dropped and smashed a cup","practice","practice_n","",""
"","","","","","fixation","35137","html-keyboard-response","11","478280","0.0-4.0-2.1","59","1","2022-11-17 12:22:27","fd252370c17a9971d68c1d4354a03c2e","","Mozilla/5.0 (Windows NT 10.0; Win64; x64) AppleWebKit/537.36 (KHTML, like Gecko) Chrome/107.0.0.0 Safari/537.36","WebKit","Chrome","107.0.0.0","Windows","10.0","null","null","","<p style=""font-size: 48px;"">+</p>","practice","practice_n","",""
"","","","","","picture","35137","image-keyboard-response","12","480010","0.0-4.0-3.1","59","1","2022-11-17 12:22:27","fd252370c17a9971d68c1d4354a03c2e","","Mozilla/5.0 (Windows NT 10.0; Win64; x64) AppleWebKit/537.36 (KHTML, like Gecko) Chrome/107.0.0.0 Safari/537.36","WebKit","Chrome","107.0.0.0","Windows","10.0","1724","n","","bananaB.jpg","practice","practice_n","true",""
"","","","","","","","html-keyboard-response","13","482015","0.0-4.0-4.1","59","1","2022-11-17 12:22:27","fd252370c17a9971d68c1d4354a03c2e","","Mozilla/5.0 (Windows NT 10.0; Win64; x64) AppleWebKit/537.36 (KHTML, like Gecko) Chrome/107.0.0.0 Safari/537.36","WebKit","Chrome","107.0.0.0","Windows","10.0","null","null","","CORRECT!","","","",""
"","","","","","fixation","35137","html-keyboard-response","14","483025","0.0-4.0-0.2","59","1","2022-11-17 12:22:27","fd252370c17a9971d68c1d4354a03c2e","","Mozilla/5.0 (Windows NT 10.0; Win64; x64) AppleWebKit/537.36 (KHTML, like Gecko) Chrome/107.0.0.0 Safari/537.36","WebKit","Chrome","107.0.0.0","Windows","10.0","null","null","","<p style=""font-size: 48px;"">+</p>","practice","practice_n","",""
"","","","","","sentence","35137","html-keyboard-response","15","497721","0.0-4.0-1.2","59","1","2022-11-17 12:22:27","fd252370c17a9971d68c1d4354a03c2e","","Mozilla/5.0 (Windows NT 10.0; Win64; x64) AppleWebKit/537.36 (KHTML, like Gecko) Chrome/107.0.0.0 Safari/537.36","WebKit","Chrome","107.0.0.0","Windows","10.0","14692"," ","","A bowling ball dropped and touched a bottle","practice","practice_n","",""
"","","","","","fixation","35137","html-keyboard-response","16","498231","0.0-4.0-2.2","59","1","2022-11-17 12:22:27","fd252370c17a9971d68c1d4354a03c2e","","Mozilla/5.0 (Windows NT 10.0; Win64; x64) AppleWebKit/537.36 (KHTML, like Gecko) Chrome/107.0.0.0 Safari/537.36","WebKit","Chrome","107.0.0.0","Windows","10.0","null","null","","<p style=""font-size: 48px;"">+</p>","practice","practice_n","",""
"","","","","","picture","35137","image-keyboard-response","17","499824","0.0-4.0-3.2","59","1","2022-11-17 12:22:27","fd252370c17a9971d68c1d4354a03c2e","","Mozilla/5.0 (Windows NT 10.0; Win64; x64) AppleWebKit/537.36 (KHTML, like Gecko) Chrome/107.0.0.0 Safari/537.36","WebKit","Chrome","107.0.0.0","Windows","10.0","1586","n","","bookB.jpg","practice","practice_n","true",""
"","","","","","","","html-keyboard-response","18","501832","0.0-4.0-4.2","59","1","2022-11-17 12:22:27","fd252370c17a9971d68c1d4354a03c2e","","Mozilla/5.0 (Windows NT 10.0; Win64; x64) AppleWebKit/537.36 (KHTML, like Gecko) Chrome/107.0.0.0 Safari/537.36","WebKit","Chrome","107.0.0.0","Windows","10.0","null","null","","CORRECT!","","","",""
"","","","","","fixation","35137","html-keyboard-response","19","502840","0.0-4.0-0.3","59","1","2022-11-17 12:22:27","fd252370c17a9971d68c1d4354a03c2e","","Mozilla/5.0 (Windows NT 10.0; Win64; x64) AppleWebKit/537.36 (KHTML, like Gecko) Chrome/107.0.0.0 Safari/537.36","WebKit","Chrome","107.0.0.0","Windows","10.0","null","null","","<p style=""font-size: 48px;"">+</p>","practice","practice_n","",""
"","","","","","sentence","35137","html-keyboard-response","20","505142","0.0-4.0-1.3","59","1","2022-11-17 12:22:27","fd252370c17a9971d68c1d4354a03c2e","","Mozilla/5.0 (Windows NT 10.0; Win64; x64) AppleWebKit/537.36 (KHTML, like Gecko) Chrome/107.0.0.0 Safari/537.36","WebKit","Chrome","107.0.0.0","Windows","10.0","2299"," ","","A fork was placed on a stool","practice","practice_n","",""
"","","","","","fixation","35137","html-keyboard-response","21","505647","0.0-4.0-2.3","59","1","2022-11-17 12:22:27","fd252370c17a9971d68c1d4354a03c2e","","Mozilla/5.0 (Windows NT 10.0; Win64; x64) AppleWebKit/537.36 (KHTML, like Gecko) Chrome/107.0.0.0 Safari/537.36","WebKit","Chrome","107.0.0.0","Windows","10.0","null","null","","<p style=""font-size: 48px;"">+</p>","practice","practice_n","",""
"","","","","","picture","35137","image-keyboard-response","22","507412","0.0-4.0-3.3","59","1","2022-11-17 12:22:27","fd252370c17a9971d68c1d4354a03c2e","","Mozilla/5.0 (Windows NT 10.0; Win64; x64) AppleWebKit/537.36 (KHTML, like Gecko) Chrome/107.0.0.0 Safari/537.36","WebKit","Chrome","107.0.0.0","Windows","10.0","1760","s","","tableB.jpg","practice","practice_n","false",""
"","","","","","","","html-keyboard-response","23","509424","0.0-4.0-4.3","59","1","2022-11-17 12:22:27","fd252370c17a9971d68c1d4354a03c2e","","Mozilla/5.0 (Windows NT 10.0; Win64; x64) AppleWebKit/537.36 (KHTML, like Gecko) Chrome/107.0.0.0 Safari/537.36","WebKit","Chrome","107.0.0.0","Windows","10.0","null","null","","WRONG!","","","",""
"","","","","","fixation","35137","html-keyboard-response","24","510432","0.0-4.0-0.4","59","1","2022-11-17 12:22:27","fd252370c17a9971d68c1d4354a03c2e","","Mozilla/5.0 (Windows NT 10.0; Win64; x64) AppleWebKit/537.36 (KHTML, like Gecko) Chrome/107.0.0.0 Safari/537.36","WebKit","Chrome","107.0.0.0","Windows","10.0","null","null","","<p style=""font-size: 48px;"">+</p>","practice","practice_s","",""
"","","","","","sentence","35137","html-keyboard-response","25","514309","0.0-4.0-1.4","59","1","2022-11-17 12:22:27","fd252370c17a9971d68c1d4354a03c2e","","Mozilla/5.0 (Windows NT 10.0; Win64; x64) AppleWebKit/537.36 (KHTML, like Gecko) Chrome/107.0.0.0 Safari/537.36","WebKit","Chrome","107.0.0.0","Windows","10.0","3875"," ","","A bowling ball dropped and smashed a teacup","practice","practice_s","",""
"","","","","","fixation","35137","html-keyboard-response","26","514816","0.0-4.0-2.4","59","1","2022-11-17 12:22:27","fd252370c17a9971d68c1d4354a03c2e","","Mozilla/5.0 (Windows NT 10.0; Win64; x64) AppleWebKit/537.36 (KHTML, like Gecko) Chrome/107.0.0.0 Safari/537.36","WebKit","Chrome","107.0.0.0","Windows","10.0","null","null","","<p style=""font-size: 48px;"">+</p>","practice","practice_s","",""
"","","","","","picture","35137","image-keyboard-response","27","516477","0.0-4.0-3.4","59","1","2022-11-17 12:22:27","fd252370c17a9971d68c1d4354a03c2e","","Mozilla/5.0 (Windows NT 10.0; Win64; x64) AppleWebKit/537.36 (KHTML, like Gecko) Chrome/107.0.0.0 Safari/537.36","WebKit","Chrome","107.0.0.0","Windows","10.0","1655","s","","cupB.jpg","practice","practice_s","true",""
"","","","","","","","html-keyboard-response","28","518487","0.0-4.0-4.4","59","1","2022-11-17 12:22:27","fd252370c17a9971d68c1d4354a03c2e","","Mozilla/5.0 (Windows NT 10.0; Win64; x64) AppleWebKit/537.36 (KHTML, like Gecko) Chrome/107.0.0.0 Safari/537.36","WebKit","Chrome","107.0.0.0","Windows","10.0","null","null","","CORRECT!","","","",""
"","","","","","fixation","35137","html-keyboard-response","29","519497","0.0-4.0-0.5","59","1","2022-11-17 12:22:27","fd252370c17a9971d68c1d4354a03c2e","","Mozilla/5.0 (Windows NT 10.0; Win64; x64) AppleWebKit/537.36 (KHTML, like Gecko) Chrome/107.0.0.0 Safari/537.36","WebKit","Chrome","107.0.0.0","Windows","10.0","null","null","","<p style=""font-size: 48px;"">+</p>","practice","practice_s","",""
"","","","","","sentence","35137","html-keyboard-response","30","527437","0.0-4.0-1.5","59","1","2022-11-17 12:22:27","fd252370c17a9971d68c1d4354a03c2e","","Mozilla/5.0 (Windows NT 10.0; Win64; x64) AppleWebKit/537.36 (KHTML, like Gecko) Chrome/107.0.0.0 Safari/537.36","WebKit","Chrome","107.0.0.0","Windows","10.0","7935"," ","","A balloon dropped and touched a cigarette","practice","practice_s","",""
"","","","","","fixation","35137","html-keyboard-response","31","527944","0.0-4.0-2.5","59","1","2022-11-17 12:22:27","fd252370c17a9971d68c1d4354a03c2e","","Mozilla/5.0 (Windows NT 10.0; Win64; x64) AppleWebKit/537.36 (KHTML, like Gecko) Chrome/107.0.0.0 Safari/537.36","WebKit","Chrome","107.0.0.0","Windows","10.0","null","null","","<p style=""font-size: 48px;"">+</p>","practice","practice_s","",""
"","","","","","picture","35137","image-keyboard-response","32","529558","0.0-4.0-3.5","59","1","2022-11-17 12:22:27","fd252370c17a9971d68c1d4354a03c2e","","Mozilla/5.0 (Windows NT 10.0; Win64; x64) AppleWebKit/537.36 (KHTML, like Gecko) Chrome/107.0.0.0 Safari/537.36","WebKit","Chrome","107.0.0.0","Windows","10.0","1609","s","","cigaretteB.jpg","practice","practice_s","true",""
"","","","","","","","html-keyboard-response","33","531568","0.0-4.0-4.5","59","1","2022-11-17 12:22:27","fd252370c17a9971d68c1d4354a03c2e","","Mozilla/5.0 (Windows NT 10.0; Win64; x64) AppleWebKit/537.36 (KHTML, like Gecko) Chrome/107.0.0.0 Safari/537.36","WebKit","Chrome","107.0.0.0","Windows","10.0","null","null","","CORRECT!","","","",""
"","","","","","movetoexp","35137","html-button-response","34","542379","0.0-5.0","59","1","2022-11-17 12:22:27","fd252370c17a9971d68c1d4354a03c2e","","Mozilla/5.0 (Windows NT 10.0; Win64; x64) AppleWebKit/537.36 (KHTML, like Gecko) Chrome/107.0.0.0 Safari/537.36","WebKit","Chrome","107.0.0.0","Windows","10.0","10807","0","","<p style=""font-size:20px;"">You have now completed the practice session! </p>
                    <p style=""font-size:20px;"">You will now move on to the main experiment, where you will not be provided any feedback. </p>
                    <p style=""font-size:20px;"">Remember, you should press <strong>S</strong> if the pictured object was mentioned in the preceding sentence<br> and <strong>N</strong> if the pictured object was not mentioned in the preceding sentence.</p>
                    <p style=""font-size:20px;"">Please click the button below to continue to the main experiment. </p>","","","",""
"","","","","","fixation","35137","html-keyboard-response","35","543383","0.0-6.0-0.0","59","1","2022-11-17 12:22:27","fd252370c17a9971d68c1d4354a03c2e","","Mozilla/5.0 (Windows NT 10.0; Win64; x64) AppleWebKit/537.36 (KHTML, like Gecko) Chrome/107.0.0.0 Safari/537.36","WebKit","Chrome","107.0.0.0","Windows","10.0","null","null","","<p style=""font-size: 48px;"">+</p>","1","Filler","",""
"","","","","","sentence","35137","html-keyboard-response","36","547224","0.0-6.0-1.0","59","1","2022-11-17 12:22:27","fd252370c17a9971d68c1d4354a03c2e","","Mozilla/5.0 (Windows NT 10.0; Win64; x64) AppleWebKit/537.36 (KHTML, like Gecko) Chrome/107.0.0.0 Safari/537.36","WebKit","Chrome","107.0.0.0","Windows","10.0","3836"," ","","A kitten is playing in the sandbox","1","Filler","",""
"","","","","","fixation","35137","html-keyboard-response","37","547727","0.0-6.0-2.0","59","1","2022-11-17 12:22:27","fd252370c17a9971d68c1d4354a03c2e","","Mozilla/5.0 (Windows NT 10.0; Win64; x64) AppleWebKit/537.36 (KHTML, like Gecko) Chrome/107.0.0.0 Safari/537.36","WebKit","Chrome","107.0.0.0","Windows","10.0","null","null","","<p style=""font-size: 48px;"">+</p>","1","Filler","",""
"","","","","","picture","35137","image-keyboard-response","38","548935","0.0-6.0-3.0","59","1","2022-11-17 12:22:27","fd252370c17a9971d68c1d4354a03c2e","","Mozilla/5.0 (Windows NT 10.0; Win64; x64) AppleWebKit/537.36 (KHTML, like Gecko) Chrome/107.0.0.0 Safari/537.36","WebKit","Chrome","107.0.0.0","Windows","10.0","1202","n","","dustbin.jpg","1","Filler","true",""
"","","","","","fixation","35137","html-keyboard-response","39","549943","0.0-6.0-0.1","59","1","2022-11-17 12:22:27","fd252370c17a9971d68c1d4354a03c2e","","Mozilla/5.0 (Windows NT 10.0; Win64; x64) AppleWebKit/537.36 (KHTML, like Gecko) Chrome/107.0.0.0 Safari/537.36","WebKit","Chrome","107.0.0.0","Windows","10.0","null","null","","<p style=""font-size: 48px;"">+</p>","1","Light_Contradictory","",""
"","","","","","sentence","35137","html-keyboard-response","40","554092","0.0-6.0-1.1","59","1","2022-11-17 12:22:27","fd252370c17a9971d68c1d4354a03c2e","","Mozilla/5.0 (Windows NT 10.0; Win64; x64) AppleWebKit/537.36 (KHTML, like Gecko) Chrome/107.0.0.0 Safari/537.36","WebKit","Chrome","107.0.0.0","Windows","10.0","4146"," ","","A balloon dropped and smashed a strawberry","1","Light_Contradictory","",""
"","","","","","fixation","35137","html-keyboard-response","41","554599","0.0-6.0-2.1","59","1","2022-11-17 12:22:27","fd252370c17a9971d68c1d4354a03c2e","","Mozilla/5.0 (Windows NT 10.0; Win64; x64) AppleWebKit/537.36 (KHTML, like Gecko) Chrome/107.0.0.0 Safari/537.36","WebKit","Chrome","107.0.0.0","Windows","10.0","null","null","","<p style=""font-size: 48px;"">+</p>","1","Light_Contradictory","",""
"","","","","","picture","35137","image-keyboard-response","42","555956","0.0-6.0-3.1","59","1","2022-11-17 12:22:27","fd252370c17a9971d68c1d4354a03c2e","","Mozilla/5.0 (Windows NT 10.0; Win64; x64) AppleWebKit/537.36 (KHTML, like Gecko) Chrome/107.0.0.0 Safari/537.36","WebKit","Chrome","107.0.0.0","Windows","10.0","1350","s","","strawberryS.jpg","1","Light_Contradictory","true",""
"","","","","","fixation","35137","html-keyboard-response","43","556967","0.0-6.0-0.2","59","1","2022-11-17 12:22:27","fd252370c17a9971d68c1d4354a03c2e","","Mozilla/5.0 (Windows NT 10.0; Win64; x64) AppleWebKit/537.36 (KHTML, like Gecko) Chrome/107.0.0.0 Safari/537.36","WebKit","Chrome","107.0.0.0","Windows","10.0","null","null","","<p style=""font-size: 48px;"">+</p>","1","Filler","",""
"","","","","","sentence","35137","html-keyboard-response","44","558933","0.0-6.0-1.2","59","1","2022-11-17 12:22:27","fd252370c17a9971d68c1d4354a03c2e","","Mozilla/5.0 (Windows NT 10.0; Win64; x64) AppleWebKit/537.36 (KHTML, like Gecko) Chrome/107.0.0.0 Safari/537.36","WebKit","Chrome","107.0.0.0","Windows","10.0","1960"," ","","A student is writing on a board","1","Filler","",""
"","","","","","fixation","35137","html-keyboard-response","45","559440","0.0-6.0-2.2","59","1","2022-11-17 12:22:27","fd252370c17a9971d68c1d4354a03c2e","","Mozilla/5.0 (Windows NT 10.0; Win64; x64) AppleWebKit/537.36 (KHTML, like Gecko) Chrome/107.0.0.0 Safari/537.36","WebKit","Chrome","107.0.0.0","Windows","10.0","null","null","","<p style=""font-size: 48px;"">+</p>","1","Filler","",""
"","","","","","picture","35137","image-keyboard-response","46","560433","0.0-6.0-3.2","59","1","2022-11-17 12:22:27","fd252370c17a9971d68c1d4354a03c2e","","Mozilla/5.0 (Windows NT 10.0; Win64; x64) AppleWebKit/537.36 (KHTML, like Gecko) Chrome/107.0.0.0 Safari/537.36","WebKit","Chrome","107.0.0.0","Windows","10.0","985","n","","owl.jpg","1","Filler","true",""
"","","","","","fixation","35137","html-keyboard-response","47","561447","0.0-6.0-0.3","59","1","2022-11-17 12:22:27","fd252370c17a9971d68c1d4354a03c2e","","Mozilla/5.0 (Windows NT 10.0; Win64; x64) AppleWebKit/537.36 (KHTML, like Gecko) Chrome/107.0.0.0 Safari/537.36","WebKit","Chrome","107.0.0.0","Windows","10.0","null","null","","<p style=""font-size: 48px;"">+</p>","1","Filler","",""
"","","","","","sentence","35137","html-keyboard-response","48","565846","0.0-6.0-1.3","59","1","2022-11-17 12:22:27","fd252370c17a9971d68c1d4354a03c2e","","Mozilla/5.0 (Windows NT 10.0; Win64; x64) AppleWebKit/537.36 (KHTML, like Gecko) Chrome/107.0.0.0 Safari/537.36","WebKit","Chrome","107.0.0.0","Windows","10.0","4396"," ","","A teenage girl is playing the piano","1","Filler","",""
"","","","","","fixation","35137","html-keyboard-response","49","566353","0.0-6.0-2.3","59","1","2022-11-17 12:22:27","fd252370c17a9971d68c1d4354a03c2e","","Mozilla/5.0 (Windows NT 10.0; Win64; x64) AppleWebKit/537.36 (KHTML, like Gecko) Chrome/107.0.0.0 Safari/537.36","WebKit","Chrome","107.0.0.0","Windows","10.0","null","null","","<p style=""font-size: 48px;"">+</p>","1","Filler","",""
"","","","","","picture","35137","image-keyboard-response","50","567387","0.0-6.0-3.3","59","1","2022-11-17 12:22:27","fd252370c17a9971d68c1d4354a03c2e","","Mozilla/5.0 (Windows NT 10.0; Win64; x64) AppleWebKit/537.36 (KHTML, like Gecko) Chrome/107.0.0.0 Safari/537.36","WebKit","Chrome","107.0.0.0","Windows","10.0","1028","n","","pillow.jpg","1","Filler","true",""
"","","","","","fixation","35137","html-keyboard-response","51","568399","0.0-6.0-0.4","59","1","2022-11-17 12:22:27","fd252370c17a9971d68c1d4354a03c2e","","Mozilla/5.0 (Windows NT 10.0; Win64; x64) AppleWebKit/537.36 (KHTML, like Gecko) Chrome/107.0.0.0 Safari/537.36","WebKit","Chrome","107.0.0.0","Windows","10.0","null","null","","<p style=""font-size: 48px;"">+</p>","1","Heavy_Matched","",""
"","","","","","sentence","35137","html-keyboard-response","52","570825","0.0-6.0-1.4","59","1","2022-11-17 12:22:27","fd252370c17a9971d68c1d4354a03c2e","","Mozilla/5.0 (Windows NT 10.0; Win64; x64) AppleWebKit/537.36 (KHTML, like Gecko) Chrome/107.0.0.0 Safari/537.36","WebKit","Chrome","107.0.0.0","Windows","10.0","2423"," ","","A bowling ball dropped and smashed a TV","1","Heavy_Matched","",""
"","","","","","fixation","35137","html-keyboard-response","53","571335","0.0-6.0-2.4","59","1","2022-11-17 12:22:27","fd252370c17a9971d68c1d4354a03c2e","","Mozilla/5.0 (Windows NT 10.0; Win64; x64) AppleWebKit/537.36 (KHTML, like Gecko) Chrome/107.0.0.0 Safari/537.36","WebKit","Chrome","107.0.0.0","Windows","10.0","null","null","","<p style=""font-size: 48px;"">+</p>","1","Heavy_Matched","",""
"","","","","","picture","35137","image-keyboard-response","54","572446","0.0-6.0-3.4","59","1","2022-11-17 12:22:27","fd252370c17a9971d68c1d4354a03c2e","","Mozilla/5.0 (Windows NT 10.0; Win64; x64) AppleWebKit/537.36 (KHTML, like Gecko) Chrome/107.0.0.0 Safari/537.36","WebKit","Chrome","107.0.0.0","Windows","10.0","1107","s","","tvS.jpg","1","Heavy_Matched","true",""
"","","","","","fixation","35137","html-keyboard-response","55","573455","0.0-6.0-0.5","59","1","2022-11-17 12:22:27","fd252370c17a9971d68c1d4354a03c2e","","Mozilla/5.0 (Windows NT 10.0; Win64; x64) AppleWebKit/537.36 (KHTML, like Gecko) Chrome/107.0.0.0 Safari/537.36","WebKit","Chrome","107.0.0.0","Windows","10.0","null","null","","<p style=""font-size: 48px;"">+</p>","1","Heavy_Contradictory","",""
"","","","","","sentence","35137","html-keyboard-response","56","578007","0.0-6.0-1.5","59","1","2022-11-17 12:22:27","fd252370c17a9971d68c1d4354a03c2e","","Mozilla/5.0 (Windows NT 10.0; Win64; x64) AppleWebKit/537.36 (KHTML, like Gecko) Chrome/107.0.0.0 Safari/537.36","WebKit","Chrome","107.0.0.0","Windows","10.0","4544"," ","","A bowling ball dropped and touched glasses","1","Heavy_Contradictory","",""
"","","","","","fixation","35137","html-keyboard-response","57","578511","0.0-6.0-2.5","59","1","2022-11-17 12:22:27","fd252370c17a9971d68c1d4354a03c2e","","Mozilla/5.0 (Windows NT 10.0; Win64; x64) AppleWebKit/537.36 (KHTML, like Gecko) Chrome/107.0.0.0 Safari/537.36","WebKit","Chrome","107.0.0.0","Windows","10.0","null","null","","<p style=""font-size: 48px;"">+</p>","1","Heavy_Contradictory","",""
"","","","","","picture","35137","image-keyboard-response","58","579918","0.0-6.0-3.5","59","1","2022-11-17 12:22:27","fd252370c17a9971d68c1d4354a03c2e","","Mozilla/5.0 (Windows NT 10.0; Win64; x64) AppleWebKit/537.36 (KHTML, like Gecko) Chrome/107.0.0.0 Safari/537.36","WebKit","Chrome","107.0.0.0","Windows","10.0","1404","s","","glassesS.jpg","1","Heavy_Contradictory","true",""
"","","","","","fixation","35137","html-keyboard-response","59","580927","0.0-6.0-0.6","59","1","2022-11-17 12:22:27","fd252370c17a9971d68c1d4354a03c2e","","Mozilla/5.0 (Windows NT 10.0; Win64; x64) AppleWebKit/537.36 (KHTML, like Gecko) Chrome/107.0.0.0 Safari/537.36","WebKit","Chrome","107.0.0.0","Windows","10.0","null","null","","<p style=""font-size: 48px;"">+</p>","1","Filler","",""
"","","","","","sentence","35137","html-keyboard-response","60","582852","0.0-6.0-1.6","59","1","2022-11-17 12:22:27","fd252370c17a9971d68c1d4354a03c2e","","Mozilla/5.0 (Windows NT 10.0; Win64; x64) AppleWebKit/537.36 (KHTML, like Gecko) Chrome/107.0.0.0 Safari/537.36","WebKit","Chrome","107.0.0.0","Windows","10.0","1918"," ","","A man is playing with a cat","1","Filler","",""
"","","","","","fixation","35137","html-keyboard-response","61","583360","0.0-6.0-2.6","59","1","2022-11-17 12:22:27","fd252370c17a9971d68c1d4354a03c2e","","Mozilla/5.0 (Windows NT 10.0; Win64; x64) AppleWebKit/537.36 (KHTML, like Gecko) Chrome/107.0.0.0 Safari/537.36","WebKit","Chrome","107.0.0.0","Windows","10.0","null","null","","<p style=""font-size: 48px;"">+</p>","1","Filler","",""
"","","","","","picture","35137","image-keyboard-response","62","584472","0.0-6.0-3.6","59","1","2022-11-17 12:22:27","fd252370c17a9971d68c1d4354a03c2e","","Mozilla/5.0 (Windows NT 10.0; Win64; x64) AppleWebKit/537.36 (KHTML, like Gecko) Chrome/107.0.0.0 Safari/537.36","WebKit","Chrome","107.0.0.0","Windows","10.0","1103","n","","ceramicplate.jpg","1","Filler","true",""
"","","","","","fixation","35137","html-keyboard-response","63","585480","0.0-6.0-0.7","59","1","2022-11-17 12:22:27","fd252370c17a9971d68c1d4354a03c2e","","Mozilla/5.0 (Windows NT 10.0; Win64; x64) AppleWebKit/537.36 (KHTML, like Gecko) Chrome/107.0.0.0 Safari/537.36","WebKit","Chrome","107.0.0.0","Windows","10.0","null","null","","<p style=""font-size: 48px;"">+</p>","1","Heavy_Matched","",""
"","","","","","sentence","35137","html-keyboard-response","64","587770","0.0-6.0-1.7","59","1","2022-11-17 12:22:27","fd252370c17a9971d68c1d4354a03c2e","","Mozilla/5.0 (Windows NT 10.0; Win64; x64) AppleWebKit/537.36 (KHTML, like Gecko) Chrome/107.0.0.0 Safari/537.36","WebKit","Chrome","107.0.0.0","Windows","10.0","2284"," ","","A bowling ball dropped and smashed a porcelain figure","1","Heavy_Matched","",""
"","","","","","fixation","35137","html-keyboard-response","65","588280","0.0-6.0-2.7","59","1","2022-11-17 12:22:27","fd252370c17a9971d68c1d4354a03c2e","","Mozilla/5.0 (Windows NT 10.0; Win64; x64) AppleWebKit/537.36 (KHTML, like Gecko) Chrome/107.0.0.0 Safari/537.36","WebKit","Chrome","107.0.0.0","Windows","10.0","null","null","","<p style=""font-size: 48px;"">+</p>","1","Heavy_Matched","",""
"","","","","","picture","35137","image-keyboard-response","66","589682","0.0-6.0-3.7","59","1","2022-11-17 12:22:27","fd252370c17a9971d68c1d4354a03c2e","","Mozilla/5.0 (Windows NT 10.0; Win64; x64) AppleWebKit/537.36 (KHTML, like Gecko) Chrome/107.0.0.0 Safari/537.36","WebKit","Chrome","107.0.0.0","Windows","10.0","1394","s","","figureS.jpg","1","Heavy_Matched","true",""
"","","","","","fixation","35137","html-keyboard-response","67","590687","0.0-6.0-0.8","59","1","2022-11-17 12:22:27","fd252370c17a9971d68c1d4354a03c2e","","Mozilla/5.0 (Windows NT 10.0; Win64; x64) AppleWebKit/537.36 (KHTML, like Gecko) Chrome/107.0.0.0 Safari/537.36","WebKit","Chrome","107.0.0.0","Windows","10.0","null","null","","<p style=""font-size: 48px;"">+</p>","1","Light_Matched","",""
"","","","","","sentence","35137","html-keyboard-response","68","594418","0.0-6.0-1.8","59","1","2022-11-17 12:22:27","fd252370c17a9971d68c1d4354a03c2e","","Mozilla/5.0 (Windows NT 10.0; Win64; x64) AppleWebKit/537.36 (KHTML, like Gecko) Chrome/107.0.0.0 Safari/537.36","WebKit","Chrome","107.0.0.0","Windows","10.0","3724"," ","","A balloon dropped and touched a rice cake","1","Light_Matched","",""
"","","","","","fixation","35137","html-keyboard-response","69","594938","0.0-6.0-2.8","59","1","2022-11-17 12:22:27","fd252370c17a9971d68c1d4354a03c2e","","Mozilla/5.0 (Windows NT 10.0; Win64; x64) AppleWebKit/537.36 (KHTML, like Gecko) Chrome/107.0.0.0 Safari/537.36","WebKit","Chrome","107.0.0.0","Windows","10.0","null","null","","<p style=""font-size: 48px;"">+</p>","1","Light_Matched","",""
"","","","","","picture","35137","image-keyboard-response","70","600603","0.0-6.0-3.8","59","1","2022-11-17 12:22:27","fd252370c17a9971d68c1d4354a03c2e","","Mozilla/5.0 (Windows NT 10.0; Win64; x64) AppleWebKit/537.36 (KHTML, like Gecko) Chrome/107.0.0.0 Safari/537.36","WebKit","Chrome","107.0.0.0","Windows","10.0","5657","s","","tortitaS.jpg","1","Light_Matched","true",""
"","","","","","fixation","35137","html-keyboard-response","71","601608","0.0-6.0-0.9","59","1","2022-11-17 12:22:27","fd252370c17a9971d68c1d4354a03c2e","","Mozilla/5.0 (Windows NT 10.0; Win64; x64) AppleWebKit/537.36 (KHTML, like Gecko) Chrome/107.0.0.0 Safari/537.36","WebKit","Chrome","107.0.0.0","Windows","10.0","null","null","","<p style=""font-size: 48px;"">+</p>","1","Filler","",""
"","","","","","sentence","35137","html-keyboard-response","72","604163","0.0-6.0-1.9","59","1","2022-11-17 12:22:27","fd252370c17a9971d68c1d4354a03c2e","","Mozilla/5.0 (Windows NT 10.0; Win64; x64) AppleWebKit/537.36 (KHTML, like Gecko) Chrome/107.0.0.0 Safari/537.36","WebKit","Chrome","107.0.0.0","Windows","10.0","2552"," ","","A police officer is talking on the phone","1","Filler","",""
"","","","","","fixation","35137","html-keyboard-response","73","604671","0.0-6.0-2.9","59","1","2022-11-17 12:22:27","fd252370c17a9971d68c1d4354a03c2e","","Mozilla/5.0 (Windows NT 10.0; Win64; x64) AppleWebKit/537.36 (KHTML, like Gecko) Chrome/107.0.0.0 Safari/537.36","WebKit","Chrome","107.0.0.0","Windows","10.0","null","null","","<p style=""font-size: 48px;"">+</p>","1","Filler","",""
"","","","","","picture","35137","image-keyboard-response","74","605717","0.0-6.0-3.9","59","1","2022-11-17 12:22:27","fd252370c17a9971d68c1d4354a03c2e","","Mozilla/5.0 (Windows NT 10.0; Win64; x64) AppleWebKit/537.36 (KHTML, like Gecko) Chrome/107.0.0.0 Safari/537.36","WebKit","Chrome","107.0.0.0","Windows","10.0","1036","n","","tissuebox.jpg","1","Filler","true",""
"","","","","","fixation","35137","html-keyboard-response","75","606728","0.0-6.0-0.10","59","1","2022-11-17 12:22:27","fd252370c17a9971d68c1d4354a03c2e","","Mozilla/5.0 (Windows NT 10.0; Win64; x64) AppleWebKit/537.36 (KHTML, like Gecko) Chrome/107.0.0.0 Safari/537.36","WebKit","Chrome","107.0.0.0","Windows","10.0","null","null","","<p style=""font-size: 48px;"">+</p>","1","Heavy_Matched","",""
"","","","","","sentence","35137","html-keyboard-response","76","609151","0.0-6.0-1.10","59","1","2022-11-17 12:22:27","fd252370c17a9971d68c1d4354a03c2e","","Mozilla/5.0 (Windows NT 10.0; Win64; x64) AppleWebKit/537.36 (KHTML, like Gecko) Chrome/107.0.0.0 Safari/537.36","WebKit","Chrome","107.0.0.0","Windows","10.0","2419"," ","","A bowling ball dropped and smashed a cracker","1","Heavy_Matched","",""
"","","","","","fixation","35137","html-keyboard-response","77","609658","0.0-6.0-2.10","59","1","2022-11-17 12:22:27","fd252370c17a9971d68c1d4354a03c2e","","Mozilla/5.0 (Windows NT 10.0; Win64; x64) AppleWebKit/537.36 (KHTML, like Gecko) Chrome/107.0.0.0 Safari/537.36","WebKit","Chrome","107.0.0.0","Windows","10.0","null","null","","<p style=""font-size: 48px;"">+</p>","1","Heavy_Matched","",""
"","","","","","picture","35137","image-keyboard-response","78","610861","0.0-6.0-3.10","59","1","2022-11-17 12:22:27","fd252370c17a9971d68c1d4354a03c2e","","Mozilla/5.0 (Windows NT 10.0; Win64; x64) AppleWebKit/537.36 (KHTML, like Gecko) Chrome/107.0.0.0 Safari/537.36","WebKit","Chrome","107.0.0.0","Windows","10.0","1199","s","","crackerS.jpg","1","Heavy_Matched","true",""
"","","","","","fixation","35137","html-keyboard-response","79","611873","0.0-6.0-0.11","59","1","2022-11-17 12:22:27","fd252370c17a9971d68c1d4354a03c2e","","Mozilla/5.0 (Windows NT 10.0; Win64; x64) AppleWebKit/537.36 (KHTML, like Gecko) Chrome/107.0.0.0 Safari/537.36","WebKit","Chrome","107.0.0.0","Windows","10.0","null","null","","<p style=""font-size: 48px;"">+</p>","1","Filler","",""
"","","","","","sentence","35137","html-keyboard-response","80","613899","0.0-6.0-1.11","59","1","2022-11-17 12:22:27","fd252370c17a9971d68c1d4354a03c2e","","Mozilla/5.0 (Windows NT 10.0; Win64; x64) AppleWebKit/537.36 (KHTML, like Gecko) Chrome/107.0.0.0 Safari/537.36","WebKit","Chrome","107.0.0.0","Windows","10.0","2023"," ","","A keyboard was placed on the bed","1","Filler","",""
"","","","","","fixation","35137","html-keyboard-response","81","614407","0.0-6.0-2.11","59","1","2022-11-17 12:22:27","fd252370c17a9971d68c1d4354a03c2e","","Mozilla/5.0 (Windows NT 10.0; Win64; x64) AppleWebKit/537.36 (KHTML, like Gecko) Chrome/107.0.0.0 Safari/537.36","WebKit","Chrome","107.0.0.0","Windows","10.0","null","null","","<p style=""font-size: 48px;"">+</p>","1","Filler","",""
"","","","","","picture","35137","image-keyboard-response","82","615621","0.0-6.0-3.11","59","1","2022-11-17 12:22:27","fd252370c17a9971d68c1d4354a03c2e","","Mozilla/5.0 (Windows NT 10.0; Win64; x64) AppleWebKit/537.36 (KHTML, like Gecko) Chrome/107.0.0.0 Safari/537.36","WebKit","Chrome","107.0.0.0","Windows","10.0","1203","n","","bottlecap.jpg","1","Filler","true",""
"","","","","","fixation","35137","html-keyboard-response","83","616631","0.0-6.0-0.12","59","1","2022-11-17 12:22:27","fd252370c17a9971d68c1d4354a03c2e","","Mozilla/5.0 (Windows NT 10.0; Win64; x64) AppleWebKit/537.36 (KHTML, like Gecko) Chrome/107.0.0.0 Safari/537.36","WebKit","Chrome","107.0.0.0","Windows","10.0","null","null","","<p style=""font-size: 48px;"">+</p>","1","Filler","",""
"","","","","","sentence","35137","html-keyboard-response","84","619338","0.0-6.0-1.12","59","1","2022-11-17 12:22:27","fd252370c17a9971d68c1d4354a03c2e","","Mozilla/5.0 (Windows NT 10.0; Win64; x64) AppleWebKit/537.36 (KHTML, like Gecko) Chrome/107.0.0.0 Safari/537.36","WebKit","Chrome","107.0.0.0","Windows","10.0","2700"," ","","A hairdresser is taking scissors","1","Filler","",""
"","","","","","fixation","35137","html-keyboard-response","85","619848","0.0-6.0-2.12","59","1","2022-11-17 12:22:27","fd252370c17a9971d68c1d4354a03c2e","","Mozilla/5.0 (Windows NT 10.0; Win64; x64) AppleWebKit/537.36 (KHTML, like Gecko) Chrome/107.0.0.0 Safari/537.36","WebKit","Chrome","107.0.0.0","Windows","10.0","null","null","","<p style=""font-size: 48px;"">+</p>","1","Filler","",""
"","","","","","picture","35137","image-keyboard-response","86","620814","0.0-6.0-3.12","59","1","2022-11-17 12:22:27","fd252370c17a9971d68c1d4354a03c2e","","Mozilla/5.0 (Windows NT 10.0; Win64; x64) AppleWebKit/537.36 (KHTML, like Gecko) Chrome/107.0.0.0 Safari/537.36","WebKit","Chrome","107.0.0.0","Windows","10.0","956","n","","sock.jpg","1","Filler","true",""
"","","","","","fixation","35137","html-keyboard-response","87","621824","0.0-6.0-0.13","59","1","2022-11-17 12:22:27","fd252370c17a9971d68c1d4354a03c2e","","Mozilla/5.0 (Windows NT 10.0; Win64; x64) AppleWebKit/537.36 (KHTML, like Gecko) Chrome/107.0.0.0 Safari/537.36","WebKit","Chrome","107.0.0.0","Windows","10.0","null","null","","<p style=""font-size: 48px;"">+</p>","1","Filler","",""
"","","","","","sentence","35137","html-keyboard-response","88","623486","0.0-6.0-1.13","59","1","2022-11-17 12:22:27","fd252370c17a9971d68c1d4354a03c2e","","Mozilla/5.0 (Windows NT 10.0; Win64; x64) AppleWebKit/537.36 (KHTML, like Gecko) Chrome/107.0.0.0 Safari/537.36","WebKit","Chrome","107.0.0.0","Windows","10.0","1656"," ","","A towel was placed on the TV","1","Filler","",""
"","","","","","fixation","35137","html-keyboard-response","89","624000","0.0-6.0-2.13","59","1","2022-11-17 12:22:27","fd252370c17a9971d68c1d4354a03c2e","","Mozilla/5.0 (Windows NT 10.0; Win64; x64) AppleWebKit/537.36 (KHTML, like Gecko) Chrome/107.0.0.0 Safari/537.36","WebKit","Chrome","107.0.0.0","Windows","10.0","null","null","","<p style=""font-size: 48px;"">+</p>","1","Filler","",""
"","","","","","picture","35137","image-keyboard-response","90","624994","0.0-6.0-3.13","59","1","2022-11-17 12:22:27","fd252370c17a9971d68c1d4354a03c2e","","Mozilla/5.0 (Windows NT 10.0; Win64; x64) AppleWebKit/537.36 (KHTML, like Gecko) Chrome/107.0.0.0 Safari/537.36","WebKit","Chrome","107.0.0.0","Windows","10.0","988","n","","pencil.jpg","1","Filler","true",""
"","","","","","fixation","35137","html-keyboard-response","91","626000","0.0-6.0-0.14","59","1","2022-11-17 12:22:27","fd252370c17a9971d68c1d4354a03c2e","","Mozilla/5.0 (Windows NT 10.0; Win64; x64) AppleWebKit/537.36 (KHTML, like Gecko) Chrome/107.0.0.0 Safari/537.36","WebKit","Chrome","107.0.0.0","Windows","10.0","null","null","","<p style=""font-size: 48px;"">+</p>","1","Filler","",""
"","","","","","sentence","35137","html-keyboard-response","92","627563","0.0-6.0-1.14","59","1","2022-11-17 12:22:27","fd252370c17a9971d68c1d4354a03c2e","","Mozilla/5.0 (Windows NT 10.0; Win64; x64) AppleWebKit/537.36 (KHTML, like Gecko) Chrome/107.0.0.0 Safari/537.36","WebKit","Chrome","107.0.0.0","Windows","10.0","1559"," ","","A nurse is taking a syringe","1","Filler","",""
"","","","","","fixation","35137","html-keyboard-response","93","628079","0.0-6.0-2.14","59","1","2022-11-17 12:22:27","fd252370c17a9971d68c1d4354a03c2e","","Mozilla/5.0 (Windows NT 10.0; Win64; x64) AppleWebKit/537.36 (KHTML, like Gecko) Chrome/107.0.0.0 Safari/537.36","WebKit","Chrome","107.0.0.0","Windows","10.0","null","null","","<p style=""font-size: 48px;"">+</p>","1","Filler","",""
"","","","","","picture","35137","image-keyboard-response","94","629023","0.0-6.0-3.14","59","1","2022-11-17 12:22:27","fd252370c17a9971d68c1d4354a03c2e","","Mozilla/5.0 (Windows NT 10.0; Win64; x64) AppleWebKit/537.36 (KHTML, like Gecko) Chrome/107.0.0.0 Safari/537.36","WebKit","Chrome","107.0.0.0","Windows","10.0","936","n","","headphones.jpg","1","Filler","true",""
"","","","","","fixation","35137","html-keyboard-response","95","630032","0.0-6.0-0.15","59","1","2022-11-17 12:22:27","fd252370c17a9971d68c1d4354a03c2e","","Mozilla/5.0 (Windows NT 10.0; Win64; x64) AppleWebKit/537.36 (KHTML, like Gecko) Chrome/107.0.0.0 Safari/537.36","WebKit","Chrome","107.0.0.0","Windows","10.0","null","null","","<p style=""font-size: 48px;"">+</p>","1","Light_Contradictory","",""
"","","","","","sentence","35137","html-keyboard-response","96","632339","0.0-6.0-1.15","59","1","2022-11-17 12:22:27","fd252370c17a9971d68c1d4354a03c2e","","Mozilla/5.0 (Windows NT 10.0; Win64; x64) AppleWebKit/537.36 (KHTML, like Gecko) Chrome/107.0.0.0 Safari/537.36","WebKit","Chrome","107.0.0.0","Windows","10.0","2299"," ","","A balloon dropped and smashed a vase","1","Light_Contradictory","",""
"","","","","","fixation","35137","html-keyboard-response","97","632848","0.0-6.0-2.15","59","1","2022-11-17 12:22:27","fd252370c17a9971d68c1d4354a03c2e","","Mozilla/5.0 (Windows NT 10.0; Win64; x64) AppleWebKit/537.36 (KHTML, like Gecko) Chrome/107.0.0.0 Safari/537.36","WebKit","Chrome","107.0.0.0","Windows","10.0","null","null","","<p style=""font-size: 48px;"">+</p>","1","Light_Contradictory","",""
"","","","","","picture","35137","image-keyboard-response","98","634187","0.0-6.0-3.15","59","1","2022-11-17 12:22:27","fd252370c17a9971d68c1d4354a03c2e","","Mozilla/5.0 (Windows NT 10.0; Win64; x64) AppleWebKit/537.36 (KHTML, like Gecko) Chrome/107.0.0.0 Safari/537.36","WebKit","Chrome","107.0.0.0","Windows","10.0","1331","s","","vaseS.jpg","1","Light_Contradictory","true",""
"","","","","","fixation","35137","html-keyboard-response","99","635201","0.0-6.0-0.16","59","1","2022-11-17 12:22:27","fd252370c17a9971d68c1d4354a03c2e","","Mozilla/5.0 (Windows NT 10.0; Win64; x64) AppleWebKit/537.36 (KHTML, like Gecko) Chrome/107.0.0.0 Safari/537.36","WebKit","Chrome","107.0.0.0","Windows","10.0","null","null","","<p style=""font-size: 48px;"">+</p>","1","Light_Matched","",""
"","","","","","sentence","35137","html-keyboard-response","100","639424","0.0-6.0-1.16","59","1","2022-11-17 12:22:27","fd252370c17a9971d68c1d4354a03c2e","","Mozilla/5.0 (Windows NT 10.0; Win64; x64) AppleWebKit/537.36 (KHTML, like Gecko) Chrome/107.0.0.0 Safari/537.36","WebKit","Chrome","107.0.0.0","Windows","10.0","4214"," ","","A balloon dropped and touched a chocolate muffin","1","Light_Matched","",""
"","","","","","fixation","35137","html-keyboard-response","101","639928","0.0-6.0-2.16","59","1","2022-11-17 12:22:27","fd252370c17a9971d68c1d4354a03c2e","","Mozilla/5.0 (Windows NT 10.0; Win64; x64) AppleWebKit/537.36 (KHTML, like Gecko) Chrome/107.0.0.0 Safari/537.36","WebKit","Chrome","107.0.0.0","Windows","10.0","null","null","","<p style=""font-size: 48px;"">+</p>","1","Light_Matched","",""
"","","","","","picture","35137","image-keyboard-response","102","641095","0.0-6.0-3.16","59","1","2022-11-17 12:22:27","fd252370c17a9971d68c1d4354a03c2e","","Mozilla/5.0 (Windows NT 10.0; Win64; x64) AppleWebKit/537.36 (KHTML, like Gecko) Chrome/107.0.0.0 Safari/537.36","WebKit","Chrome","107.0.0.0","Windows","10.0","1158","s","","muffinS.jpg","1","Light_Matched","true",""
"","","","","","fixation","35137","html-keyboard-response","103","642112","0.0-6.0-0.17","59","1","2022-11-17 12:22:27","fd252370c17a9971d68c1d4354a03c2e","","Mozilla/5.0 (Windows NT 10.0; Win64; x64) AppleWebKit/537.36 (KHTML, like Gecko) Chrome/107.0.0.0 Safari/537.36","WebKit","Chrome","107.0.0.0","Windows","10.0","null","null","","<p style=""font-size: 48px;"">+</p>","1","Heavy_Contradictory","",""
"","","","","","sentence","35137","html-keyboard-response","104","645967","0.0-6.0-1.17","59","1","2022-11-17 12:22:27","fd252370c17a9971d68c1d4354a03c2e","","Mozilla/5.0 (Windows NT 10.0; Win64; x64) AppleWebKit/537.36 (KHTML, like Gecko) Chrome/107.0.0.0 Safari/537.36","WebKit","Chrome","107.0.0.0","Windows","10.0","3846"," ","","A bowling ball dropped and touched an egg flan","1","Heavy_Contradictory","",""
"","","","","","fixation","35137","html-keyboard-response","105","646482","0.0-6.0-2.17","59","1","2022-11-17 12:22:27","fd252370c17a9971d68c1d4354a03c2e","","Mozilla/5.0 (Windows NT 10.0; Win64; x64) AppleWebKit/537.36 (KHTML, like Gecko) Chrome/107.0.0.0 Safari/537.36","WebKit","Chrome","107.0.0.0","Windows","10.0","null","null","","<p style=""font-size: 48px;"">+</p>","1","Heavy_Contradictory","",""
"","","","","","picture","35137","image-keyboard-response","106","649430","0.0-6.0-3.17","59","1","2022-11-17 12:22:27","fd252370c17a9971d68c1d4354a03c2e","","Mozilla/5.0 (Windows NT 10.0; Win64; x64) AppleWebKit/537.36 (KHTML, like Gecko) Chrome/107.0.0.0 Safari/537.36","WebKit","Chrome","107.0.0.0","Windows","10.0","2939","n","","eggflanS.jpg","1","Heavy_Contradictory","false",""
"","","","","","fixation","35137","html-keyboard-response","107","650448","0.0-6.0-0.18","59","1","2022-11-17 12:22:27","fd252370c17a9971d68c1d4354a03c2e","","Mozilla/5.0 (Windows NT 10.0; Win64; x64) AppleWebKit/537.36 (KHTML, like Gecko) Chrome/107.0.0.0 Safari/537.36","WebKit","Chrome","107.0.0.0","Windows","10.0","null","null","","<p style=""font-size: 48px;"">+</p>","1","Filler","",""
"","","","","","sentence","35137","html-keyboard-response","108","652115","0.0-6.0-1.18","59","1","2022-11-17 12:22:27","fd252370c17a9971d68c1d4354a03c2e","","Mozilla/5.0 (Windows NT 10.0; Win64; x64) AppleWebKit/537.36 (KHTML, like Gecko) Chrome/107.0.0.0 Safari/537.36","WebKit","Chrome","107.0.0.0","Windows","10.0","1656"," ","","A mouse is eating cheese","1","Filler","",""
"","","","","","fixation","35137","html-keyboard-response","109","652626","0.0-6.0-2.18","59","1","2022-11-17 12:22:27","fd252370c17a9971d68c1d4354a03c2e","","Mozilla/5.0 (Windows NT 10.0; Win64; x64) AppleWebKit/537.36 (KHTML, like Gecko) Chrome/107.0.0.0 Safari/537.36","WebKit","Chrome","107.0.0.0","Windows","10.0","null","null","","<p style=""font-size: 48px;"">+</p>","1","Filler","",""
"","","","","","picture","35137","image-keyboard-response","110","653534","0.0-6.0-3.18","59","1","2022-11-17 12:22:27","fd252370c17a9971d68c1d4354a03c2e","","Mozilla/5.0 (Windows NT 10.0; Win64; x64) AppleWebKit/537.36 (KHTML, like Gecko) Chrome/107.0.0.0 Safari/537.36","WebKit","Chrome","107.0.0.0","Windows","10.0","902","n","","ring.jpg","1","Filler","true",""
"","","","","","fixation","35137","html-keyboard-response","111","654547","0.0-6.0-0.19","59","1","2022-11-17 12:22:27","fd252370c17a9971d68c1d4354a03c2e","","Mozilla/5.0 (Windows NT 10.0; Win64; x64) AppleWebKit/537.36 (KHTML, like Gecko) Chrome/107.0.0.0 Safari/537.36","WebKit","Chrome","107.0.0.0","Windows","10.0","null","null","","<p style=""font-size: 48px;"">+</p>","1","Heavy_Matched","",""
"","","","","","sentence","35137","html-keyboard-response","112","656553","0.0-6.0-1.19","59","1","2022-11-17 12:22:27","fd252370c17a9971d68c1d4354a03c2e","","Mozilla/5.0 (Windows NT 10.0; Win64; x64) AppleWebKit/537.36 (KHTML, like Gecko) Chrome/107.0.0.0 Safari/537.36","WebKit","Chrome","107.0.0.0","Windows","10.0","1995"," ","","A bowling ball dropped and smashed an egg","1","Heavy_Matched","",""
"","","","","","fixation","35137","html-keyboard-response","113","657068","0.0-6.0-2.19","59","1","2022-11-17 12:22:27","fd252370c17a9971d68c1d4354a03c2e","","Mozilla/5.0 (Windows NT 10.0; Win64; x64) AppleWebKit/537.36 (KHTML, like Gecko) Chrome/107.0.0.0 Safari/537.36","WebKit","Chrome","107.0.0.0","Windows","10.0","null","null","","<p style=""font-size: 48px;"">+</p>","1","Heavy_Matched","",""
"","","","","","picture","35137","image-keyboard-response","114","658129","0.0-6.0-3.19","59","1","2022-11-17 12:22:27","fd252370c17a9971d68c1d4354a03c2e","","Mozilla/5.0 (Windows NT 10.0; Win64; x64) AppleWebKit/537.36 (KHTML, like Gecko) Chrome/107.0.0.0 Safari/537.36","WebKit","Chrome","107.0.0.0","Windows","10.0","1049","s","","eggS.jpg","1","Heavy_Matched","true",""
"","","","","","fixation","35137","html-keyboard-response","115","659136","0.0-6.0-0.20","59","1","2022-11-17 12:22:27","fd252370c17a9971d68c1d4354a03c2e","","Mozilla/5.0 (Windows NT 10.0; Win64; x64) AppleWebKit/537.36 (KHTML, like Gecko) Chrome/107.0.0.0 Safari/537.36","WebKit","Chrome","107.0.0.0","Windows","10.0","null","null","","<p style=""font-size: 48px;"">+</p>","1","Light_Matched","",""
"","","","","","sentence","35137","html-keyboard-response","116","661366","0.0-6.0-1.20","59","1","2022-11-17 12:22:27","fd252370c17a9971d68c1d4354a03c2e","","Mozilla/5.0 (Windows NT 10.0; Win64; x64) AppleWebKit/537.36 (KHTML, like Gecko) Chrome/107.0.0.0 Safari/537.36","WebKit","Chrome","107.0.0.0","Windows","10.0","2219"," ","","A balloon dropped and touched a donut","1","Light_Matched","",""
"","","","","","fixation","35137","html-keyboard-response","117","661873","0.0-6.0-2.20","59","1","2022-11-17 12:22:27","fd252370c17a9971d68c1d4354a03c2e","","Mozilla/5.0 (Windows NT 10.0; Win64; x64) AppleWebKit/537.36 (KHTML, like Gecko) Chrome/107.0.0.0 Safari/537.36","WebKit","Chrome","107.0.0.0","Windows","10.0","null","null","","<p style=""font-size: 48px;"">+</p>","1","Light_Matched","",""
"","","","","","picture","35137","image-keyboard-response","118","662907","0.0-6.0-3.20","59","1","2022-11-17 12:22:27","fd252370c17a9971d68c1d4354a03c2e","","Mozilla/5.0 (Windows NT 10.0; Win64; x64) AppleWebKit/537.36 (KHTML, like Gecko) Chrome/107.0.0.0 Safari/537.36","WebKit","Chrome","107.0.0.0","Windows","10.0","1026","s","","donutS.jpg","1","Light_Matched","true",""
"","","","","","fixation","35137","html-keyboard-response","119","663920","0.0-6.0-0.21","59","1","2022-11-17 12:22:27","fd252370c17a9971d68c1d4354a03c2e","","Mozilla/5.0 (Windows NT 10.0; Win64; x64) AppleWebKit/537.36 (KHTML, like Gecko) Chrome/107.0.0.0 Safari/537.36","WebKit","Chrome","107.0.0.0","Windows","10.0","null","null","","<p style=""font-size: 48px;"">+</p>","1","Light_Matched","",""
"","","","","","sentence","35137","html-keyboard-response","120","666292","0.0-6.0-1.21","59","1","2022-11-17 12:22:27","fd252370c17a9971d68c1d4354a03c2e","","Mozilla/5.0 (Windows NT 10.0; Win64; x64) AppleWebKit/537.36 (KHTML, like Gecko) Chrome/107.0.0.0 Safari/537.36","WebKit","Chrome","107.0.0.0","Windows","10.0","2363"," ","","A balloon dropped and touched a light bulb","1","Light_Matched","",""
"","","","","","fixation","35137","html-keyboard-response","121","666801","0.0-6.0-2.21","59","1","2022-11-17 12:22:27","fd252370c17a9971d68c1d4354a03c2e","","Mozilla/5.0 (Windows NT 10.0; Win64; x64) AppleWebKit/537.36 (KHTML, like Gecko) Chrome/107.0.0.0 Safari/537.36","WebKit","Chrome","107.0.0.0","Windows","10.0","null","null","","<p style=""font-size: 48px;"">+</p>","1","Light_Matched","",""
"","","","","","picture","35137","image-keyboard-response","122","667975","0.0-6.0-3.21","59","1","2022-11-17 12:22:27","fd252370c17a9971d68c1d4354a03c2e","","Mozilla/5.0 (Windows NT 10.0; Win64; x64) AppleWebKit/537.36 (KHTML, like Gecko) Chrome/107.0.0.0 Safari/537.36","WebKit","Chrome","107.0.0.0","Windows","10.0","1168","s","","lampS.jpg","1","Light_Matched","true",""
"","","","","","fixation","35137","html-keyboard-response","123","668992","0.0-6.0-0.22","59","1","2022-11-17 12:22:27","fd252370c17a9971d68c1d4354a03c2e","","Mozilla/5.0 (Windows NT 10.0; Win64; x64) AppleWebKit/537.36 (KHTML, like Gecko) Chrome/107.0.0.0 Safari/537.36","WebKit","Chrome","107.0.0.0","Windows","10.0","null","null","","<p style=""font-size: 48px;"">+</p>","1","Filler","",""
"","","","","","sentence","35137","html-keyboard-response","124","671484","0.0-6.0-1.22","59","1","2022-11-17 12:22:27","fd252370c17a9971d68c1d4354a03c2e","","Mozilla/5.0 (Windows NT 10.0; Win64; x64) AppleWebKit/537.36 (KHTML, like Gecko) Chrome/107.0.0.0 Safari/537.36","WebKit","Chrome","107.0.0.0","Windows","10.0","2479"," ","","A cat is drinking water from a bowl","1","Filler","",""
"","","","","","fixation","35137","html-keyboard-response","125","672000","0.0-6.0-2.22","59","1","2022-11-17 12:22:27","fd252370c17a9971d68c1d4354a03c2e","","Mozilla/5.0 (Windows NT 10.0; Win64; x64) AppleWebKit/537.36 (KHTML, like Gecko) Chrome/107.0.0.0 Safari/537.36","WebKit","Chrome","107.0.0.0","Windows","10.0","null","null","","<p style=""font-size: 48px;"">+</p>","1","Filler","",""
"","","","","","picture","35137","image-keyboard-response","126","673333","0.0-6.0-3.22","59","1","2022-11-17 12:22:27","fd252370c17a9971d68c1d4354a03c2e","","Mozilla/5.0 (Windows NT 10.0; Win64; x64) AppleWebKit/537.36 (KHTML, like Gecko) Chrome/107.0.0.0 Safari/537.36","WebKit","Chrome","107.0.0.0","Windows","10.0","1325","s","","bowl.jpg","1","Filler","true",""
"","","","","","fixation","35137","html-keyboard-response","127","674344","0.0-6.0-0.23","59","1","2022-11-17 12:22:27","fd252370c17a9971d68c1d4354a03c2e","","Mozilla/5.0 (Windows NT 10.0; Win64; x64) AppleWebKit/537.36 (KHTML, like Gecko) Chrome/107.0.0.0 Safari/537.36","WebKit","Chrome","107.0.0.0","Windows","10.0","null","null","","<p style=""font-size: 48px;"">+</p>","1","Filler","",""
"","","","","","sentence","35137","html-keyboard-response","128","675530","0.0-6.0-1.23","59","1","2022-11-17 12:22:27","fd252370c17a9971d68c1d4354a03c2e","","Mozilla/5.0 (Windows NT 10.0; Win64; x64) AppleWebKit/537.36 (KHTML, like Gecko) Chrome/107.0.0.0 Safari/537.36","WebKit","Chrome","107.0.0.0","Windows","10.0","1174"," ","","A donkey is drinking water.","1","Filler","",""
"","","","","","fixation","35137","html-keyboard-response","129","676040","0.0-6.0-2.23","59","1","2022-11-17 12:22:27","fd252370c17a9971d68c1d4354a03c2e","","Mozilla/5.0 (Windows NT 10.0; Win64; x64) AppleWebKit/537.36 (KHTML, like Gecko) Chrome/107.0.0.0 Safari/537.36","WebKit","Chrome","107.0.0.0","Windows","10.0","null","null","","<p style=""font-size: 48px;"">+</p>","1","Filler","",""
"","","","","","picture","35137","image-keyboard-response","130","677167","0.0-6.0-3.23","59","1","2022-11-17 12:22:27","fd252370c17a9971d68c1d4354a03c2e","","Mozilla/5.0 (Windows NT 10.0; Win64; x64) AppleWebKit/537.36 (KHTML, like Gecko) Chrome/107.0.0.0 Safari/537.36","WebKit","Chrome","107.0.0.0","Windows","10.0","1113","n","","couch.jpg","1","Filler","true",""
"","","","","","fixation","35137","html-keyboard-response","131","678177","0.0-6.0-0.24","59","1","2022-11-17 12:22:27","fd252370c17a9971d68c1d4354a03c2e","","Mozilla/5.0 (Windows NT 10.0; Win64; x64) AppleWebKit/537.36 (KHTML, like Gecko) Chrome/107.0.0.0 Safari/537.36","WebKit","Chrome","107.0.0.0","Windows","10.0","null","null","","<p style=""font-size: 48px;"">+</p>","1","Filler","",""
"","","","","","sentence","35137","html-keyboard-response","132","679959","0.0-6.0-1.24","59","1","2022-11-17 12:22:27","fd252370c17a9971d68c1d4354a03c2e","","Mozilla/5.0 (Windows NT 10.0; Win64; x64) AppleWebKit/537.36 (KHTML, like Gecko) Chrome/107.0.0.0 Safari/537.36","WebKit","Chrome","107.0.0.0","Windows","10.0","1773"," ","","A remote was placed on the rug","1","Filler","",""
"","","","","","fixation","35137","html-keyboard-response","133","680472","0.0-6.0-2.24","59","1","2022-11-17 12:22:27","fd252370c17a9971d68c1d4354a03c2e","","Mozilla/5.0 (Windows NT 10.0; Win64; x64) AppleWebKit/537.36 (KHTML, like Gecko) Chrome/107.0.0.0 Safari/537.36","WebKit","Chrome","107.0.0.0","Windows","10.0","null","null","","<p style=""font-size: 48px;"">+</p>","1","Filler","",""
"","","","","","picture","35137","image-keyboard-response","134","681546","0.0-6.0-3.24","59","1","2022-11-17 12:22:27","fd252370c17a9971d68c1d4354a03c2e","","Mozilla/5.0 (Windows NT 10.0; Win64; x64) AppleWebKit/537.36 (KHTML, like Gecko) Chrome/107.0.0.0 Safari/537.36","WebKit","Chrome","107.0.0.0","Windows","10.0","1065","n","","CD.jpg","1","Filler","true",""
"","","","","","fixation","35137","html-keyboard-response","135","682560","0.0-6.0-0.25","59","1","2022-11-17 12:22:27","fd252370c17a9971d68c1d4354a03c2e","","Mozilla/5.0 (Windows NT 10.0; Win64; x64) AppleWebKit/537.36 (KHTML, like Gecko) Chrome/107.0.0.0 Safari/537.36","WebKit","Chrome","107.0.0.0","Windows","10.0","null","null","","<p style=""font-size: 48px;"">+</p>","1","Filler","",""
"","","","","","sentence","35137","html-keyboard-response","136","684242","0.0-6.0-1.25","59","1","2022-11-17 12:22:27","fd252370c17a9971d68c1d4354a03c2e","","Mozilla/5.0 (Windows NT 10.0; Win64; x64) AppleWebKit/537.36 (KHTML, like Gecko) Chrome/107.0.0.0 Safari/537.36","WebKit","Chrome","107.0.0.0","Windows","10.0","1677"," ","","A puppy is playing with a ball","1","Filler","",""
"","","","","","fixation","35137","html-keyboard-response","137","684751","0.0-6.0-2.25","59","1","2022-11-17 12:22:27","fd252370c17a9971d68c1d4354a03c2e","","Mozilla/5.0 (Windows NT 10.0; Win64; x64) AppleWebKit/537.36 (KHTML, like Gecko) Chrome/107.0.0.0 Safari/537.36","WebKit","Chrome","107.0.0.0","Windows","10.0","null","null","","<p style=""font-size: 48px;"">+</p>","1","Filler","",""
"","","","","","picture","35137","image-keyboard-response","138","687021","0.0-6.0-3.25","59","1","2022-11-17 12:22:27","fd252370c17a9971d68c1d4354a03c2e","","Mozilla/5.0 (Windows NT 10.0; Win64; x64) AppleWebKit/537.36 (KHTML, like Gecko) Chrome/107.0.0.0 Safari/537.36","WebKit","Chrome","107.0.0.0","Windows","10.0","2262","s","","tennisball.jpg","1","Filler","true",""
"","","","","","fixation","35137","html-keyboard-response","139","688039","0.0-6.0-0.26","59","1","2022-11-17 12:22:27","fd252370c17a9971d68c1d4354a03c2e","","Mozilla/5.0 (Windows NT 10.0; Win64; x64) AppleWebKit/537.36 (KHTML, like Gecko) Chrome/107.0.0.0 Safari/537.36","WebKit","Chrome","107.0.0.0","Windows","10.0","null","null","","<p style=""font-size: 48px;"">+</p>","1","Heavy_Contradictory","",""
"","","","","","sentence","35137","html-keyboard-response","140","691260","0.0-6.0-1.26","59","1","2022-11-17 12:22:27","fd252370c17a9971d68c1d4354a03c2e","","Mozilla/5.0 (Windows NT 10.0; Win64; x64) AppleWebKit/537.36 (KHTML, like Gecko) Chrome/107.0.0.0 Safari/537.36","WebKit","Chrome","107.0.0.0","Windows","10.0","3209"," ","","A bowling ball dropped and touched a blackberry","1","Heavy_Contradictory","",""
"","","","","","fixation","35137","html-keyboard-response","141","691767","0.0-6.0-2.26","59","1","2022-11-17 12:22:27","fd252370c17a9971d68c1d4354a03c2e","","Mozilla/5.0 (Windows NT 10.0; Win64; x64) AppleWebKit/537.36 (KHTML, like Gecko) Chrome/107.0.0.0 Safari/537.36","WebKit","Chrome","107.0.0.0","Windows","10.0","null","null","","<p style=""font-size: 48px;"">+</p>","1","Heavy_Contradictory","",""
"","","","","","picture","35137","image-keyboard-response","142","692894","0.0-6.0-3.26","59","1","2022-11-17 12:22:27","fd252370c17a9971d68c1d4354a03c2e","","Mozilla/5.0 (Windows NT 10.0; Win64; x64) AppleWebKit/537.36 (KHTML, like Gecko) Chrome/107.0.0.0 Safari/537.36","WebKit","Chrome","107.0.0.0","Windows","10.0","1117","s","","blackberryS.jpg","1","Heavy_Contradictory","true",""
"","","","","","fixation","35137","html-keyboard-response","143","693904","0.0-6.0-0.27","59","1","2022-11-17 12:22:27","fd252370c17a9971d68c1d4354a03c2e","","Mozilla/5.0 (Windows NT 10.0; Win64; x64) AppleWebKit/537.36 (KHTML, like Gecko) Chrome/107.0.0.0 Safari/537.36","WebKit","Chrome","107.0.0.0","Windows","10.0","null","null","","<p style=""font-size: 48px;"">+</p>","1","Filler","",""
"","","","","","sentence","35137","html-keyboard-response","144","695527","0.0-6.0-1.27","59","1","2022-11-17 12:22:27","fd252370c17a9971d68c1d4354a03c2e","","Mozilla/5.0 (Windows NT 10.0; Win64; x64) AppleWebKit/537.36 (KHTML, like Gecko) Chrome/107.0.0.0 Safari/537.36","WebKit","Chrome","107.0.0.0","Windows","10.0","1609"," ","","A toothbrush was placed on the sponge","1","Filler","",""
"","","","","","fixation","35137","html-keyboard-response","145","696039","0.0-6.0-2.27","59","1","2022-11-17 12:22:27","fd252370c17a9971d68c1d4354a03c2e","","Mozilla/5.0 (Windows NT 10.0; Win64; x64) AppleWebKit/537.36 (KHTML, like Gecko) Chrome/107.0.0.0 Safari/537.36","WebKit","Chrome","107.0.0.0","Windows","10.0","null","null","","<p style=""font-size: 48px;"">+</p>","1","Filler","",""
"","","","","","picture","35137","image-keyboard-response","146","697047","0.0-6.0-3.27","59","1","2022-11-17 12:22:27","fd252370c17a9971d68c1d4354a03c2e","","Mozilla/5.0 (Windows NT 10.0; Win64; x64) AppleWebKit/537.36 (KHTML, like Gecko) Chrome/107.0.0.0 Safari/537.36","WebKit","Chrome","107.0.0.0","Windows","10.0","997","s","","sponge.jpg","1","Filler","true",""
"","","","","","fixation","35137","html-keyboard-response","147","698064","0.0-6.0-0.28","59","1","2022-11-17 12:22:27","fd252370c17a9971d68c1d4354a03c2e","","Mozilla/5.0 (Windows NT 10.0; Win64; x64) AppleWebKit/537.36 (KHTML, like Gecko) Chrome/107.0.0.0 Safari/537.36","WebKit","Chrome","107.0.0.0","Windows","10.0","null","null","","<p style=""font-size: 48px;"">+</p>","1","Light_Contradictory","",""
"","","","","","sentence","35137","html-keyboard-response","148","700992","0.0-6.0-1.28","59","1","2022-11-17 12:22:27","fd252370c17a9971d68c1d4354a03c2e","","Mozilla/5.0 (Windows NT 10.0; Win64; x64) AppleWebKit/537.36 (KHTML, like Gecko) Chrome/107.0.0.0 Safari/537.36","WebKit","Chrome","107.0.0.0","Windows","10.0","2917"," ","","A balloon dropped and smashed a ceramic plate","1","Light_Contradictory","",""
"","","","","","fixation","35137","html-keyboard-response","149","701503","0.0-6.0-2.28","59","1","2022-11-17 12:22:27","fd252370c17a9971d68c1d4354a03c2e","","Mozilla/5.0 (Windows NT 10.0; Win64; x64) AppleWebKit/537.36 (KHTML, like Gecko) Chrome/107.0.0.0 Safari/537.36","WebKit","Chrome","107.0.0.0","Windows","10.0","null","null","","<p style=""font-size: 48px;"">+</p>","1","Light_Contradictory","",""
"","","","","","picture","35137","image-keyboard-response","150","702638","0.0-6.0-3.28","59","1","2022-11-17 12:22:27","fd252370c17a9971d68c1d4354a03c2e","","Mozilla/5.0 (Windows NT 10.0; Win64; x64) AppleWebKit/537.36 (KHTML, like Gecko) Chrome/107.0.0.0 Safari/537.36","WebKit","Chrome","107.0.0.0","Windows","10.0","1126","s","","plateS.jpg","1","Light_Contradictory","true",""
"","","","","","fixation","35137","html-keyboard-response","151","703648","0.0-6.0-0.29","59","1","2022-11-17 12:22:27","fd252370c17a9971d68c1d4354a03c2e","","Mozilla/5.0 (Windows NT 10.0; Win64; x64) AppleWebKit/537.36 (KHTML, like Gecko) Chrome/107.0.0.0 Safari/537.36","WebKit","Chrome","107.0.0.0","Windows","10.0","null","null","","<p style=""font-size: 48px;"">+</p>","1","Filler","",""
"","","","","","sentence","35137","html-keyboard-response","152","706841","0.0-6.0-1.29","59","1","2022-11-17 12:22:27","fd252370c17a9971d68c1d4354a03c2e","","Mozilla/5.0 (Windows NT 10.0; Win64; x64) AppleWebKit/537.36 (KHTML, like Gecko) Chrome/107.0.0.0 Safari/537.36","WebKit","Chrome","107.0.0.0","Windows","10.0","3186"," ","","A fork was placed on the plate","1","Filler","",""
"","","","","","fixation","35137","html-keyboard-response","153","707364","0.0-6.0-2.29","59","1","2022-11-17 12:22:27","fd252370c17a9971d68c1d4354a03c2e","","Mozilla/5.0 (Windows NT 10.0; Win64; x64) AppleWebKit/537.36 (KHTML, like Gecko) Chrome/107.0.0.0 Safari/537.36","WebKit","Chrome","107.0.0.0","Windows","10.0","null","null","","<p style=""font-size: 48px;"">+</p>","1","Filler","",""
"","","","","","picture","35137","image-keyboard-response","154","708679","0.0-6.0-3.29","59","1","2022-11-17 12:22:27","fd252370c17a9971d68c1d4354a03c2e","","Mozilla/5.0 (Windows NT 10.0; Win64; x64) AppleWebKit/537.36 (KHTML, like Gecko) Chrome/107.0.0.0 Safari/537.36","WebKit","Chrome","107.0.0.0","Windows","10.0","1309","s","","plate.jpg","1","Filler","true",""
"","","","","","fixation","35137","html-keyboard-response","155","709695","0.0-6.0-0.30","59","1","2022-11-17 12:22:27","fd252370c17a9971d68c1d4354a03c2e","","Mozilla/5.0 (Windows NT 10.0; Win64; x64) AppleWebKit/537.36 (KHTML, like Gecko) Chrome/107.0.0.0 Safari/537.36","WebKit","Chrome","107.0.0.0","Windows","10.0","null","null","","<p style=""font-size: 48px;"">+</p>","1","Heavy_Contradictory","",""
"","","","","","sentence","35137","html-keyboard-response","156","714077","0.0-6.0-1.30","59","1","2022-11-17 12:22:27","fd252370c17a9971d68c1d4354a03c2e","","Mozilla/5.0 (Windows NT 10.0; Win64; x64) AppleWebKit/537.36 (KHTML, like Gecko) Chrome/107.0.0.0 Safari/537.36","WebKit","Chrome","107.0.0.0","Windows","10.0","4378"," ","","A bowling ball dropped and touched a chocolate ice-cream","1","Heavy_Contradictory","",""
"","","","","","fixation","35137","html-keyboard-response","157","714592","0.0-6.0-2.30","59","1","2022-11-17 12:22:27","fd252370c17a9971d68c1d4354a03c2e","","Mozilla/5.0 (Windows NT 10.0; Win64; x64) AppleWebKit/537.36 (KHTML, like Gecko) Chrome/107.0.0.0 Safari/537.36","WebKit","Chrome","107.0.0.0","Windows","10.0","null","null","","<p style=""font-size: 48px;"">+</p>","1","Heavy_Contradictory","",""
"","","","","","picture","35137","image-keyboard-response","158","715778","0.0-6.0-3.30","59","1","2022-11-17 12:22:27","fd252370c17a9971d68c1d4354a03c2e","","Mozilla/5.0 (Windows NT 10.0; Win64; x64) AppleWebKit/537.36 (KHTML, like Gecko) Chrome/107.0.0.0 Safari/537.36","WebKit","Chrome","107.0.0.0","Windows","10.0","1173","s","","icecreamS.jpg","1","Heavy_Contradictory","true",""
"","","","","","fixation","35137","html-keyboard-response","159","716792","0.0-6.0-0.31","59","1","2022-11-17 12:22:27","fd252370c17a9971d68c1d4354a03c2e","","Mozilla/5.0 (Windows NT 10.0; Win64; x64) AppleWebKit/537.36 (KHTML, like Gecko) Chrome/107.0.0.0 Safari/537.36","WebKit","Chrome","107.0.0.0","Windows","10.0","null","null","","<p style=""font-size: 48px;"">+</p>","1","Filler","",""
"","","","","","sentence","35137","html-keyboard-response","160","718336","0.0-6.0-1.31","59","1","2022-11-17 12:22:27","fd252370c17a9971d68c1d4354a03c2e","","Mozilla/5.0 (Windows NT 10.0; Win64; x64) AppleWebKit/537.36 (KHTML, like Gecko) Chrome/107.0.0.0 Safari/537.36","WebKit","Chrome","107.0.0.0","Windows","10.0","1530"," ","","A pilot is reading a book","1","Filler","",""
"","","","","","fixation","35137","html-keyboard-response","161","718848","0.0-6.0-2.31","59","1","2022-11-17 12:22:27","fd252370c17a9971d68c1d4354a03c2e","","Mozilla/5.0 (Windows NT 10.0; Win64; x64) AppleWebKit/537.36 (KHTML, like Gecko) Chrome/107.0.0.0 Safari/537.36","WebKit","Chrome","107.0.0.0","Windows","10.0","null","null","","<p style=""font-size: 48px;"">+</p>","1","Filler","",""
"","","","","","picture","35137","image-keyboard-response","162","720120","0.0-6.0-3.31","59","1","2022-11-17 12:22:27","fd252370c17a9971d68c1d4354a03c2e","","Mozilla/5.0 (Windows NT 10.0; Win64; x64) AppleWebKit/537.36 (KHTML, like Gecko) Chrome/107.0.0.0 Safari/537.36","WebKit","Chrome","107.0.0.0","Windows","10.0","1256","n","","spoon.jpg","1","Filler","true",""
"","","","","","fixation","35137","html-keyboard-response","163","721135","0.0-6.0-0.32","59","1","2022-11-17 12:22:27","fd252370c17a9971d68c1d4354a03c2e","","Mozilla/5.0 (Windows NT 10.0; Win64; x64) AppleWebKit/537.36 (KHTML, like Gecko) Chrome/107.0.0.0 Safari/537.36","WebKit","Chrome","107.0.0.0","Windows","10.0","null","null","","<p style=""font-size: 48px;"">+</p>","1","Light_Matched","",""
"","","","","","sentence","35137","html-keyboard-response","164","724585","0.0-6.0-1.32","59","1","2022-11-17 12:22:27","fd252370c17a9971d68c1d4354a03c2e","","Mozilla/5.0 (Windows NT 10.0; Win64; x64) AppleWebKit/537.36 (KHTML, like Gecko) Chrome/107.0.0.0 Safari/537.36","WebKit","Chrome","107.0.0.0","Windows","10.0","3439"," ","","A balloon dropped and touched an iPhone","1","Light_Matched","",""
"","","","","","fixation","35137","html-keyboard-response","165","725103","0.0-6.0-2.32","59","1","2022-11-17 12:22:27","fd252370c17a9971d68c1d4354a03c2e","","Mozilla/5.0 (Windows NT 10.0; Win64; x64) AppleWebKit/537.36 (KHTML, like Gecko) Chrome/107.0.0.0 Safari/537.36","WebKit","Chrome","107.0.0.0","Windows","10.0","null","null","","<p style=""font-size: 48px;"">+</p>","1","Light_Matched","",""
"","","","","","picture","35137","image-keyboard-response","166","726048","0.0-6.0-3.32","59","1","2022-11-17 12:22:27","fd252370c17a9971d68c1d4354a03c2e","","Mozilla/5.0 (Windows NT 10.0; Win64; x64) AppleWebKit/537.36 (KHTML, like Gecko) Chrome/107.0.0.0 Safari/537.36","WebKit","Chrome","107.0.0.0","Windows","10.0","929","s","","iphoneS.png","1","Light_Matched","true",""
"","","","","","fixation","35137","html-keyboard-response","167","727056","0.0-6.0-0.33","59","1","2022-11-17 12:22:27","fd252370c17a9971d68c1d4354a03c2e","","Mozilla/5.0 (Windows NT 10.0; Win64; x64) AppleWebKit/537.36 (KHTML, like Gecko) Chrome/107.0.0.0 Safari/537.36","WebKit","Chrome","107.0.0.0","Windows","10.0","null","null","","<p style=""font-size: 48px;"">+</p>","1","Filler","",""
"","","","","","sentence","35137","html-keyboard-response","168","728891","0.0-6.0-1.33","59","1","2022-11-17 12:22:27","fd252370c17a9971d68c1d4354a03c2e","","Mozilla/5.0 (Windows NT 10.0; Win64; x64) AppleWebKit/537.36 (KHTML, like Gecko) Chrome/107.0.0.0 Safari/537.36","WebKit","Chrome","107.0.0.0","Windows","10.0","1830"," ","","An actress is taking a microphone","1","Filler","",""
"","","","","","fixation","35137","html-keyboard-response","169","729409","0.0-6.0-2.33","59","1","2022-11-17 12:22:27","fd252370c17a9971d68c1d4354a03c2e","","Mozilla/5.0 (Windows NT 10.0; Win64; x64) AppleWebKit/537.36 (KHTML, like Gecko) Chrome/107.0.0.0 Safari/537.36","WebKit","Chrome","107.0.0.0","Windows","10.0","null","null","","<p style=""font-size: 48px;"">+</p>","1","Filler","",""
"","","","","","picture","35137","image-keyboard-response","170","730598","0.0-6.0-3.33","59","1","2022-11-17 12:22:27","fd252370c17a9971d68c1d4354a03c2e","","Mozilla/5.0 (Windows NT 10.0; Win64; x64) AppleWebKit/537.36 (KHTML, like Gecko) Chrome/107.0.0.0 Safari/537.36","WebKit","Chrome","107.0.0.0","Windows","10.0","1183","n","","pants.jpg","1","Filler","true",""
"","","","","","fixation","35137","html-keyboard-response","171","731616","0.0-6.0-0.34","59","1","2022-11-17 12:22:27","fd252370c17a9971d68c1d4354a03c2e","","Mozilla/5.0 (Windows NT 10.0; Win64; x64) AppleWebKit/537.36 (KHTML, like Gecko) Chrome/107.0.0.0 Safari/537.36","WebKit","Chrome","107.0.0.0","Windows","10.0","null","null","","<p style=""font-size: 48px;"">+</p>","1","Filler","",""
"","","","","","sentence","35137","html-keyboard-response","172","733609","0.0-6.0-1.34","59","1","2022-11-17 12:22:27","fd252370c17a9971d68c1d4354a03c2e","","Mozilla/5.0 (Windows NT 10.0; Win64; x64) AppleWebKit/537.36 (KHTML, like Gecko) Chrome/107.0.0.0 Safari/537.36","WebKit","Chrome","107.0.0.0","Windows","10.0","1979"," ","","A woman is taking money out of a wallet","1","Filler","",""
"","","","","","fixation","35137","html-keyboard-response","173","734128","0.0-6.0-2.34","59","1","2022-11-17 12:22:27","fd252370c17a9971d68c1d4354a03c2e","","Mozilla/5.0 (Windows NT 10.0; Win64; x64) AppleWebKit/537.36 (KHTML, like Gecko) Chrome/107.0.0.0 Safari/537.36","WebKit","Chrome","107.0.0.0","Windows","10.0","null","null","","<p style=""font-size: 48px;"">+</p>","1","Filler","",""
"","","","","","picture","35137","image-keyboard-response","174","735105","0.0-6.0-3.34","59","1","2022-11-17 12:22:27","fd252370c17a9971d68c1d4354a03c2e","","Mozilla/5.0 (Windows NT 10.0; Win64; x64) AppleWebKit/537.36 (KHTML, like Gecko) Chrome/107.0.0.0 Safari/537.36","WebKit","Chrome","107.0.0.0","Windows","10.0","967","n","","coconut.jpg","1","Filler","true",""
"","","","","","fixation","35137","html-keyboard-response","175","736119","0.0-6.0-0.35","59","1","2022-11-17 12:22:27","fd252370c17a9971d68c1d4354a03c2e","","Mozilla/5.0 (Windows NT 10.0; Win64; x64) AppleWebKit/537.36 (KHTML, like Gecko) Chrome/107.0.0.0 Safari/537.36","WebKit","Chrome","107.0.0.0","Windows","10.0","null","null","","<p style=""font-size: 48px;"">+</p>","1","Heavy_Matched","",""
"","","","","","sentence","35137","html-keyboard-response","176","738947","0.0-6.0-1.35","59","1","2022-11-17 12:22:27","fd252370c17a9971d68c1d4354a03c2e","","Mozilla/5.0 (Windows NT 10.0; Win64; x64) AppleWebKit/537.36 (KHTML, like Gecko) Chrome/107.0.0.0 Safari/537.36","WebKit","Chrome","107.0.0.0","Windows","10.0","2816"," ","","A bowling ball dropped and smashed a piece of cake","1","Heavy_Matched","",""
"","","","","","fixation","35137","html-keyboard-response","177","739455","0.0-6.0-2.35","59","1","2022-11-17 12:22:27","fd252370c17a9971d68c1d4354a03c2e","","Mozilla/5.0 (Windows NT 10.0; Win64; x64) AppleWebKit/537.36 (KHTML, like Gecko) Chrome/107.0.0.0 Safari/537.36","WebKit","Chrome","107.0.0.0","Windows","10.0","null","null","","<p style=""font-size: 48px;"">+</p>","1","Heavy_Matched","",""
"","","","","","picture","35137","image-keyboard-response","178","740700","0.0-6.0-3.35","59","1","2022-11-17 12:22:27","fd252370c17a9971d68c1d4354a03c2e","","Mozilla/5.0 (Windows NT 10.0; Win64; x64) AppleWebKit/537.36 (KHTML, like Gecko) Chrome/107.0.0.0 Safari/537.36","WebKit","Chrome","107.0.0.0","Windows","10.0","1236","s","","cakeS.jpg","1","Heavy_Matched","true",""
"","","","","","fixation","35137","html-keyboard-response","179","741712","0.0-6.0-0.36","59","1","2022-11-17 12:22:27","fd252370c17a9971d68c1d4354a03c2e","","Mozilla/5.0 (Windows NT 10.0; Win64; x64) AppleWebKit/537.36 (KHTML, like Gecko) Chrome/107.0.0.0 Safari/537.36","WebKit","Chrome","107.0.0.0","Windows","10.0","null","null","","<p style=""font-size: 48px;"">+</p>","1","Filler","",""
"","","","","","sentence","35137","html-keyboard-response","180","743426","0.0-6.0-1.36","59","1","2022-11-17 12:22:27","fd252370c17a9971d68c1d4354a03c2e","","Mozilla/5.0 (Windows NT 10.0; Win64; x64) AppleWebKit/537.36 (KHTML, like Gecko) Chrome/107.0.0.0 Safari/537.36","WebKit","Chrome","107.0.0.0","Windows","10.0","1700"," ","","A parrot is eating an apple","1","Filler","",""
"","","","","","fixation","35137","html-keyboard-response","181","743943","0.0-6.0-2.36","59","1","2022-11-17 12:22:27","fd252370c17a9971d68c1d4354a03c2e","","Mozilla/5.0 (Windows NT 10.0; Win64; x64) AppleWebKit/537.36 (KHTML, like Gecko) Chrome/107.0.0.0 Safari/537.36","WebKit","Chrome","107.0.0.0","Windows","10.0","null","null","","<p style=""font-size: 48px;"">+</p>","1","Filler","",""
"","","","","","picture","35137","image-keyboard-response","182","744855","0.0-6.0-3.36","59","1","2022-11-17 12:22:27","fd252370c17a9971d68c1d4354a03c2e","","Mozilla/5.0 (Windows NT 10.0; Win64; x64) AppleWebKit/537.36 (KHTML, like Gecko) Chrome/107.0.0.0 Safari/537.36","WebKit","Chrome","107.0.0.0","Windows","10.0","895","n","","shirt.jpg","1","Filler","true",""
"","","","","","fixation","35137","html-keyboard-response","183","745872","0.0-6.0-0.37","59","1","2022-11-17 12:22:27","fd252370c17a9971d68c1d4354a03c2e","","Mozilla/5.0 (Windows NT 10.0; Win64; x64) AppleWebKit/537.36 (KHTML, like Gecko) Chrome/107.0.0.0 Safari/537.36","WebKit","Chrome","107.0.0.0","Windows","10.0","null","null","","<p style=""font-size: 48px;"">+</p>","1","Filler","",""
"","","","","","sentence","35137","html-keyboard-response","184","747177","0.0-6.0-1.37","59","1","2022-11-17 12:22:27","fd252370c17a9971d68c1d4354a03c2e","","Mozilla/5.0 (Windows NT 10.0; Win64; x64) AppleWebKit/537.36 (KHTML, like Gecko) Chrome/107.0.0.0 Safari/537.36","WebKit","Chrome","107.0.0.0","Windows","10.0","1294"," ","","A cook is taking a knife","1","Filler","",""
"","","","","","fixation","35137","html-keyboard-response","185","747695","0.0-6.0-2.37","59","1","2022-11-17 12:22:27","fd252370c17a9971d68c1d4354a03c2e","","Mozilla/5.0 (Windows NT 10.0; Win64; x64) AppleWebKit/537.36 (KHTML, like Gecko) Chrome/107.0.0.0 Safari/537.36","WebKit","Chrome","107.0.0.0","Windows","10.0","null","null","","<p style=""font-size: 48px;"">+</p>","1","Filler","",""
"","","","","","picture","35137","image-keyboard-response","186","748354","0.0-6.0-3.37","59","1","2022-11-17 12:22:27","fd252370c17a9971d68c1d4354a03c2e","","Mozilla/5.0 (Windows NT 10.0; Win64; x64) AppleWebKit/537.36 (KHTML, like Gecko) Chrome/107.0.0.0 Safari/537.36","WebKit","Chrome","107.0.0.0","Windows","10.0","643","s","","knife.jpg","1","Filler","true",""
"","","","","","fixation","35137","html-keyboard-response","187","749367","0.0-6.0-0.38","59","1","2022-11-17 12:22:27","fd252370c17a9971d68c1d4354a03c2e","","Mozilla/5.0 (Windows NT 10.0; Win64; x64) AppleWebKit/537.36 (KHTML, like Gecko) Chrome/107.0.0.0 Safari/537.36","WebKit","Chrome","107.0.0.0","Windows","10.0","null","null","","<p style=""font-size: 48px;"">+</p>","1","Filler","",""
"","","","","","sentence","35137","html-keyboard-response","188","750618","0.0-6.0-1.38","59","1","2022-11-17 12:22:27","fd252370c17a9971d68c1d4354a03c2e","","Mozilla/5.0 (Windows NT 10.0; Win64; x64) AppleWebKit/537.36 (KHTML, like Gecko) Chrome/107.0.0.0 Safari/537.36","WebKit","Chrome","107.0.0.0","Windows","10.0","1244"," ","","A postman is driving a car","1","Filler","",""
"","","","","","fixation","35137","html-keyboard-response","189","751127","0.0-6.0-2.38","59","1","2022-11-17 12:22:27","fd252370c17a9971d68c1d4354a03c2e","","Mozilla/5.0 (Windows NT 10.0; Win64; x64) AppleWebKit/537.36 (KHTML, like Gecko) Chrome/107.0.0.0 Safari/537.36","WebKit","Chrome","107.0.0.0","Windows","10.0","null","null","","<p style=""font-size: 48px;"">+</p>","1","Filler","",""
"","","","","","picture","35137","image-keyboard-response","190","751744","0.0-6.0-3.38","59","1","2022-11-17 12:22:27","fd252370c17a9971d68c1d4354a03c2e","","Mozilla/5.0 (Windows NT 10.0; Win64; x64) AppleWebKit/537.36 (KHTML, like Gecko) Chrome/107.0.0.0 Safari/537.36","WebKit","Chrome","107.0.0.0","Windows","10.0","599","s","","car.jpg","1","Filler","true",""
"","","","","","fixation","35137","html-keyboard-response","191","752767","0.0-6.0-0.39","59","1","2022-11-17 12:22:27","fd252370c17a9971d68c1d4354a03c2e","","Mozilla/5.0 (Windows NT 10.0; Win64; x64) AppleWebKit/537.36 (KHTML, like Gecko) Chrome/107.0.0.0 Safari/537.36","WebKit","Chrome","107.0.0.0","Windows","10.0","null","null","","<p style=""font-size: 48px;"">+</p>","1","Filler","",""
"","","","","","sentence","35137","html-keyboard-response","192","754540","0.0-6.0-1.39","59","1","2022-11-17 12:22:27","fd252370c17a9971d68c1d4354a03c2e","","Mozilla/5.0 (Windows NT 10.0; Win64; x64) AppleWebKit/537.36 (KHTML, like Gecko) Chrome/107.0.0.0 Safari/537.36","WebKit","Chrome","107.0.0.0","Windows","10.0","1759"," ","","A butterfly is sitting on a flower","1","Filler","",""
"","","","","","fixation","35137","html-keyboard-response","193","755055","0.0-6.0-2.39","59","1","2022-11-17 12:22:27","fd252370c17a9971d68c1d4354a03c2e","","Mozilla/5.0 (Windows NT 10.0; Win64; x64) AppleWebKit/537.36 (KHTML, like Gecko) Chrome/107.0.0.0 Safari/537.36","WebKit","Chrome","107.0.0.0","Windows","10.0","null","null","","<p style=""font-size: 48px;"">+</p>","1","Filler","",""
"","","","","","picture","35137","image-keyboard-response","194","756140","0.0-6.0-3.39","59","1","2022-11-17 12:22:27","fd252370c17a9971d68c1d4354a03c2e","","Mozilla/5.0 (Windows NT 10.0; Win64; x64) AppleWebKit/537.36 (KHTML, like Gecko) Chrome/107.0.0.0 Safari/537.36","WebKit","Chrome","107.0.0.0","Windows","10.0","1075","n","","soap.jpg","1","Filler","true",""
"","","","","","fixation","35137","html-keyboard-response","195","757161","0.0-6.0-0.40","59","1","2022-11-17 12:22:27","fd252370c17a9971d68c1d4354a03c2e","","Mozilla/5.0 (Windows NT 10.0; Win64; x64) AppleWebKit/537.36 (KHTML, like Gecko) Chrome/107.0.0.0 Safari/537.36","WebKit","Chrome","107.0.0.0","Windows","10.0","null","null","","<p style=""font-size: 48px;"">+</p>","1","Filler","",""
"","","","","","sentence","35137","html-keyboard-response","196","759064","0.0-6.0-1.40","59","1","2022-11-17 12:22:27","fd252370c17a9971d68c1d4354a03c2e","","Mozilla/5.0 (Windows NT 10.0; Win64; x64) AppleWebKit/537.36 (KHTML, like Gecko) Chrome/107.0.0.0 Safari/537.36","WebKit","Chrome","107.0.0.0","Windows","10.0","1891"," ","","A thief is stealing a wallet","1","Filler","",""
"","","","","","fixation","35137","html-keyboard-response","197","759575","0.0-6.0-2.40","59","1","2022-11-17 12:22:27","fd252370c17a9971d68c1d4354a03c2e","","Mozilla/5.0 (Windows NT 10.0; Win64; x64) AppleWebKit/537.36 (KHTML, like Gecko) Chrome/107.0.0.0 Safari/537.36","WebKit","Chrome","107.0.0.0","Windows","10.0","null","null","","<p style=""font-size: 48px;"">+</p>","1","Filler","",""
"","","","","","picture","35137","image-keyboard-response","198","760277","0.0-6.0-3.40","59","1","2022-11-17 12:22:27","fd252370c17a9971d68c1d4354a03c2e","","Mozilla/5.0 (Windows NT 10.0; Win64; x64) AppleWebKit/537.36 (KHTML, like Gecko) Chrome/107.0.0.0 Safari/537.36","WebKit","Chrome","107.0.0.0","Windows","10.0","688","n","","teddybear.jpg","1","Filler","true",""
"","","","","","fixation","35137","html-keyboard-response","199","761289","0.0-6.0-0.41","59","1","2022-11-17 12:22:27","fd252370c17a9971d68c1d4354a03c2e","","Mozilla/5.0 (Windows NT 10.0; Win64; x64) AppleWebKit/537.36 (KHTML, like Gecko) Chrome/107.0.0.0 Safari/537.36","WebKit","Chrome","107.0.0.0","Windows","10.0","null","null","","<p style=""font-size: 48px;"">+</p>","1","Filler","",""
"","","","","","sentence","35137","html-keyboard-response","200","764612","0.0-6.0-1.41","59","1","2022-11-17 12:22:27","fd252370c17a9971d68c1d4354a03c2e","","Mozilla/5.0 (Windows NT 10.0; Win64; x64) AppleWebKit/537.36 (KHTML, like Gecko) Chrome/107.0.0.0 Safari/537.36","WebKit","Chrome","107.0.0.0","Windows","10.0","3311"," ","","A watch was placed on the laptop","1","Filler","",""
"","","","","","fixation","35137","html-keyboard-response","201","765136","0.0-6.0-2.41","59","1","2022-11-17 12:22:27","fd252370c17a9971d68c1d4354a03c2e","","Mozilla/5.0 (Windows NT 10.0; Win64; x64) AppleWebKit/537.36 (KHTML, like Gecko) Chrome/107.0.0.0 Safari/537.36","WebKit","Chrome","107.0.0.0","Windows","10.0","null","null","","<p style=""font-size: 48px;"">+</p>","1","Filler","",""
"","","","","","picture","35137","image-keyboard-response","202","765762","0.0-6.0-3.41","59","1","2022-11-17 12:22:27","fd252370c17a9971d68c1d4354a03c2e","","Mozilla/5.0 (Windows NT 10.0; Win64; x64) AppleWebKit/537.36 (KHTML, like Gecko) Chrome/107.0.0.0 Safari/537.36","WebKit","Chrome","107.0.0.0","Windows","10.0","617","n","","bow.jpg","1","Filler","true",""
"","","","","","fixation","35137","html-keyboard-response","203","766775","0.0-6.0-0.42","59","1","2022-11-17 12:22:27","fd252370c17a9971d68c1d4354a03c2e","","Mozilla/5.0 (Windows NT 10.0; Win64; x64) AppleWebKit/537.36 (KHTML, like Gecko) Chrome/107.0.0.0 Safari/537.36","WebKit","Chrome","107.0.0.0","Windows","10.0","null","null","","<p style=""font-size: 48px;"">+</p>","1","Light_Contradictory","",""
"","","","","","sentence","35137","html-keyboard-response","204","768891","0.0-6.0-1.42","59","1","2022-11-17 12:22:27","fd252370c17a9971d68c1d4354a03c2e","","Mozilla/5.0 (Windows NT 10.0; Win64; x64) AppleWebKit/537.36 (KHTML, like Gecko) Chrome/107.0.0.0 Safari/537.36","WebKit","Chrome","107.0.0.0","Windows","10.0","2100"," ","","A balloon dropped and smashed a tile","1","Light_Contradictory","",""
"","","","","","fixation","35137","html-keyboard-response","205","769400","0.0-6.0-2.42","59","1","2022-11-17 12:22:27","fd252370c17a9971d68c1d4354a03c2e","","Mozilla/5.0 (Windows NT 10.0; Win64; x64) AppleWebKit/537.36 (KHTML, like Gecko) Chrome/107.0.0.0 Safari/537.36","WebKit","Chrome","107.0.0.0","Windows","10.0","null","null","","<p style=""font-size: 48px;"">+</p>","1","Light_Contradictory","",""
"","","","","","picture","35137","image-keyboard-response","206","770114","0.0-6.0-3.42","59","1","2022-11-17 12:22:27","fd252370c17a9971d68c1d4354a03c2e","","Mozilla/5.0 (Windows NT 10.0; Win64; x64) AppleWebKit/537.36 (KHTML, like Gecko) Chrome/107.0.0.0 Safari/537.36","WebKit","Chrome","107.0.0.0","Windows","10.0","696","s","","tileS.jpg","1","Light_Contradictory","true",""
"","","","","","fixation","35137","html-keyboard-response","207","771127","0.0-6.0-0.43","59","1","2022-11-17 12:22:27","fd252370c17a9971d68c1d4354a03c2e","","Mozilla/5.0 (Windows NT 10.0; Win64; x64) AppleWebKit/537.36 (KHTML, like Gecko) Chrome/107.0.0.0 Safari/537.36","WebKit","Chrome","107.0.0.0","Windows","10.0","null","null","","<p style=""font-size: 48px;"">+</p>","1","Filler","",""
"","","","","","sentence","35137","html-keyboard-response","208","773036","0.0-6.0-1.43","59","1","2022-11-17 12:22:27","fd252370c17a9971d68c1d4354a03c2e","","Mozilla/5.0 (Windows NT 10.0; Win64; x64) AppleWebKit/537.36 (KHTML, like Gecko) Chrome/107.0.0.0 Safari/537.36","WebKit","Chrome","107.0.0.0","Windows","10.0","1895"," ","","A man is boiling potatoes.","1","Filler","",""
"","","","","","fixation","35137","html-keyboard-response","209","773561","0.0-6.0-2.43","59","1","2022-11-17 12:22:27","fd252370c17a9971d68c1d4354a03c2e","","Mozilla/5.0 (Windows NT 10.0; Win64; x64) AppleWebKit/537.36 (KHTML, like Gecko) Chrome/107.0.0.0 Safari/537.36","WebKit","Chrome","107.0.0.0","Windows","10.0","null","null","","<p style=""font-size: 48px;"">+</p>","1","Filler","",""
"","","","","","picture","35137","image-keyboard-response","210","774618","0.0-6.0-3.43","59","1","2022-11-17 12:22:27","fd252370c17a9971d68c1d4354a03c2e","","Mozilla/5.0 (Windows NT 10.0; Win64; x64) AppleWebKit/537.36 (KHTML, like Gecko) Chrome/107.0.0.0 Safari/537.36","WebKit","Chrome","107.0.0.0","Windows","10.0","1045","n","","cup.jpg","1","Filler","true",""
"","","","","","fixation","35137","html-keyboard-response","211","775631","0.0-6.0-0.44","59","1","2022-11-17 12:22:27","fd252370c17a9971d68c1d4354a03c2e","","Mozilla/5.0 (Windows NT 10.0; Win64; x64) AppleWebKit/537.36 (KHTML, like Gecko) Chrome/107.0.0.0 Safari/537.36","WebKit","Chrome","107.0.0.0","Windows","10.0","null","null","","<p style=""font-size: 48px;"">+</p>","1","Filler","",""
"","","","","","sentence","35137","html-keyboard-response","212","777860","0.0-6.0-1.44","59","1","2022-11-17 12:22:27","fd252370c17a9971d68c1d4354a03c2e","","Mozilla/5.0 (Windows NT 10.0; Win64; x64) AppleWebKit/537.36 (KHTML, like Gecko) Chrome/107.0.0.0 Safari/537.36","WebKit","Chrome","107.0.0.0","Windows","10.0","2218"," ","","An astronaut is putting on a space suit","1","Filler","",""
"","","","","","fixation","35137","html-keyboard-response","213","778376","0.0-6.0-2.44","59","1","2022-11-17 12:22:27","fd252370c17a9971d68c1d4354a03c2e","","Mozilla/5.0 (Windows NT 10.0; Win64; x64) AppleWebKit/537.36 (KHTML, like Gecko) Chrome/107.0.0.0 Safari/537.36","WebKit","Chrome","107.0.0.0","Windows","10.0","null","null","","<p style=""font-size: 48px;"">+</p>","1","Filler","",""
"","","","","","picture","35137","image-keyboard-response","214","779173","0.0-6.0-3.44","59","1","2022-11-17 12:22:27","fd252370c17a9971d68c1d4354a03c2e","","Mozilla/5.0 (Windows NT 10.0; Win64; x64) AppleWebKit/537.36 (KHTML, like Gecko) Chrome/107.0.0.0 Safari/537.36","WebKit","Chrome","107.0.0.0","Windows","10.0","783","s","","spacesuit.jpg","1","Filler","true",""
"","","","","","fixation","35137","html-keyboard-response","215","780191","0.0-6.0-0.45","59","1","2022-11-17 12:22:27","fd252370c17a9971d68c1d4354a03c2e","","Mozilla/5.0 (Windows NT 10.0; Win64; x64) AppleWebKit/537.36 (KHTML, like Gecko) Chrome/107.0.0.0 Safari/537.36","WebKit","Chrome","107.0.0.0","Windows","10.0","null","null","","<p style=""font-size: 48px;"">+</p>","1","Heavy_Contradictory","",""
"","","","","","sentence","35137","html-keyboard-response","216","782494","0.0-6.0-1.45","59","1","2022-11-17 12:22:27","fd252370c17a9971d68c1d4354a03c2e","","Mozilla/5.0 (Windows NT 10.0; Win64; x64) AppleWebKit/537.36 (KHTML, like Gecko) Chrome/107.0.0.0 Safari/537.36","WebKit","Chrome","107.0.0.0","Windows","10.0","2291"," ","","A bowling ball dropped and touched a banana","1","Heavy_Contradictory","",""
"","","","","","fixation","35137","html-keyboard-response","217","783007","0.0-6.0-2.45","59","1","2022-11-17 12:22:27","fd252370c17a9971d68c1d4354a03c2e","","Mozilla/5.0 (Windows NT 10.0; Win64; x64) AppleWebKit/537.36 (KHTML, like Gecko) Chrome/107.0.0.0 Safari/537.36","WebKit","Chrome","107.0.0.0","Windows","10.0","null","null","","<p style=""font-size: 48px;"">+</p>","1","Heavy_Contradictory","",""
"","","","","","picture","35137","image-keyboard-response","218","783661","0.0-6.0-3.45","59","1","2022-11-17 12:22:27","fd252370c17a9971d68c1d4354a03c2e","","Mozilla/5.0 (Windows NT 10.0; Win64; x64) AppleWebKit/537.36 (KHTML, like Gecko) Chrome/107.0.0.0 Safari/537.36","WebKit","Chrome","107.0.0.0","Windows","10.0","638","s","","bananaS.jpg","1","Heavy_Contradictory","true",""
"","","","","","fixation","35137","html-keyboard-response","219","784672","0.0-6.0-0.46","59","1","2022-11-17 12:22:27","fd252370c17a9971d68c1d4354a03c2e","","Mozilla/5.0 (Windows NT 10.0; Win64; x64) AppleWebKit/537.36 (KHTML, like Gecko) Chrome/107.0.0.0 Safari/537.36","WebKit","Chrome","107.0.0.0","Windows","10.0","null","null","","<p style=""font-size: 48px;"">+</p>","1","Filler","",""
"","","","","","sentence","35137","html-keyboard-response","220","786706","0.0-6.0-1.46","59","1","2022-11-17 12:22:27","fd252370c17a9971d68c1d4354a03c2e","","Mozilla/5.0 (Windows NT 10.0; Win64; x64) AppleWebKit/537.36 (KHTML, like Gecko) Chrome/107.0.0.0 Safari/537.36","WebKit","Chrome","107.0.0.0","Windows","10.0","2019"," ","","A dentist is drinking a can of cola","1","Filler","",""
"","","","","","fixation","35137","html-keyboard-response","221","787215","0.0-6.0-2.46","59","1","2022-11-17 12:22:27","fd252370c17a9971d68c1d4354a03c2e","","Mozilla/5.0 (Windows NT 10.0; Win64; x64) AppleWebKit/537.36 (KHTML, like Gecko) Chrome/107.0.0.0 Safari/537.36","WebKit","Chrome","107.0.0.0","Windows","10.0","null","null","","<p style=""font-size: 48px;"">+</p>","1","Filler","",""
"","","","","","picture","35137","image-keyboard-response","222","788105","0.0-6.0-3.46","59","1","2022-11-17 12:22:27","fd252370c17a9971d68c1d4354a03c2e","","Mozilla/5.0 (Windows NT 10.0; Win64; x64) AppleWebKit/537.36 (KHTML, like Gecko) Chrome/107.0.0.0 Safari/537.36","WebKit","Chrome","107.0.0.0","Windows","10.0","881","n","","doll.jpg","1","Filler","true",""
"","","","","","fixation","35137","html-keyboard-response","223","789129","0.0-6.0-0.47","59","1","2022-11-17 12:22:27","fd252370c17a9971d68c1d4354a03c2e","","Mozilla/5.0 (Windows NT 10.0; Win64; x64) AppleWebKit/537.36 (KHTML, like Gecko) Chrome/107.0.0.0 Safari/537.36","WebKit","Chrome","107.0.0.0","Windows","10.0","null","null","","<p style=""font-size: 48px;"">+</p>","1","Filler","",""
"","","","","","sentence","35137","html-keyboard-response","224","790376","0.0-6.0-1.47","59","1","2022-11-17 12:22:27","fd252370c17a9971d68c1d4354a03c2e","","Mozilla/5.0 (Windows NT 10.0; Win64; x64) AppleWebKit/537.36 (KHTML, like Gecko) Chrome/107.0.0.0 Safari/537.36","WebKit","Chrome","107.0.0.0","Windows","10.0","1234"," ","","A boy is wearing a hat","1","Filler","",""
"","","","","","fixation","35137","html-keyboard-response","225","790895","0.0-6.0-2.47","59","1","2022-11-17 12:22:27","fd252370c17a9971d68c1d4354a03c2e","","Mozilla/5.0 (Windows NT 10.0; Win64; x64) AppleWebKit/537.36 (KHTML, like Gecko) Chrome/107.0.0.0 Safari/537.36","WebKit","Chrome","107.0.0.0","Windows","10.0","null","null","","<p style=""font-size: 48px;"">+</p>","1","Filler","",""
"","","","","","picture","35137","image-keyboard-response","226","791534","0.0-6.0-3.47","59","1","2022-11-17 12:22:27","fd252370c17a9971d68c1d4354a03c2e","","Mozilla/5.0 (Windows NT 10.0; Win64; x64) AppleWebKit/537.36 (KHTML, like Gecko) Chrome/107.0.0.0 Safari/537.36","WebKit","Chrome","107.0.0.0","Windows","10.0","622","s","","hat.jpg","1","Filler","true",""
"","","","","","fixation","35137","html-keyboard-response","227","792551","0.0-6.0-0.48","59","1","2022-11-17 12:22:27","fd252370c17a9971d68c1d4354a03c2e","","Mozilla/5.0 (Windows NT 10.0; Win64; x64) AppleWebKit/537.36 (KHTML, like Gecko) Chrome/107.0.0.0 Safari/537.36","WebKit","Chrome","107.0.0.0","Windows","10.0","null","null","","<p style=""font-size: 48px;"">+</p>","1","Filler","",""
"","","","","","sentence","35137","html-keyboard-response","228","794183","0.0-6.0-1.48","59","1","2022-11-17 12:22:27","fd252370c17a9971d68c1d4354a03c2e","","Mozilla/5.0 (Windows NT 10.0; Win64; x64) AppleWebKit/537.36 (KHTML, like Gecko) Chrome/107.0.0.0 Safari/537.36","WebKit","Chrome","107.0.0.0","Windows","10.0","1621"," ","","A zebra is playing with a horse","1","Filler","",""
"","","","","","fixation","35137","html-keyboard-response","229","794703","0.0-6.0-2.48","59","1","2022-11-17 12:22:27","fd252370c17a9971d68c1d4354a03c2e","","Mozilla/5.0 (Windows NT 10.0; Win64; x64) AppleWebKit/537.36 (KHTML, like Gecko) Chrome/107.0.0.0 Safari/537.36","WebKit","Chrome","107.0.0.0","Windows","10.0","null","null","","<p style=""font-size: 48px;"">+</p>","1","Filler","",""
"","","","","","picture","35137","image-keyboard-response","230","795373","0.0-6.0-3.48","59","1","2022-11-17 12:22:27","fd252370c17a9971d68c1d4354a03c2e","","Mozilla/5.0 (Windows NT 10.0; Win64; x64) AppleWebKit/537.36 (KHTML, like Gecko) Chrome/107.0.0.0 Safari/537.36","WebKit","Chrome","107.0.0.0","Windows","10.0","661","n","","watch.jpg","1","Filler","true",""
"","","","","","fixation","35137","html-keyboard-response","231","796385","0.0-6.0-0.49","59","1","2022-11-17 12:22:27","fd252370c17a9971d68c1d4354a03c2e","","Mozilla/5.0 (Windows NT 10.0; Win64; x64) AppleWebKit/537.36 (KHTML, like Gecko) Chrome/107.0.0.0 Safari/537.36","WebKit","Chrome","107.0.0.0","Windows","10.0","null","null","","<p style=""font-size: 48px;"">+</p>","1","Filler","",""
"","","","","","sentence","35137","html-keyboard-response","232","798249","0.0-6.0-1.49","59","1","2022-11-17 12:22:27","fd252370c17a9971d68c1d4354a03c2e","","Mozilla/5.0 (Windows NT 10.0; Win64; x64) AppleWebKit/537.36 (KHTML, like Gecko) Chrome/107.0.0.0 Safari/537.36","WebKit","Chrome","107.0.0.0","Windows","10.0","1858"," ","","A doctor is taking a stethoscope","1","Filler","",""
"","","","","","fixation","35137","html-keyboard-response","233","798769","0.0-6.0-2.49","59","1","2022-11-17 12:22:27","fd252370c17a9971d68c1d4354a03c2e","","Mozilla/5.0 (Windows NT 10.0; Win64; x64) AppleWebKit/537.36 (KHTML, like Gecko) Chrome/107.0.0.0 Safari/537.36","WebKit","Chrome","107.0.0.0","Windows","10.0","null","null","","<p style=""font-size: 48px;"">+</p>","1","Filler","",""
"","","","","","picture","35137","image-keyboard-response","234","800225","0.0-6.0-3.49","59","1","2022-11-17 12:22:27","fd252370c17a9971d68c1d4354a03c2e","","Mozilla/5.0 (Windows NT 10.0; Win64; x64) AppleWebKit/537.36 (KHTML, like Gecko) Chrome/107.0.0.0 Safari/537.36","WebKit","Chrome","107.0.0.0","Windows","10.0","1442","n","","matchesbox.jpg","1","Filler","true",""
"","","","","","fixation","35137","html-keyboard-response","235","801247","0.0-6.0-0.50","59","1","2022-11-17 12:22:27","fd252370c17a9971d68c1d4354a03c2e","","Mozilla/5.0 (Windows NT 10.0; Win64; x64) AppleWebKit/537.36 (KHTML, like Gecko) Chrome/107.0.0.0 Safari/537.36","WebKit","Chrome","107.0.0.0","Windows","10.0","null","null","","<p style=""font-size: 48px;"">+</p>","1","Filler","",""
"","","","","","sentence","35137","html-keyboard-response","236","803044","0.0-6.0-1.50","59","1","2022-11-17 12:22:27","fd252370c17a9971d68c1d4354a03c2e","","Mozilla/5.0 (Windows NT 10.0; Win64; x64) AppleWebKit/537.36 (KHTML, like Gecko) Chrome/107.0.0.0 Safari/537.36","WebKit","Chrome","107.0.0.0","Windows","10.0","1783"," ","","A ring was placed on the newspaper","1","Filler","",""
"","","","","","fixation","35137","html-keyboard-response","237","803567","0.0-6.0-2.50","59","1","2022-11-17 12:22:27","fd252370c17a9971d68c1d4354a03c2e","","Mozilla/5.0 (Windows NT 10.0; Win64; x64) AppleWebKit/537.36 (KHTML, like Gecko) Chrome/107.0.0.0 Safari/537.36","WebKit","Chrome","107.0.0.0","Windows","10.0","null","null","","<p style=""font-size: 48px;"">+</p>","1","Filler","",""
"","","","","","picture","35137","image-keyboard-response","238","804134","0.0-6.0-3.50","59","1","2022-11-17 12:22:27","fd252370c17a9971d68c1d4354a03c2e","","Mozilla/5.0 (Windows NT 10.0; Win64; x64) AppleWebKit/537.36 (KHTML, like Gecko) Chrome/107.0.0.0 Safari/537.36","WebKit","Chrome","107.0.0.0","Windows","10.0","558","n","","cat.jpg","1","Filler","true",""
"","","","","","fixation","35137","html-keyboard-response","239","805143","0.0-6.0-0.51","59","1","2022-11-17 12:22:27","fd252370c17a9971d68c1d4354a03c2e","","Mozilla/5.0 (Windows NT 10.0; Win64; x64) AppleWebKit/537.36 (KHTML, like Gecko) Chrome/107.0.0.0 Safari/537.36","WebKit","Chrome","107.0.0.0","Windows","10.0","null","null","","<p style=""font-size: 48px;"">+</p>","1","Filler","",""
"","","","","","sentence","35137","html-keyboard-response","240","806293","0.0-6.0-1.51","59","1","2022-11-17 12:22:27","fd252370c17a9971d68c1d4354a03c2e","","Mozilla/5.0 (Windows NT 10.0; Win64; x64) AppleWebKit/537.36 (KHTML, like Gecko) Chrome/107.0.0.0 Safari/537.36","WebKit","Chrome","107.0.0.0","Windows","10.0","1132"," ","","A horse is chewing hay","1","Filler","",""
"","","","","","fixation","35137","html-keyboard-response","241","806808","0.0-6.0-2.51","59","1","2022-11-17 12:22:27","fd252370c17a9971d68c1d4354a03c2e","","Mozilla/5.0 (Windows NT 10.0; Win64; x64) AppleWebKit/537.36 (KHTML, like Gecko) Chrome/107.0.0.0 Safari/537.36","WebKit","Chrome","107.0.0.0","Windows","10.0","null","null","","<p style=""font-size: 48px;"">+</p>","1","Filler","",""
"","","","","","picture","35137","image-keyboard-response","242","807541","0.0-6.0-3.51","59","1","2022-11-17 12:22:27","fd252370c17a9971d68c1d4354a03c2e","","Mozilla/5.0 (Windows NT 10.0; Win64; x64) AppleWebKit/537.36 (KHTML, like Gecko) Chrome/107.0.0.0 Safari/537.36","WebKit","Chrome","107.0.0.0","Windows","10.0","715","n","","purse.jpg","1","Filler","true",""
"","","","","","fixation","35137","html-keyboard-response","243","808551","0.0-6.0-0.52","59","1","2022-11-17 12:22:27","fd252370c17a9971d68c1d4354a03c2e","","Mozilla/5.0 (Windows NT 10.0; Win64; x64) AppleWebKit/537.36 (KHTML, like Gecko) Chrome/107.0.0.0 Safari/537.36","WebKit","Chrome","107.0.0.0","Windows","10.0","null","null","","<p style=""font-size: 48px;"">+</p>","1","Filler","",""
"","","","","","sentence","35137","html-keyboard-response","244","810160","0.0-6.0-1.52","59","1","2022-11-17 12:22:27","fd252370c17a9971d68c1d4354a03c2e","","Mozilla/5.0 (Windows NT 10.0; Win64; x64) AppleWebKit/537.36 (KHTML, like Gecko) Chrome/107.0.0.0 Safari/537.36","WebKit","Chrome","107.0.0.0","Windows","10.0","1601"," ","","An old man is hammering a nail","1","Filler","",""
"","","","","","fixation","35137","html-keyboard-response","245","810679","0.0-6.0-2.52","59","1","2022-11-17 12:22:27","fd252370c17a9971d68c1d4354a03c2e","","Mozilla/5.0 (Windows NT 10.0; Win64; x64) AppleWebKit/537.36 (KHTML, like Gecko) Chrome/107.0.0.0 Safari/537.36","WebKit","Chrome","107.0.0.0","Windows","10.0","null","null","","<p style=""font-size: 48px;"">+</p>","1","Filler","",""
"","","","","","picture","35137","image-keyboard-response","246","811387","0.0-6.0-3.52","59","1","2022-11-17 12:22:27","fd252370c17a9971d68c1d4354a03c2e","","Mozilla/5.0 (Windows NT 10.0; Win64; x64) AppleWebKit/537.36 (KHTML, like Gecko) Chrome/107.0.0.0 Safari/537.36","WebKit","Chrome","107.0.0.0","Windows","10.0","699","s","","nail.jpg","1","Filler","true",""
"","","","","","fixation","35137","html-keyboard-response","247","812399","0.0-6.0-0.53","59","1","2022-11-17 12:22:27","fd252370c17a9971d68c1d4354a03c2e","","Mozilla/5.0 (Windows NT 10.0; Win64; x64) AppleWebKit/537.36 (KHTML, like Gecko) Chrome/107.0.0.0 Safari/537.36","WebKit","Chrome","107.0.0.0","Windows","10.0","null","null","","<p style=""font-size: 48px;"">+</p>","1","Filler","",""
"","","","","","sentence","35137","html-keyboard-response","248","814732","0.0-6.0-1.53","59","1","2022-11-17 12:22:27","fd252370c17a9971d68c1d4354a03c2e","","Mozilla/5.0 (Windows NT 10.0; Win64; x64) AppleWebKit/537.36 (KHTML, like Gecko) Chrome/107.0.0.0 Safari/537.36","WebKit","Chrome","107.0.0.0","Windows","10.0","2323"," ","","A woman is paying with a debit card","1","Filler","",""
