"success","timeout","failed_images","failed_audio","failed_video","typeoftrial","subject","trial_type","trial_index","time_elapsed","internal_node_id","run_id","condition","recorded_at","source_code_version","ip","user_agent","device","browser","browser_version","platform","platform_version","rt","response","Experiment","stimulus","list_number","trialcondition","correct","question_order"
"true","false","[]","[]","[]","preload","57673","preload","0","6","0.0-0.0","102","3","2022-11-17 12:30:42","fd252370c17a9971d68c1d4354a03c2e","","Mozilla/5.0 (Macintosh; Intel Mac OS X 10_15_7) AppleWebKit/605.1.15 (KHTML, like Gecko) Version/15.5 Safari/605.1.15","Macintosh","Safari","15.5","OS X","10_15_7","","","","","","","",""
"","","","","","ID","57673","survey-text","1","1921","0.0-1.0","102","3","2022-11-17 12:30:42","fd252370c17a9971d68c1d4354a03c2e","","Mozilla/5.0 (Macintosh; Intel Mac OS X 10_15_7) AppleWebKit/605.1.15 (KHTML, like Gecko) Version/15.5 Safari/605.1.15","Macintosh","Safari","15.5","OS X","10_15_7","1898","{""ID"":""61023d86ff017d53fdb4970e""}","","","","","",""
"","","","","","instructions","57673","html-button-response","2","3140","0.0-2.0","102","3","2022-11-17 12:30:42","fd252370c17a9971d68c1d4354a03c2e","","Mozilla/5.0 (Macintosh; Intel Mac OS X 10_15_7) AppleWebKit/605.1.15 (KHTML, like Gecko) Version/15.5 Safari/605.1.15","Macintosh","Safari","15.5","OS X","10_15_7","1218","0","","
                    <p style=""font-size:20px;""> Welcome to the experiment! </p>
                    <p style=""font-size:20px;""> In this experiment, you will be asked to make judgments about the content of different sentences.</p>
                    <p style=""font-size:20px;""> On each trial, you will read a sentence, and will be shown a picture immediately following the sentence. </p>
                    <p style=""font-size:20px;""> Your task is to decide whether the object displayed in the picture was mentioned in the sentence or not </p>
                    <p style=""font-size:20px;""> and respond as quickly as possible by pressing <strong>S</strong> for yes or <strong>N</strong> for no. </p>
                    <p style=""font-size:20px;""> You will now do a practice session with feedback and instructions. </p>
                    <p style=""font-size:20px;""> Click the button below to continue.</p>
                    ","","","",""
"","","","","","instructions","57673","html-button-response","3","4157","0.0-3.0","102","3","2022-11-17 12:30:42","fd252370c17a9971d68c1d4354a03c2e","","Mozilla/5.0 (Macintosh; Intel Mac OS X 10_15_7) AppleWebKit/605.1.15 (KHTML, like Gecko) Version/15.5 Safari/605.1.15","Macintosh","Safari","15.5","OS X","10_15_7","1017","0","","
                    <p style=""font-size:20px;""> You are about to begin the practice test. </p>
                    <p style=""font-size:20px;""> On each trial, a sentence will appear on the screen. You should press SPACEBAR when you have read and understood the sentence.</p>
                    <p style=""font-size:20px;""> After you press SPACEBAR, a picture will appear on the screen. </p>
                    <p style=""font-size:20px;""> You need to indicate whether or not the pictured object was mentioned in the sentence. </p>
                    <p style=""font-size:20px;""> If the object WAS mentioned in the preceding sentence, you should press <strong>S</strong> </p>
                    <p style=""font-size:20px;""> If the object was NOT mentioned in the preceding sentence, you should press <strong>N</strong>. </p>
                    <p style=""font-size:20px;""> Click the button below to continue to the practice session.</p>
                    ","","","",""
"","","","","","fixation","57673","html-keyboard-response","4","5160","0.0-4.0-0.0","102","3","2022-11-17 12:30:42","fd252370c17a9971d68c1d4354a03c2e","","Mozilla/5.0 (Macintosh; Intel Mac OS X 10_15_7) AppleWebKit/605.1.15 (KHTML, like Gecko) Version/15.5 Safari/605.1.15","Macintosh","Safari","15.5","OS X","10_15_7","null","null","","<p style=""font-size: 48px;"">+</p>","practice","practice_n","",""
"","","","","","sentence","57673","html-keyboard-response","5","6378","0.0-4.0-1.0","102","3","2022-11-17 12:30:42","fd252370c17a9971d68c1d4354a03c2e","","Mozilla/5.0 (Macintosh; Intel Mac OS X 10_15_7) AppleWebKit/605.1.15 (KHTML, like Gecko) Version/15.5 Safari/605.1.15","Macintosh","Safari","15.5","OS X","10_15_7","1215"," ","","A bowling ball dropped and touched a bottle","practice","practice_n","",""
"","","","","","fixation","57673","html-keyboard-response","6","6881","0.0-4.0-2.0","102","3","2022-11-17 12:30:42","fd252370c17a9971d68c1d4354a03c2e","","Mozilla/5.0 (Macintosh; Intel Mac OS X 10_15_7) AppleWebKit/605.1.15 (KHTML, like Gecko) Version/15.5 Safari/605.1.15","Macintosh","Safari","15.5","OS X","10_15_7","null","null","","<p style=""font-size: 48px;"">+</p>","practice","practice_n","",""
"","","","","","picture","57673","image-keyboard-response","7","7724","0.0-4.0-3.0","102","3","2022-11-17 12:30:42","fd252370c17a9971d68c1d4354a03c2e","","Mozilla/5.0 (Macintosh; Intel Mac OS X 10_15_7) AppleWebKit/605.1.15 (KHTML, like Gecko) Version/15.5 Safari/605.1.15","Macintosh","Safari","15.5","OS X","10_15_7","841","n","","bookB.jpg","practice","practice_n","true",""
"","","","","","","","html-keyboard-response","8","9727","0.0-4.0-4.0","102","3","2022-11-17 12:30:42","fd252370c17a9971d68c1d4354a03c2e","","Mozilla/5.0 (Macintosh; Intel Mac OS X 10_15_7) AppleWebKit/605.1.15 (KHTML, like Gecko) Version/15.5 Safari/605.1.15","Macintosh","Safari","15.5","OS X","10_15_7","null","null","","CORRECT!","","","",""
"","","","","","fixation","57673","html-keyboard-response","9","10730","0.0-4.0-0.1","102","3","2022-11-17 12:30:42","fd252370c17a9971d68c1d4354a03c2e","","Mozilla/5.0 (Macintosh; Intel Mac OS X 10_15_7) AppleWebKit/605.1.15 (KHTML, like Gecko) Version/15.5 Safari/605.1.15","Macintosh","Safari","15.5","OS X","10_15_7","null","null","","<p style=""font-size: 48px;"">+</p>","practice","practice_n","",""
"","","","","","sentence","57673","html-keyboard-response","10","11640","0.0-4.0-1.1","102","3","2022-11-17 12:30:42","fd252370c17a9971d68c1d4354a03c2e","","Mozilla/5.0 (Macintosh; Intel Mac OS X 10_15_7) AppleWebKit/605.1.15 (KHTML, like Gecko) Version/15.5 Safari/605.1.15","Macintosh","Safari","15.5","OS X","10_15_7","908"," ","","A fork was placed on a stool","practice","practice_n","",""
"","","","","","fixation","57673","html-keyboard-response","11","12142","0.0-4.0-2.1","102","3","2022-11-17 12:30:42","fd252370c17a9971d68c1d4354a03c2e","","Mozilla/5.0 (Macintosh; Intel Mac OS X 10_15_7) AppleWebKit/605.1.15 (KHTML, like Gecko) Version/15.5 Safari/605.1.15","Macintosh","Safari","15.5","OS X","10_15_7","null","null","","<p style=""font-size: 48px;"">+</p>","practice","practice_n","",""
"","","","","","picture","57673","image-keyboard-response","12","12745","0.0-4.0-3.1","102","3","2022-11-17 12:30:42","fd252370c17a9971d68c1d4354a03c2e","","Mozilla/5.0 (Macintosh; Intel Mac OS X 10_15_7) AppleWebKit/605.1.15 (KHTML, like Gecko) Version/15.5 Safari/605.1.15","Macintosh","Safari","15.5","OS X","10_15_7","600","n","","tableB.jpg","practice","practice_n","true",""
"","","","","","","","html-keyboard-response","13","14748","0.0-4.0-4.1","102","3","2022-11-17 12:30:42","fd252370c17a9971d68c1d4354a03c2e","","Mozilla/5.0 (Macintosh; Intel Mac OS X 10_15_7) AppleWebKit/605.1.15 (KHTML, like Gecko) Version/15.5 Safari/605.1.15","Macintosh","Safari","15.5","OS X","10_15_7","null","null","","CORRECT!","","","",""
"","","","","","fixation","57673","html-keyboard-response","14","15752","0.0-4.0-0.2","102","3","2022-11-17 12:30:42","fd252370c17a9971d68c1d4354a03c2e","","Mozilla/5.0 (Macintosh; Intel Mac OS X 10_15_7) AppleWebKit/605.1.15 (KHTML, like Gecko) Version/15.5 Safari/605.1.15","Macintosh","Safari","15.5","OS X","10_15_7","null","null","","<p style=""font-size: 48px;"">+</p>","practice","practice_n","",""
"","","","","","sentence","57673","html-keyboard-response","15","17028","0.0-4.0-1.2","102","3","2022-11-17 12:30:42","fd252370c17a9971d68c1d4354a03c2e","","Mozilla/5.0 (Macintosh; Intel Mac OS X 10_15_7) AppleWebKit/605.1.15 (KHTML, like Gecko) Version/15.5 Safari/605.1.15","Macintosh","Safari","15.5","OS X","10_15_7","1274"," ","","A balloon dropped and smashed a cup","practice","practice_n","",""
"","","","","","fixation","57673","html-keyboard-response","16","17531","0.0-4.0-2.2","102","3","2022-11-17 12:30:42","fd252370c17a9971d68c1d4354a03c2e","","Mozilla/5.0 (Macintosh; Intel Mac OS X 10_15_7) AppleWebKit/605.1.15 (KHTML, like Gecko) Version/15.5 Safari/605.1.15","Macintosh","Safari","15.5","OS X","10_15_7","null","null","","<p style=""font-size: 48px;"">+</p>","practice","practice_n","",""
"","","","","","picture","57673","image-keyboard-response","17","18049","0.0-4.0-3.2","102","3","2022-11-17 12:30:42","fd252370c17a9971d68c1d4354a03c2e","","Mozilla/5.0 (Macintosh; Intel Mac OS X 10_15_7) AppleWebKit/605.1.15 (KHTML, like Gecko) Version/15.5 Safari/605.1.15","Macintosh","Safari","15.5","OS X","10_15_7","516","n","","bananaB.jpg","practice","practice_n","true",""
"","","","","","","","html-keyboard-response","18","20052","0.0-4.0-4.2","102","3","2022-11-17 12:30:42","fd252370c17a9971d68c1d4354a03c2e","","Mozilla/5.0 (Macintosh; Intel Mac OS X 10_15_7) AppleWebKit/605.1.15 (KHTML, like Gecko) Version/15.5 Safari/605.1.15","Macintosh","Safari","15.5","OS X","10_15_7","null","null","","CORRECT!","","","",""
"","","","","","fixation","57673","html-keyboard-response","19","21055","0.0-4.0-0.3","102","3","2022-11-17 12:30:42","fd252370c17a9971d68c1d4354a03c2e","","Mozilla/5.0 (Macintosh; Intel Mac OS X 10_15_7) AppleWebKit/605.1.15 (KHTML, like Gecko) Version/15.5 Safari/605.1.15","Macintosh","Safari","15.5","OS X","10_15_7","null","null","","<p style=""font-size: 48px;"">+</p>","practice","practice_s","",""
"","","","","","sentence","57673","html-keyboard-response","20","24365","0.0-4.0-1.3","102","3","2022-11-17 12:30:42","fd252370c17a9971d68c1d4354a03c2e","","Mozilla/5.0 (Macintosh; Intel Mac OS X 10_15_7) AppleWebKit/605.1.15 (KHTML, like Gecko) Version/15.5 Safari/605.1.15","Macintosh","Safari","15.5","OS X","10_15_7","3308"," ","","A knife was placed on a hammer","practice","practice_s","",""
"","","","","","fixation","57673","html-keyboard-response","21","24868","0.0-4.0-2.3","102","3","2022-11-17 12:30:42","fd252370c17a9971d68c1d4354a03c2e","","Mozilla/5.0 (Macintosh; Intel Mac OS X 10_15_7) AppleWebKit/605.1.15 (KHTML, like Gecko) Version/15.5 Safari/605.1.15","Macintosh","Safari","15.5","OS X","10_15_7","null","null","","<p style=""font-size: 48px;"">+</p>","practice","practice_s","",""
"","","","","","picture","57673","image-keyboard-response","22","25500","0.0-4.0-3.3","102","3","2022-11-17 12:30:42","fd252370c17a9971d68c1d4354a03c2e","","Mozilla/5.0 (Macintosh; Intel Mac OS X 10_15_7) AppleWebKit/605.1.15 (KHTML, like Gecko) Version/15.5 Safari/605.1.15","Macintosh","Safari","15.5","OS X","10_15_7","630","s","","hammerB.jpg","practice","practice_s","true",""
"","","","","","","","html-keyboard-response","23","27503","0.0-4.0-4.3","102","3","2022-11-17 12:30:42","fd252370c17a9971d68c1d4354a03c2e","","Mozilla/5.0 (Macintosh; Intel Mac OS X 10_15_7) AppleWebKit/605.1.15 (KHTML, like Gecko) Version/15.5 Safari/605.1.15","Macintosh","Safari","15.5","OS X","10_15_7","null","null","","CORRECT!","","","",""
"","","","","","fixation","57673","html-keyboard-response","24","28506","0.0-4.0-0.4","102","3","2022-11-17 12:30:42","fd252370c17a9971d68c1d4354a03c2e","","Mozilla/5.0 (Macintosh; Intel Mac OS X 10_15_7) AppleWebKit/605.1.15 (KHTML, like Gecko) Version/15.5 Safari/605.1.15","Macintosh","Safari","15.5","OS X","10_15_7","null","null","","<p style=""font-size: 48px;"">+</p>","practice","practice_s","",""
"","","","","","sentence","57673","html-keyboard-response","25","29596","0.0-4.0-1.4","102","3","2022-11-17 12:30:42","fd252370c17a9971d68c1d4354a03c2e","","Mozilla/5.0 (Macintosh; Intel Mac OS X 10_15_7) AppleWebKit/605.1.15 (KHTML, like Gecko) Version/15.5 Safari/605.1.15","Macintosh","Safari","15.5","OS X","10_15_7","1088"," ","","A balloon dropped and touched a cigarette","practice","practice_s","",""
"","","","","","fixation","57673","html-keyboard-response","26","30099","0.0-4.0-2.4","102","3","2022-11-17 12:30:42","fd252370c17a9971d68c1d4354a03c2e","","Mozilla/5.0 (Macintosh; Intel Mac OS X 10_15_7) AppleWebKit/605.1.15 (KHTML, like Gecko) Version/15.5 Safari/605.1.15","Macintosh","Safari","15.5","OS X","10_15_7","null","null","","<p style=""font-size: 48px;"">+</p>","practice","practice_s","",""
"","","","","","picture","57673","image-keyboard-response","27","30813","0.0-4.0-3.4","102","3","2022-11-17 12:30:42","fd252370c17a9971d68c1d4354a03c2e","","Mozilla/5.0 (Macintosh; Intel Mac OS X 10_15_7) AppleWebKit/605.1.15 (KHTML, like Gecko) Version/15.5 Safari/605.1.15","Macintosh","Safari","15.5","OS X","10_15_7","712","s","","cigaretteB.jpg","practice","practice_s","true",""
"","","","","","","","html-keyboard-response","28","32815","0.0-4.0-4.4","102","3","2022-11-17 12:30:42","fd252370c17a9971d68c1d4354a03c2e","","Mozilla/5.0 (Macintosh; Intel Mac OS X 10_15_7) AppleWebKit/605.1.15 (KHTML, like Gecko) Version/15.5 Safari/605.1.15","Macintosh","Safari","15.5","OS X","10_15_7","null","null","","CORRECT!","","","",""
"","","","","","fixation","57673","html-keyboard-response","29","33818","0.0-4.0-0.5","102","3","2022-11-17 12:30:42","fd252370c17a9971d68c1d4354a03c2e","","Mozilla/5.0 (Macintosh; Intel Mac OS X 10_15_7) AppleWebKit/605.1.15 (KHTML, like Gecko) Version/15.5 Safari/605.1.15","Macintosh","Safari","15.5","OS X","10_15_7","null","null","","<p style=""font-size: 48px;"">+</p>","practice","practice_s","",""
"","","","","","sentence","57673","html-keyboard-response","30","35521","0.0-4.0-1.5","102","3","2022-11-17 12:30:42","fd252370c17a9971d68c1d4354a03c2e","","Mozilla/5.0 (Macintosh; Intel Mac OS X 10_15_7) AppleWebKit/605.1.15 (KHTML, like Gecko) Version/15.5 Safari/605.1.15","Macintosh","Safari","15.5","OS X","10_15_7","1700"," ","","A bowling ball dropped and smashed a teacup","practice","practice_s","",""
"","","","","","fixation","57673","html-keyboard-response","31","36024","0.0-4.0-2.5","102","3","2022-11-17 12:30:42","fd252370c17a9971d68c1d4354a03c2e","","Mozilla/5.0 (Macintosh; Intel Mac OS X 10_15_7) AppleWebKit/605.1.15 (KHTML, like Gecko) Version/15.5 Safari/605.1.15","Macintosh","Safari","15.5","OS X","10_15_7","null","null","","<p style=""font-size: 48px;"">+</p>","practice","practice_s","",""
"","","","","","picture","57673","image-keyboard-response","32","36954","0.0-4.0-3.5","102","3","2022-11-17 12:30:42","fd252370c17a9971d68c1d4354a03c2e","","Mozilla/5.0 (Macintosh; Intel Mac OS X 10_15_7) AppleWebKit/605.1.15 (KHTML, like Gecko) Version/15.5 Safari/605.1.15","Macintosh","Safari","15.5","OS X","10_15_7","927","s","","cupB.jpg","practice","practice_s","true",""
"","","","","","","","html-keyboard-response","33","38957","0.0-4.0-4.5","102","3","2022-11-17 12:30:42","fd252370c17a9971d68c1d4354a03c2e","","Mozilla/5.0 (Macintosh; Intel Mac OS X 10_15_7) AppleWebKit/605.1.15 (KHTML, like Gecko) Version/15.5 Safari/605.1.15","Macintosh","Safari","15.5","OS X","10_15_7","null","null","","CORRECT!","","","",""
"","","","","","movetoexp","57673","html-button-response","34","40917","0.0-5.0","102","3","2022-11-17 12:30:42","fd252370c17a9971d68c1d4354a03c2e","","Mozilla/5.0 (Macintosh; Intel Mac OS X 10_15_7) AppleWebKit/605.1.15 (KHTML, like Gecko) Version/15.5 Safari/605.1.15","Macintosh","Safari","15.5","OS X","10_15_7","1953","0","","<p style=""font-size:20px;"">You have now completed the practice session! </p>
                    <p style=""font-size:20px;"">You will now move on to the main experiment, where you will not be provided any feedback. </p>
                    <p style=""font-size:20px;"">Remember, you should press <strong>S</strong> if the pictured object was mentioned in the preceding sentence<br> and <strong>N</strong> if the pictured object was not mentioned in the preceding sentence.</p>
                    <p style=""font-size:20px;"">Please click the button below to continue to the main experiment. </p>","","","",""
"","","","","","fixation","57673","html-keyboard-response","35","41922","0.0-6.0-0.0","102","3","2022-11-17 12:30:42","fd252370c17a9971d68c1d4354a03c2e","","Mozilla/5.0 (Macintosh; Intel Mac OS X 10_15_7) AppleWebKit/605.1.15 (KHTML, like Gecko) Version/15.5 Safari/605.1.15","Macintosh","Safari","15.5","OS X","10_15_7","null","null","","<p style=""font-size: 48px;"">+</p>","3","Light_Matched","",""
"","","","","","sentence","57673","html-keyboard-response","36","43945","0.0-6.0-1.0","102","3","2022-11-17 12:30:42","fd252370c17a9971d68c1d4354a03c2e","","Mozilla/5.0 (Macintosh; Intel Mac OS X 10_15_7) AppleWebKit/605.1.15 (KHTML, like Gecko) Version/15.5 Safari/605.1.15","Macintosh","Safari","15.5","OS X","10_15_7","2020"," ","","A balloon dropped and touched a porcelain figure","3","Light_Matched","",""
"","","","","","fixation","57673","html-keyboard-response","37","44448","0.0-6.0-2.0","102","3","2022-11-17 12:30:42","fd252370c17a9971d68c1d4354a03c2e","","Mozilla/5.0 (Macintosh; Intel Mac OS X 10_15_7) AppleWebKit/605.1.15 (KHTML, like Gecko) Version/15.5 Safari/605.1.15","Macintosh","Safari","15.5","OS X","10_15_7","null","null","","<p style=""font-size: 48px;"">+</p>","3","Light_Matched","",""
"","","","","","picture","57673","image-keyboard-response","38","45109","0.0-6.0-3.0","102","3","2022-11-17 12:30:42","fd252370c17a9971d68c1d4354a03c2e","","Mozilla/5.0 (Macintosh; Intel Mac OS X 10_15_7) AppleWebKit/605.1.15 (KHTML, like Gecko) Version/15.5 Safari/605.1.15","Macintosh","Safari","15.5","OS X","10_15_7","658","s","","figureS.jpg","3","Light_Matched","true",""
"","","","","","fixation","57673","html-keyboard-response","39","46112","0.0-6.0-0.1","102","3","2022-11-17 12:30:42","fd252370c17a9971d68c1d4354a03c2e","","Mozilla/5.0 (Macintosh; Intel Mac OS X 10_15_7) AppleWebKit/605.1.15 (KHTML, like Gecko) Version/15.5 Safari/605.1.15","Macintosh","Safari","15.5","OS X","10_15_7","null","null","","<p style=""font-size: 48px;"">+</p>","3","Filler","",""
"","","","","","sentence","57673","html-keyboard-response","40","46958","0.0-6.0-1.1","102","3","2022-11-17 12:30:42","fd252370c17a9971d68c1d4354a03c2e","","Mozilla/5.0 (Macintosh; Intel Mac OS X 10_15_7) AppleWebKit/605.1.15 (KHTML, like Gecko) Version/15.5 Safari/605.1.15","Macintosh","Safari","15.5","OS X","10_15_7","843"," ","","A woman is taking money out of a wallet","3","Filler","",""
"","","","","","fixation","57673","html-keyboard-response","41","47461","0.0-6.0-2.1","102","3","2022-11-17 12:30:42","fd252370c17a9971d68c1d4354a03c2e","","Mozilla/5.0 (Macintosh; Intel Mac OS X 10_15_7) AppleWebKit/605.1.15 (KHTML, like Gecko) Version/15.5 Safari/605.1.15","Macintosh","Safari","15.5","OS X","10_15_7","null","null","","<p style=""font-size: 48px;"">+</p>","3","Filler","",""
"","","","","","picture","57673","image-keyboard-response","42","48243","0.0-6.0-3.1","102","3","2022-11-17 12:30:42","fd252370c17a9971d68c1d4354a03c2e","","Mozilla/5.0 (Macintosh; Intel Mac OS X 10_15_7) AppleWebKit/605.1.15 (KHTML, like Gecko) Version/15.5 Safari/605.1.15","Macintosh","Safari","15.5","OS X","10_15_7","779","n","","coconut.jpg","3","Filler","true",""
"","","","","","fixation","57673","html-keyboard-response","43","49246","0.0-6.0-0.2","102","3","2022-11-17 12:30:42","fd252370c17a9971d68c1d4354a03c2e","","Mozilla/5.0 (Macintosh; Intel Mac OS X 10_15_7) AppleWebKit/605.1.15 (KHTML, like Gecko) Version/15.5 Safari/605.1.15","Macintosh","Safari","15.5","OS X","10_15_7","null","null","","<p style=""font-size: 48px;"">+</p>","3","Filler","",""
"","","","","","sentence","57673","html-keyboard-response","44","50598","0.0-6.0-1.2","102","3","2022-11-17 12:30:42","fd252370c17a9971d68c1d4354a03c2e","","Mozilla/5.0 (Macintosh; Intel Mac OS X 10_15_7) AppleWebKit/605.1.15 (KHTML, like Gecko) Version/15.5 Safari/605.1.15","Macintosh","Safari","15.5","OS X","10_15_7","1350"," ","","A kitten is playing in the sandbox","3","Filler","",""
"","","","","","fixation","57673","html-keyboard-response","45","51101","0.0-6.0-2.2","102","3","2022-11-17 12:30:42","fd252370c17a9971d68c1d4354a03c2e","","Mozilla/5.0 (Macintosh; Intel Mac OS X 10_15_7) AppleWebKit/605.1.15 (KHTML, like Gecko) Version/15.5 Safari/605.1.15","Macintosh","Safari","15.5","OS X","10_15_7","null","null","","<p style=""font-size: 48px;"">+</p>","3","Filler","",""
"","","","","","picture","57673","image-keyboard-response","46","51669","0.0-6.0-3.2","102","3","2022-11-17 12:30:42","fd252370c17a9971d68c1d4354a03c2e","","Mozilla/5.0 (Macintosh; Intel Mac OS X 10_15_7) AppleWebKit/605.1.15 (KHTML, like Gecko) Version/15.5 Safari/605.1.15","Macintosh","Safari","15.5","OS X","10_15_7","565","n","","dustbin.jpg","3","Filler","true",""
"","","","","","fixation","57673","html-keyboard-response","47","52672","0.0-6.0-0.3","102","3","2022-11-17 12:30:42","fd252370c17a9971d68c1d4354a03c2e","","Mozilla/5.0 (Macintosh; Intel Mac OS X 10_15_7) AppleWebKit/605.1.15 (KHTML, like Gecko) Version/15.5 Safari/605.1.15","Macintosh","Safari","15.5","OS X","10_15_7","null","null","","<p style=""font-size: 48px;"">+</p>","3","Light_Matched","",""
"","","","","","sentence","57673","html-keyboard-response","48","54034","0.0-6.0-1.3","102","3","2022-11-17 12:30:42","fd252370c17a9971d68c1d4354a03c2e","","Mozilla/5.0 (Macintosh; Intel Mac OS X 10_15_7) AppleWebKit/605.1.15 (KHTML, like Gecko) Version/15.5 Safari/605.1.15","Macintosh","Safari","15.5","OS X","10_15_7","1359"," ","","A balloon dropped and touched a TV","3","Light_Matched","",""
"","","","","","fixation","57673","html-keyboard-response","49","54537","0.0-6.0-2.3","102","3","2022-11-17 12:30:42","fd252370c17a9971d68c1d4354a03c2e","","Mozilla/5.0 (Macintosh; Intel Mac OS X 10_15_7) AppleWebKit/605.1.15 (KHTML, like Gecko) Version/15.5 Safari/605.1.15","Macintosh","Safari","15.5","OS X","10_15_7","null","null","","<p style=""font-size: 48px;"">+</p>","3","Light_Matched","",""
"","","","","","picture","57673","image-keyboard-response","50","55402","0.0-6.0-3.3","102","3","2022-11-17 12:30:42","fd252370c17a9971d68c1d4354a03c2e","","Mozilla/5.0 (Macintosh; Intel Mac OS X 10_15_7) AppleWebKit/605.1.15 (KHTML, like Gecko) Version/15.5 Safari/605.1.15","Macintosh","Safari","15.5","OS X","10_15_7","862","s","","tvS.jpg","3","Light_Matched","true",""
"","","","","","fixation","57673","html-keyboard-response","51","56405","0.0-6.0-0.4","102","3","2022-11-17 12:30:42","fd252370c17a9971d68c1d4354a03c2e","","Mozilla/5.0 (Macintosh; Intel Mac OS X 10_15_7) AppleWebKit/605.1.15 (KHTML, like Gecko) Version/15.5 Safari/605.1.15","Macintosh","Safari","15.5","OS X","10_15_7","null","null","","<p style=""font-size: 48px;"">+</p>","3","Filler","",""
"","","","","","sentence","57673","html-keyboard-response","52","57012","0.0-6.0-1.4","102","3","2022-11-17 12:30:42","fd252370c17a9971d68c1d4354a03c2e","","Mozilla/5.0 (Macintosh; Intel Mac OS X 10_15_7) AppleWebKit/605.1.15 (KHTML, like Gecko) Version/15.5 Safari/605.1.15","Macintosh","Safari","15.5","OS X","10_15_7","603"," ","","A postman is driving a car","3","Filler","",""
"","","","","","fixation","57673","html-keyboard-response","53","57514","0.0-6.0-2.4","102","3","2022-11-17 12:30:42","fd252370c17a9971d68c1d4354a03c2e","","Mozilla/5.0 (Macintosh; Intel Mac OS X 10_15_7) AppleWebKit/605.1.15 (KHTML, like Gecko) Version/15.5 Safari/605.1.15","Macintosh","Safari","15.5","OS X","10_15_7","null","null","","<p style=""font-size: 48px;"">+</p>","3","Filler","",""
"","","","","","picture","57673","image-keyboard-response","54","59522","0.0-6.0-3.4","102","3","2022-11-17 12:30:42","fd252370c17a9971d68c1d4354a03c2e","","Mozilla/5.0 (Macintosh; Intel Mac OS X 10_15_7) AppleWebKit/605.1.15 (KHTML, like Gecko) Version/15.5 Safari/605.1.15","Macintosh","Safari","15.5","OS X","10_15_7","2005","s","","car.jpg","3","Filler","true",""
"","","","","","fixation","57673","html-keyboard-response","55","60525","0.0-6.0-0.5","102","3","2022-11-17 12:30:42","fd252370c17a9971d68c1d4354a03c2e","","Mozilla/5.0 (Macintosh; Intel Mac OS X 10_15_7) AppleWebKit/605.1.15 (KHTML, like Gecko) Version/15.5 Safari/605.1.15","Macintosh","Safari","15.5","OS X","10_15_7","null","null","","<p style=""font-size: 48px;"">+</p>","3","Filler","",""
"","","","","","sentence","57673","html-keyboard-response","56","61301","0.0-6.0-1.5","102","3","2022-11-17 12:30:42","fd252370c17a9971d68c1d4354a03c2e","","Mozilla/5.0 (Macintosh; Intel Mac OS X 10_15_7) AppleWebKit/605.1.15 (KHTML, like Gecko) Version/15.5 Safari/605.1.15","Macintosh","Safari","15.5","OS X","10_15_7","773"," ","","A keyboard was placed on the bed","3","Filler","",""
"","","","","","fixation","57673","html-keyboard-response","57","61810","0.0-6.0-2.5","102","3","2022-11-17 12:30:42","fd252370c17a9971d68c1d4354a03c2e","","Mozilla/5.0 (Macintosh; Intel Mac OS X 10_15_7) AppleWebKit/605.1.15 (KHTML, like Gecko) Version/15.5 Safari/605.1.15","Macintosh","Safari","15.5","OS X","10_15_7","null","null","","<p style=""font-size: 48px;"">+</p>","3","Filler","",""
"","","","","","picture","57673","image-keyboard-response","58","62407","0.0-6.0-3.5","102","3","2022-11-17 12:30:42","fd252370c17a9971d68c1d4354a03c2e","","Mozilla/5.0 (Macintosh; Intel Mac OS X 10_15_7) AppleWebKit/605.1.15 (KHTML, like Gecko) Version/15.5 Safari/605.1.15","Macintosh","Safari","15.5","OS X","10_15_7","591","n","","bottlecap.jpg","3","Filler","true",""
"","","","","","fixation","57673","html-keyboard-response","59","63410","0.0-6.0-0.6","102","3","2022-11-17 12:30:42","fd252370c17a9971d68c1d4354a03c2e","","Mozilla/5.0 (Macintosh; Intel Mac OS X 10_15_7) AppleWebKit/605.1.15 (KHTML, like Gecko) Version/15.5 Safari/605.1.15","Macintosh","Safari","15.5","OS X","10_15_7","null","null","","<p style=""font-size: 48px;"">+</p>","3","Filler","",""
"","","","","","sentence","57673","html-keyboard-response","60","64151","0.0-6.0-1.6","102","3","2022-11-17 12:30:42","fd252370c17a9971d68c1d4354a03c2e","","Mozilla/5.0 (Macintosh; Intel Mac OS X 10_15_7) AppleWebKit/605.1.15 (KHTML, like Gecko) Version/15.5 Safari/605.1.15","Macintosh","Safari","15.5","OS X","10_15_7","738"," ","","A ring was placed on the newspaper","3","Filler","",""
"","","","","","fixation","57673","html-keyboard-response","61","64655","0.0-6.0-2.6","102","3","2022-11-17 12:30:42","fd252370c17a9971d68c1d4354a03c2e","","Mozilla/5.0 (Macintosh; Intel Mac OS X 10_15_7) AppleWebKit/605.1.15 (KHTML, like Gecko) Version/15.5 Safari/605.1.15","Macintosh","Safari","15.5","OS X","10_15_7","null","null","","<p style=""font-size: 48px;"">+</p>","3","Filler","",""
"","","","","","picture","57673","image-keyboard-response","62","65384","0.0-6.0-3.6","102","3","2022-11-17 12:30:42","fd252370c17a9971d68c1d4354a03c2e","","Mozilla/5.0 (Macintosh; Intel Mac OS X 10_15_7) AppleWebKit/605.1.15 (KHTML, like Gecko) Version/15.5 Safari/605.1.15","Macintosh","Safari","15.5","OS X","10_15_7","726","n","","cat.jpg","3","Filler","true",""
"","","","","","fixation","57673","html-keyboard-response","63","66387","0.0-6.0-0.7","102","3","2022-11-17 12:30:42","fd252370c17a9971d68c1d4354a03c2e","","Mozilla/5.0 (Macintosh; Intel Mac OS X 10_15_7) AppleWebKit/605.1.15 (KHTML, like Gecko) Version/15.5 Safari/605.1.15","Macintosh","Safari","15.5","OS X","10_15_7","null","null","","<p style=""font-size: 48px;"">+</p>","3","Filler","",""
"","","","","","sentence","57673","html-keyboard-response","64","67263","0.0-6.0-1.7","102","3","2022-11-17 12:30:42","fd252370c17a9971d68c1d4354a03c2e","","Mozilla/5.0 (Macintosh; Intel Mac OS X 10_15_7) AppleWebKit/605.1.15 (KHTML, like Gecko) Version/15.5 Safari/605.1.15","Macintosh","Safari","15.5","OS X","10_15_7","872"," ","","A cook is taking a knife","3","Filler","",""
"","","","","","fixation","57673","html-keyboard-response","65","67766","0.0-6.0-2.7","102","3","2022-11-17 12:30:42","fd252370c17a9971d68c1d4354a03c2e","","Mozilla/5.0 (Macintosh; Intel Mac OS X 10_15_7) AppleWebKit/605.1.15 (KHTML, like Gecko) Version/15.5 Safari/605.1.15","Macintosh","Safari","15.5","OS X","10_15_7","null","null","","<p style=""font-size: 48px;"">+</p>","3","Filler","",""
"","","","","","picture","57673","image-keyboard-response","66","68250","0.0-6.0-3.7","102","3","2022-11-17 12:30:42","fd252370c17a9971d68c1d4354a03c2e","","Mozilla/5.0 (Macintosh; Intel Mac OS X 10_15_7) AppleWebKit/605.1.15 (KHTML, like Gecko) Version/15.5 Safari/605.1.15","Macintosh","Safari","15.5","OS X","10_15_7","480","s","","knife.jpg","3","Filler","true",""
"","","","","","fixation","57673","html-keyboard-response","67","69254","0.0-6.0-0.8","102","3","2022-11-17 12:30:42","fd252370c17a9971d68c1d4354a03c2e","","Mozilla/5.0 (Macintosh; Intel Mac OS X 10_15_7) AppleWebKit/605.1.15 (KHTML, like Gecko) Version/15.5 Safari/605.1.15","Macintosh","Safari","15.5","OS X","10_15_7","null","null","","<p style=""font-size: 48px;"">+</p>","3","Filler","",""
"","","","","","sentence","57673","html-keyboard-response","68","70018","0.0-6.0-1.8","102","3","2022-11-17 12:30:42","fd252370c17a9971d68c1d4354a03c2e","","Mozilla/5.0 (Macintosh; Intel Mac OS X 10_15_7) AppleWebKit/605.1.15 (KHTML, like Gecko) Version/15.5 Safari/605.1.15","Macintosh","Safari","15.5","OS X","10_15_7","761"," ","","A cabbage was placed on the table","3","Filler","",""
"","","","","","fixation","57673","html-keyboard-response","69","70521","0.0-6.0-2.8","102","3","2022-11-17 12:30:42","fd252370c17a9971d68c1d4354a03c2e","","Mozilla/5.0 (Macintosh; Intel Mac OS X 10_15_7) AppleWebKit/605.1.15 (KHTML, like Gecko) Version/15.5 Safari/605.1.15","Macintosh","Safari","15.5","OS X","10_15_7","null","null","","<p style=""font-size: 48px;"">+</p>","3","Filler","",""
"","","","","","picture","57673","image-keyboard-response","70","71043","0.0-6.0-3.8","102","3","2022-11-17 12:30:42","fd252370c17a9971d68c1d4354a03c2e","","Mozilla/5.0 (Macintosh; Intel Mac OS X 10_15_7) AppleWebKit/605.1.15 (KHTML, like Gecko) Version/15.5 Safari/605.1.15","Macintosh","Safari","15.5","OS X","10_15_7","519","n","","ladder.jpg","3","Filler","true",""
"","","","","","fixation","57673","html-keyboard-response","71","72047","0.0-6.0-0.9","102","3","2022-11-17 12:30:42","fd252370c17a9971d68c1d4354a03c2e","","Mozilla/5.0 (Macintosh; Intel Mac OS X 10_15_7) AppleWebKit/605.1.15 (KHTML, like Gecko) Version/15.5 Safari/605.1.15","Macintosh","Safari","15.5","OS X","10_15_7","null","null","","<p style=""font-size: 48px;"">+</p>","3","Filler","",""
"","","","","","sentence","57673","html-keyboard-response","72","72772","0.0-6.0-1.9","102","3","2022-11-17 12:30:42","fd252370c17a9971d68c1d4354a03c2e","","Mozilla/5.0 (Macintosh; Intel Mac OS X 10_15_7) AppleWebKit/605.1.15 (KHTML, like Gecko) Version/15.5 Safari/605.1.15","Macintosh","Safari","15.5","OS X","10_15_7","722"," ","","A nurse is taking a syringe","3","Filler","",""
"","","","","","fixation","57673","html-keyboard-response","73","73275","0.0-6.0-2.9","102","3","2022-11-17 12:30:42","fd252370c17a9971d68c1d4354a03c2e","","Mozilla/5.0 (Macintosh; Intel Mac OS X 10_15_7) AppleWebKit/605.1.15 (KHTML, like Gecko) Version/15.5 Safari/605.1.15","Macintosh","Safari","15.5","OS X","10_15_7","null","null","","<p style=""font-size: 48px;"">+</p>","3","Filler","",""
"","","","","","picture","57673","image-keyboard-response","74","73888","0.0-6.0-3.9","102","3","2022-11-17 12:30:42","fd252370c17a9971d68c1d4354a03c2e","","Mozilla/5.0 (Macintosh; Intel Mac OS X 10_15_7) AppleWebKit/605.1.15 (KHTML, like Gecko) Version/15.5 Safari/605.1.15","Macintosh","Safari","15.5","OS X","10_15_7","609","n","","headphones.jpg","3","Filler","true",""
"","","","","","fixation","57673","html-keyboard-response","75","74894","0.0-6.0-0.10","102","3","2022-11-17 12:30:42","fd252370c17a9971d68c1d4354a03c2e","","Mozilla/5.0 (Macintosh; Intel Mac OS X 10_15_7) AppleWebKit/605.1.15 (KHTML, like Gecko) Version/15.5 Safari/605.1.15","Macintosh","Safari","15.5","OS X","10_15_7","null","null","","<p style=""font-size: 48px;"">+</p>","3","Filler","",""
"","","","","","sentence","57673","html-keyboard-response","76","75500","0.0-6.0-1.10","102","3","2022-11-17 12:30:42","fd252370c17a9971d68c1d4354a03c2e","","Mozilla/5.0 (Macintosh; Intel Mac OS X 10_15_7) AppleWebKit/605.1.15 (KHTML, like Gecko) Version/15.5 Safari/605.1.15","Macintosh","Safari","15.5","OS X","10_15_7","602"," ","","An elephant is eating a watermelon","3","Filler","",""
"","","","","","fixation","57673","html-keyboard-response","77","76004","0.0-6.0-2.10","102","3","2022-11-17 12:30:42","fd252370c17a9971d68c1d4354a03c2e","","Mozilla/5.0 (Macintosh; Intel Mac OS X 10_15_7) AppleWebKit/605.1.15 (KHTML, like Gecko) Version/15.5 Safari/605.1.15","Macintosh","Safari","15.5","OS X","10_15_7","null","null","","<p style=""font-size: 48px;"">+</p>","3","Filler","",""
"","","","","","picture","57673","image-keyboard-response","78","76625","0.0-6.0-3.10","102","3","2022-11-17 12:30:42","fd252370c17a9971d68c1d4354a03c2e","","Mozilla/5.0 (Macintosh; Intel Mac OS X 10_15_7) AppleWebKit/605.1.15 (KHTML, like Gecko) Version/15.5 Safari/605.1.15","Macintosh","Safari","15.5","OS X","10_15_7","617","s","","watermelon.jpg","3","Filler","true",""
"","","","","","fixation","57673","html-keyboard-response","79","77628","0.0-6.0-0.11","102","3","2022-11-17 12:30:42","fd252370c17a9971d68c1d4354a03c2e","","Mozilla/5.0 (Macintosh; Intel Mac OS X 10_15_7) AppleWebKit/605.1.15 (KHTML, like Gecko) Version/15.5 Safari/605.1.15","Macintosh","Safari","15.5","OS X","10_15_7","null","null","","<p style=""font-size: 48px;"">+</p>","3","Filler","",""
"","","","","","sentence","57673","html-keyboard-response","80","78164","0.0-6.0-1.11","102","3","2022-11-17 12:30:42","fd252370c17a9971d68c1d4354a03c2e","","Mozilla/5.0 (Macintosh; Intel Mac OS X 10_15_7) AppleWebKit/605.1.15 (KHTML, like Gecko) Version/15.5 Safari/605.1.15","Macintosh","Safari","15.5","OS X","10_15_7","532"," ","","A donkey is drinking water.","3","Filler","",""
"","","","","","fixation","57673","html-keyboard-response","81","78667","0.0-6.0-2.11","102","3","2022-11-17 12:30:42","fd252370c17a9971d68c1d4354a03c2e","","Mozilla/5.0 (Macintosh; Intel Mac OS X 10_15_7) AppleWebKit/605.1.15 (KHTML, like Gecko) Version/15.5 Safari/605.1.15","Macintosh","Safari","15.5","OS X","10_15_7","null","null","","<p style=""font-size: 48px;"">+</p>","3","Filler","",""
"","","","","","picture","57673","image-keyboard-response","82","79147","0.0-6.0-3.11","102","3","2022-11-17 12:30:42","fd252370c17a9971d68c1d4354a03c2e","","Mozilla/5.0 (Macintosh; Intel Mac OS X 10_15_7) AppleWebKit/605.1.15 (KHTML, like Gecko) Version/15.5 Safari/605.1.15","Macintosh","Safari","15.5","OS X","10_15_7","473","n","","couch.jpg","3","Filler","true",""
"","","","","","fixation","57673","html-keyboard-response","83","80151","0.0-6.0-0.12","102","3","2022-11-17 12:30:42","fd252370c17a9971d68c1d4354a03c2e","","Mozilla/5.0 (Macintosh; Intel Mac OS X 10_15_7) AppleWebKit/605.1.15 (KHTML, like Gecko) Version/15.5 Safari/605.1.15","Macintosh","Safari","15.5","OS X","10_15_7","null","null","","<p style=""font-size: 48px;"">+</p>","3","Filler","",""
"","","","","","sentence","57673","html-keyboard-response","84","80859","0.0-6.0-1.12","102","3","2022-11-17 12:30:42","fd252370c17a9971d68c1d4354a03c2e","","Mozilla/5.0 (Macintosh; Intel Mac OS X 10_15_7) AppleWebKit/605.1.15 (KHTML, like Gecko) Version/15.5 Safari/605.1.15","Macintosh","Safari","15.5","OS X","10_15_7","702"," ","","A cushion was placed on the magazine","3","Filler","",""
"","","","","","fixation","57673","html-keyboard-response","85","81363","0.0-6.0-2.12","102","3","2022-11-17 12:30:42","fd252370c17a9971d68c1d4354a03c2e","","Mozilla/5.0 (Macintosh; Intel Mac OS X 10_15_7) AppleWebKit/605.1.15 (KHTML, like Gecko) Version/15.5 Safari/605.1.15","Macintosh","Safari","15.5","OS X","10_15_7","null","null","","<p style=""font-size: 48px;"">+</p>","3","Filler","",""
"","","","","","picture","57673","image-keyboard-response","86","82021","0.0-6.0-3.12","102","3","2022-11-17 12:30:42","fd252370c17a9971d68c1d4354a03c2e","","Mozilla/5.0 (Macintosh; Intel Mac OS X 10_15_7) AppleWebKit/605.1.15 (KHTML, like Gecko) Version/15.5 Safari/605.1.15","Macintosh","Safari","15.5","OS X","10_15_7","654","n","","box.jpg","3","Filler","true",""
"","","","","","fixation","57673","html-keyboard-response","87","83025","0.0-6.0-0.13","102","3","2022-11-17 12:30:42","fd252370c17a9971d68c1d4354a03c2e","","Mozilla/5.0 (Macintosh; Intel Mac OS X 10_15_7) AppleWebKit/605.1.15 (KHTML, like Gecko) Version/15.5 Safari/605.1.15","Macintosh","Safari","15.5","OS X","10_15_7","null","null","","<p style=""font-size: 48px;"">+</p>","3","Heavy_Matched","",""
"","","","","","sentence","57673","html-keyboard-response","88","83749","0.0-6.0-1.13","102","3","2022-11-17 12:30:42","fd252370c17a9971d68c1d4354a03c2e","","Mozilla/5.0 (Macintosh; Intel Mac OS X 10_15_7) AppleWebKit/605.1.15 (KHTML, like Gecko) Version/15.5 Safari/605.1.15","Macintosh","Safari","15.5","OS X","10_15_7","721"," ","","A bowling ball dropped and smashed a donut","3","Heavy_Matched","",""
"","","","","","fixation","57673","html-keyboard-response","89","84255","0.0-6.0-2.13","102","3","2022-11-17 12:30:42","fd252370c17a9971d68c1d4354a03c2e","","Mozilla/5.0 (Macintosh; Intel Mac OS X 10_15_7) AppleWebKit/605.1.15 (KHTML, like Gecko) Version/15.5 Safari/605.1.15","Macintosh","Safari","15.5","OS X","10_15_7","null","null","","<p style=""font-size: 48px;"">+</p>","3","Heavy_Matched","",""
"","","","","","picture","57673","image-keyboard-response","90","84978","0.0-6.0-3.13","102","3","2022-11-17 12:30:42","fd252370c17a9971d68c1d4354a03c2e","","Mozilla/5.0 (Macintosh; Intel Mac OS X 10_15_7) AppleWebKit/605.1.15 (KHTML, like Gecko) Version/15.5 Safari/605.1.15","Macintosh","Safari","15.5","OS X","10_15_7","719","s","","donutS.jpg","3","Heavy_Matched","true",""
"","","","","","fixation","57673","html-keyboard-response","91","85983","0.0-6.0-0.14","102","3","2022-11-17 12:30:42","fd252370c17a9971d68c1d4354a03c2e","","Mozilla/5.0 (Macintosh; Intel Mac OS X 10_15_7) AppleWebKit/605.1.15 (KHTML, like Gecko) Version/15.5 Safari/605.1.15","Macintosh","Safari","15.5","OS X","10_15_7","null","null","","<p style=""font-size: 48px;"">+</p>","3","Light_Matched","",""
"","","","","","sentence","57673","html-keyboard-response","92","86714","0.0-6.0-1.14","102","3","2022-11-17 12:30:42","fd252370c17a9971d68c1d4354a03c2e","","Mozilla/5.0 (Macintosh; Intel Mac OS X 10_15_7) AppleWebKit/605.1.15 (KHTML, like Gecko) Version/15.5 Safari/605.1.15","Macintosh","Safari","15.5","OS X","10_15_7","726"," ","","A balloon dropped and touched a cracker","3","Light_Matched","",""
"","","","","","fixation","57673","html-keyboard-response","93","87218","0.0-6.0-2.14","102","3","2022-11-17 12:30:42","fd252370c17a9971d68c1d4354a03c2e","","Mozilla/5.0 (Macintosh; Intel Mac OS X 10_15_7) AppleWebKit/605.1.15 (KHTML, like Gecko) Version/15.5 Safari/605.1.15","Macintosh","Safari","15.5","OS X","10_15_7","null","null","","<p style=""font-size: 48px;"">+</p>","3","Light_Matched","",""
"","","","","","picture","57673","image-keyboard-response","94","87667","0.0-6.0-3.14","102","3","2022-11-17 12:30:42","fd252370c17a9971d68c1d4354a03c2e","","Mozilla/5.0 (Macintosh; Intel Mac OS X 10_15_7) AppleWebKit/605.1.15 (KHTML, like Gecko) Version/15.5 Safari/605.1.15","Macintosh","Safari","15.5","OS X","10_15_7","445","s","","crackerS.jpg","3","Light_Matched","true",""
"","","","","","fixation","57673","html-keyboard-response","95","88671","0.0-6.0-0.15","102","3","2022-11-17 12:30:42","fd252370c17a9971d68c1d4354a03c2e","","Mozilla/5.0 (Macintosh; Intel Mac OS X 10_15_7) AppleWebKit/605.1.15 (KHTML, like Gecko) Version/15.5 Safari/605.1.15","Macintosh","Safari","15.5","OS X","10_15_7","null","null","","<p style=""font-size: 48px;"">+</p>","3","Heavy_Matched","",""
"","","","","","sentence","57673","html-keyboard-response","96","90079","0.0-6.0-1.15","102","3","2022-11-17 12:30:42","fd252370c17a9971d68c1d4354a03c2e","","Mozilla/5.0 (Macintosh; Intel Mac OS X 10_15_7) AppleWebKit/605.1.15 (KHTML, like Gecko) Version/15.5 Safari/605.1.15","Macintosh","Safari","15.5","OS X","10_15_7","1404"," ","","A bowling ball dropped and smashed an iPhone","3","Heavy_Matched","",""
"","","","","","fixation","57673","html-keyboard-response","97","90582","0.0-6.0-2.15","102","3","2022-11-17 12:30:42","fd252370c17a9971d68c1d4354a03c2e","","Mozilla/5.0 (Macintosh; Intel Mac OS X 10_15_7) AppleWebKit/605.1.15 (KHTML, like Gecko) Version/15.5 Safari/605.1.15","Macintosh","Safari","15.5","OS X","10_15_7","null","null","","<p style=""font-size: 48px;"">+</p>","3","Heavy_Matched","",""
"","","","","","picture","57673","image-keyboard-response","98","90985","0.0-6.0-3.15","102","3","2022-11-17 12:30:42","fd252370c17a9971d68c1d4354a03c2e","","Mozilla/5.0 (Macintosh; Intel Mac OS X 10_15_7) AppleWebKit/605.1.15 (KHTML, like Gecko) Version/15.5 Safari/605.1.15","Macintosh","Safari","15.5","OS X","10_15_7","398","s","","iphoneS.png","3","Heavy_Matched","true",""
"","","","","","fixation","57673","html-keyboard-response","99","91988","0.0-6.0-0.16","102","3","2022-11-17 12:30:42","fd252370c17a9971d68c1d4354a03c2e","","Mozilla/5.0 (Macintosh; Intel Mac OS X 10_15_7) AppleWebKit/605.1.15 (KHTML, like Gecko) Version/15.5 Safari/605.1.15","Macintosh","Safari","15.5","OS X","10_15_7","null","null","","<p style=""font-size: 48px;"">+</p>","3","Heavy_Matched","",""
"","","","","","sentence","57673","html-keyboard-response","100","92925","0.0-6.0-1.16","102","3","2022-11-17 12:30:42","fd252370c17a9971d68c1d4354a03c2e","","Mozilla/5.0 (Macintosh; Intel Mac OS X 10_15_7) AppleWebKit/605.1.15 (KHTML, like Gecko) Version/15.5 Safari/605.1.15","Macintosh","Safari","15.5","OS X","10_15_7","932"," ","","A bowling ball dropped and smashed a chocolate muffin","3","Heavy_Matched","",""
"","","","","","fixation","57673","html-keyboard-response","101","93429","0.0-6.0-2.16","102","3","2022-11-17 12:30:42","fd252370c17a9971d68c1d4354a03c2e","","Mozilla/5.0 (Macintosh; Intel Mac OS X 10_15_7) AppleWebKit/605.1.15 (KHTML, like Gecko) Version/15.5 Safari/605.1.15","Macintosh","Safari","15.5","OS X","10_15_7","null","null","","<p style=""font-size: 48px;"">+</p>","3","Heavy_Matched","",""
"","","","","","picture","57673","image-keyboard-response","102","93806","0.0-6.0-3.16","102","3","2022-11-17 12:30:42","fd252370c17a9971d68c1d4354a03c2e","","Mozilla/5.0 (Macintosh; Intel Mac OS X 10_15_7) AppleWebKit/605.1.15 (KHTML, like Gecko) Version/15.5 Safari/605.1.15","Macintosh","Safari","15.5","OS X","10_15_7","373","s","","muffinS.jpg","3","Heavy_Matched","true",""
"","","","","","fixation","57673","html-keyboard-response","103","94811","0.0-6.0-0.17","102","3","2022-11-17 12:30:42","fd252370c17a9971d68c1d4354a03c2e","","Mozilla/5.0 (Macintosh; Intel Mac OS X 10_15_7) AppleWebKit/605.1.15 (KHTML, like Gecko) Version/15.5 Safari/605.1.15","Macintosh","Safari","15.5","OS X","10_15_7","null","null","","<p style=""font-size: 48px;"">+</p>","3","Filler","",""
"","","","","","sentence","57673","html-keyboard-response","104","95483","0.0-6.0-1.17","102","3","2022-11-17 12:30:42","fd252370c17a9971d68c1d4354a03c2e","","Mozilla/5.0 (Macintosh; Intel Mac OS X 10_15_7) AppleWebKit/605.1.15 (KHTML, like Gecko) Version/15.5 Safari/605.1.15","Macintosh","Safari","15.5","OS X","10_15_7","666"," ","","A student is writing on a board","3","Filler","",""
"","","","","","fixation","57673","html-keyboard-response","105","95987","0.0-6.0-2.17","102","3","2022-11-17 12:30:42","fd252370c17a9971d68c1d4354a03c2e","","Mozilla/5.0 (Macintosh; Intel Mac OS X 10_15_7) AppleWebKit/605.1.15 (KHTML, like Gecko) Version/15.5 Safari/605.1.15","Macintosh","Safari","15.5","OS X","10_15_7","null","null","","<p style=""font-size: 48px;"">+</p>","3","Filler","",""
"","","","","","picture","57673","image-keyboard-response","106","96601","0.0-6.0-3.17","102","3","2022-11-17 12:30:42","fd252370c17a9971d68c1d4354a03c2e","","Mozilla/5.0 (Macintosh; Intel Mac OS X 10_15_7) AppleWebKit/605.1.15 (KHTML, like Gecko) Version/15.5 Safari/605.1.15","Macintosh","Safari","15.5","OS X","10_15_7","610","n","","owl.jpg","3","Filler","true",""
"","","","","","fixation","57673","html-keyboard-response","107","97605","0.0-6.0-0.18","102","3","2022-11-17 12:30:42","fd252370c17a9971d68c1d4354a03c2e","","Mozilla/5.0 (Macintosh; Intel Mac OS X 10_15_7) AppleWebKit/605.1.15 (KHTML, like Gecko) Version/15.5 Safari/605.1.15","Macintosh","Safari","15.5","OS X","10_15_7","null","null","","<p style=""font-size: 48px;"">+</p>","3","Filler","",""
"","","","","","sentence","57673","html-keyboard-response","108","98354","0.0-6.0-1.18","102","3","2022-11-17 12:30:42","fd252370c17a9971d68c1d4354a03c2e","","Mozilla/5.0 (Macintosh; Intel Mac OS X 10_15_7) AppleWebKit/605.1.15 (KHTML, like Gecko) Version/15.5 Safari/605.1.15","Macintosh","Safari","15.5","OS X","10_15_7","745"," ","","An astronaut is putting on a space suit","3","Filler","",""
"","","","","","fixation","57673","html-keyboard-response","109","98858","0.0-6.0-2.18","102","3","2022-11-17 12:30:42","fd252370c17a9971d68c1d4354a03c2e","","Mozilla/5.0 (Macintosh; Intel Mac OS X 10_15_7) AppleWebKit/605.1.15 (KHTML, like Gecko) Version/15.5 Safari/605.1.15","Macintosh","Safari","15.5","OS X","10_15_7","null","null","","<p style=""font-size: 48px;"">+</p>","3","Filler","",""
"","","","","","picture","57673","image-keyboard-response","110","99261","0.0-6.0-3.18","102","3","2022-11-17 12:30:42","fd252370c17a9971d68c1d4354a03c2e","","Mozilla/5.0 (Macintosh; Intel Mac OS X 10_15_7) AppleWebKit/605.1.15 (KHTML, like Gecko) Version/15.5 Safari/605.1.15","Macintosh","Safari","15.5","OS X","10_15_7","396","s","","spacesuit.jpg","3","Filler","true",""
"","","","","","fixation","57673","html-keyboard-response","111","100265","0.0-6.0-0.19","102","3","2022-11-17 12:30:42","fd252370c17a9971d68c1d4354a03c2e","","Mozilla/5.0 (Macintosh; Intel Mac OS X 10_15_7) AppleWebKit/605.1.15 (KHTML, like Gecko) Version/15.5 Safari/605.1.15","Macintosh","Safari","15.5","OS X","10_15_7","null","null","","<p style=""font-size: 48px;"">+</p>","3","Light_Contradictory","",""
"","","","","","sentence","57673","html-keyboard-response","112","101151","0.0-6.0-1.19","102","3","2022-11-17 12:30:42","fd252370c17a9971d68c1d4354a03c2e","","Mozilla/5.0 (Macintosh; Intel Mac OS X 10_15_7) AppleWebKit/605.1.15 (KHTML, like Gecko) Version/15.5 Safari/605.1.15","Macintosh","Safari","15.5","OS X","10_15_7","878"," ","","A balloon dropped and smashed a blackberry","3","Light_Contradictory","",""
"","","","","","fixation","57673","html-keyboard-response","113","101655","0.0-6.0-2.19","102","3","2022-11-17 12:30:42","fd252370c17a9971d68c1d4354a03c2e","","Mozilla/5.0 (Macintosh; Intel Mac OS X 10_15_7) AppleWebKit/605.1.15 (KHTML, like Gecko) Version/15.5 Safari/605.1.15","Macintosh","Safari","15.5","OS X","10_15_7","null","null","","<p style=""font-size: 48px;"">+</p>","3","Light_Contradictory","",""
"","","","","","picture","57673","image-keyboard-response","114","102042","0.0-6.0-3.19","102","3","2022-11-17 12:30:42","fd252370c17a9971d68c1d4354a03c2e","","Mozilla/5.0 (Macintosh; Intel Mac OS X 10_15_7) AppleWebKit/605.1.15 (KHTML, like Gecko) Version/15.5 Safari/605.1.15","Macintosh","Safari","15.5","OS X","10_15_7","383","s","","blackberryS.jpg","3","Light_Contradictory","true",""
"","","","","","fixation","57673","html-keyboard-response","115","103046","0.0-6.0-0.20","102","3","2022-11-17 12:30:42","fd252370c17a9971d68c1d4354a03c2e","","Mozilla/5.0 (Macintosh; Intel Mac OS X 10_15_7) AppleWebKit/605.1.15 (KHTML, like Gecko) Version/15.5 Safari/605.1.15","Macintosh","Safari","15.5","OS X","10_15_7","null","null","","<p style=""font-size: 48px;"">+</p>","3","Heavy_Contradictory","",""
"","","","","","sentence","57673","html-keyboard-response","116","104763","0.0-6.0-1.20","102","3","2022-11-17 12:30:42","fd252370c17a9971d68c1d4354a03c2e","","Mozilla/5.0 (Macintosh; Intel Mac OS X 10_15_7) AppleWebKit/605.1.15 (KHTML, like Gecko) Version/15.5 Safari/605.1.15","Macintosh","Safari","15.5","OS X","10_15_7","1711"," ","","A bowling ball dropped and touched a tile","3","Heavy_Contradictory","",""
"","","","","","fixation","57673","html-keyboard-response","117","105267","0.0-6.0-2.20","102","3","2022-11-17 12:30:42","fd252370c17a9971d68c1d4354a03c2e","","Mozilla/5.0 (Macintosh; Intel Mac OS X 10_15_7) AppleWebKit/605.1.15 (KHTML, like Gecko) Version/15.5 Safari/605.1.15","Macintosh","Safari","15.5","OS X","10_15_7","null","null","","<p style=""font-size: 48px;"">+</p>","3","Heavy_Contradictory","",""
"","","","","","picture","57673","image-keyboard-response","118","105662","0.0-6.0-3.20","102","3","2022-11-17 12:30:42","fd252370c17a9971d68c1d4354a03c2e","","Mozilla/5.0 (Macintosh; Intel Mac OS X 10_15_7) AppleWebKit/605.1.15 (KHTML, like Gecko) Version/15.5 Safari/605.1.15","Macintosh","Safari","15.5","OS X","10_15_7","391","s","","tileS.jpg","3","Heavy_Contradictory","true",""
"","","","","","fixation","57673","html-keyboard-response","119","106667","0.0-6.0-0.21","102","3","2022-11-17 12:30:42","fd252370c17a9971d68c1d4354a03c2e","","Mozilla/5.0 (Macintosh; Intel Mac OS X 10_15_7) AppleWebKit/605.1.15 (KHTML, like Gecko) Version/15.5 Safari/605.1.15","Macintosh","Safari","15.5","OS X","10_15_7","null","null","","<p style=""font-size: 48px;"">+</p>","3","Filler","",""
"","","","","","sentence","57673","html-keyboard-response","120","107277","0.0-6.0-1.21","102","3","2022-11-17 12:30:42","fd252370c17a9971d68c1d4354a03c2e","","Mozilla/5.0 (Macintosh; Intel Mac OS X 10_15_7) AppleWebKit/605.1.15 (KHTML, like Gecko) Version/15.5 Safari/605.1.15","Macintosh","Safari","15.5","OS X","10_15_7","606"," ","","A cat is drinking water from a bowl","3","Filler","",""
"","","","","","fixation","57673","html-keyboard-response","121","107781","0.0-6.0-2.21","102","3","2022-11-17 12:30:42","fd252370c17a9971d68c1d4354a03c2e","","Mozilla/5.0 (Macintosh; Intel Mac OS X 10_15_7) AppleWebKit/605.1.15 (KHTML, like Gecko) Version/15.5 Safari/605.1.15","Macintosh","Safari","15.5","OS X","10_15_7","null","null","","<p style=""font-size: 48px;"">+</p>","3","Filler","",""
"","","","","","picture","57673","image-keyboard-response","122","108479","0.0-6.0-3.21","102","3","2022-11-17 12:30:42","fd252370c17a9971d68c1d4354a03c2e","","Mozilla/5.0 (Macintosh; Intel Mac OS X 10_15_7) AppleWebKit/605.1.15 (KHTML, like Gecko) Version/15.5 Safari/605.1.15","Macintosh","Safari","15.5","OS X","10_15_7","691","s","","bowl.jpg","3","Filler","true",""
"","","","","","fixation","57673","html-keyboard-response","123","109483","0.0-6.0-0.22","102","3","2022-11-17 12:30:42","fd252370c17a9971d68c1d4354a03c2e","","Mozilla/5.0 (Macintosh; Intel Mac OS X 10_15_7) AppleWebKit/605.1.15 (KHTML, like Gecko) Version/15.5 Safari/605.1.15","Macintosh","Safari","15.5","OS X","10_15_7","null","null","","<p style=""font-size: 48px;"">+</p>","3","Filler","",""
"","","","","","sentence","57673","html-keyboard-response","124","110258","0.0-6.0-1.22","102","3","2022-11-17 12:30:42","fd252370c17a9971d68c1d4354a03c2e","","Mozilla/5.0 (Macintosh; Intel Mac OS X 10_15_7) AppleWebKit/605.1.15 (KHTML, like Gecko) Version/15.5 Safari/605.1.15","Macintosh","Safari","15.5","OS X","10_15_7","768"," ","","A needle was placed on the mouse pad","3","Filler","",""
"","","","","","fixation","57673","html-keyboard-response","125","110762","0.0-6.0-2.22","102","3","2022-11-17 12:30:42","fd252370c17a9971d68c1d4354a03c2e","","Mozilla/5.0 (Macintosh; Intel Mac OS X 10_15_7) AppleWebKit/605.1.15 (KHTML, like Gecko) Version/15.5 Safari/605.1.15","Macintosh","Safari","15.5","OS X","10_15_7","null","null","","<p style=""font-size: 48px;"">+</p>","3","Filler","",""
"","","","","","picture","57673","image-keyboard-response","126","111681","0.0-6.0-3.22","102","3","2022-11-17 12:30:42","fd252370c17a9971d68c1d4354a03c2e","","Mozilla/5.0 (Macintosh; Intel Mac OS X 10_15_7) AppleWebKit/605.1.15 (KHTML, like Gecko) Version/15.5 Safari/605.1.15","Macintosh","Safari","15.5","OS X","10_15_7","915","n","","chocolate.jpg","3","Filler","true",""
"","","","","","fixation","57673","html-keyboard-response","127","112685","0.0-6.0-0.23","102","3","2022-11-17 12:30:42","fd252370c17a9971d68c1d4354a03c2e","","Mozilla/5.0 (Macintosh; Intel Mac OS X 10_15_7) AppleWebKit/605.1.15 (KHTML, like Gecko) Version/15.5 Safari/605.1.15","Macintosh","Safari","15.5","OS X","10_15_7","null","null","","<p style=""font-size: 48px;"">+</p>","3","Heavy_Matched","",""
"","","","","","sentence","57673","html-keyboard-response","128","114579","0.0-6.0-1.23","102","3","2022-11-17 12:30:42","fd252370c17a9971d68c1d4354a03c2e","","Mozilla/5.0 (Macintosh; Intel Mac OS X 10_15_7) AppleWebKit/605.1.15 (KHTML, like Gecko) Version/15.5 Safari/605.1.15","Macintosh","Safari","15.5","OS X","10_15_7","1889"," ","","A bowling ball dropped and smashed a rice cake","3","Heavy_Matched","",""
"","","","","","fixation","57673","html-keyboard-response","129","115083","0.0-6.0-2.23","102","3","2022-11-17 12:30:42","fd252370c17a9971d68c1d4354a03c2e","","Mozilla/5.0 (Macintosh; Intel Mac OS X 10_15_7) AppleWebKit/605.1.15 (KHTML, like Gecko) Version/15.5 Safari/605.1.15","Macintosh","Safari","15.5","OS X","10_15_7","null","null","","<p style=""font-size: 48px;"">+</p>","3","Heavy_Matched","",""
"","","","","","picture","57673","image-keyboard-response","130","115503","0.0-6.0-3.23","102","3","2022-11-17 12:30:42","fd252370c17a9971d68c1d4354a03c2e","","Mozilla/5.0 (Macintosh; Intel Mac OS X 10_15_7) AppleWebKit/605.1.15 (KHTML, like Gecko) Version/15.5 Safari/605.1.15","Macintosh","Safari","15.5","OS X","10_15_7","415","s","","tortitaS.jpg","3","Heavy_Matched","true",""
"","","","","","fixation","57673","html-keyboard-response","131","116507","0.0-6.0-0.24","102","3","2022-11-17 12:30:42","fd252370c17a9971d68c1d4354a03c2e","","Mozilla/5.0 (Macintosh; Intel Mac OS X 10_15_7) AppleWebKit/605.1.15 (KHTML, like Gecko) Version/15.5 Safari/605.1.15","Macintosh","Safari","15.5","OS X","10_15_7","null","null","","<p style=""font-size: 48px;"">+</p>","3","Light_Matched","",""
"","","","","","sentence","57673","html-keyboard-response","132","117609","0.0-6.0-1.24","102","3","2022-11-17 12:30:42","fd252370c17a9971d68c1d4354a03c2e","","Mozilla/5.0 (Macintosh; Intel Mac OS X 10_15_7) AppleWebKit/605.1.15 (KHTML, like Gecko) Version/15.5 Safari/605.1.15","Macintosh","Safari","15.5","OS X","10_15_7","1097"," ","","A balloon dropped and touched a piece of cake","3","Light_Matched","",""
"","","","","","fixation","57673","html-keyboard-response","133","118113","0.0-6.0-2.24","102","3","2022-11-17 12:30:42","fd252370c17a9971d68c1d4354a03c2e","","Mozilla/5.0 (Macintosh; Intel Mac OS X 10_15_7) AppleWebKit/605.1.15 (KHTML, like Gecko) Version/15.5 Safari/605.1.15","Macintosh","Safari","15.5","OS X","10_15_7","null","null","","<p style=""font-size: 48px;"">+</p>","3","Light_Matched","",""
"","","","","","picture","57673","image-keyboard-response","134","118739","0.0-6.0-3.24","102","3","2022-11-17 12:30:42","fd252370c17a9971d68c1d4354a03c2e","","Mozilla/5.0 (Macintosh; Intel Mac OS X 10_15_7) AppleWebKit/605.1.15 (KHTML, like Gecko) Version/15.5 Safari/605.1.15","Macintosh","Safari","15.5","OS X","10_15_7","621","s","","cakeS.jpg","3","Light_Matched","true",""
"","","","","","fixation","57673","html-keyboard-response","135","119743","0.0-6.0-0.25","102","3","2022-11-17 12:30:42","fd252370c17a9971d68c1d4354a03c2e","","Mozilla/5.0 (Macintosh; Intel Mac OS X 10_15_7) AppleWebKit/605.1.15 (KHTML, like Gecko) Version/15.5 Safari/605.1.15","Macintosh","Safari","15.5","OS X","10_15_7","null","null","","<p style=""font-size: 48px;"">+</p>","3","Filler","",""
"","","","","","sentence","57673","html-keyboard-response","136","120723","0.0-6.0-1.25","102","3","2022-11-17 12:30:42","fd252370c17a9971d68c1d4354a03c2e","","Mozilla/5.0 (Macintosh; Intel Mac OS X 10_15_7) AppleWebKit/605.1.15 (KHTML, like Gecko) Version/15.5 Safari/605.1.15","Macintosh","Safari","15.5","OS X","10_15_7","976"," ","","A president is writing in the notebook","3","Filler","",""
"","","","","","fixation","57673","html-keyboard-response","137","121227","0.0-6.0-2.25","102","3","2022-11-17 12:30:42","fd252370c17a9971d68c1d4354a03c2e","","Mozilla/5.0 (Macintosh; Intel Mac OS X 10_15_7) AppleWebKit/605.1.15 (KHTML, like Gecko) Version/15.5 Safari/605.1.15","Macintosh","Safari","15.5","OS X","10_15_7","null","null","","<p style=""font-size: 48px;"">+</p>","3","Filler","",""
"","","","","","picture","57673","image-keyboard-response","138","122281","0.0-6.0-3.25","102","3","2022-11-17 12:30:42","fd252370c17a9971d68c1d4354a03c2e","","Mozilla/5.0 (Macintosh; Intel Mac OS X 10_15_7) AppleWebKit/605.1.15 (KHTML, like Gecko) Version/15.5 Safari/605.1.15","Macintosh","Safari","15.5","OS X","10_15_7","1046","n","","can.jpg","3","Filler","true",""
"","","","","","fixation","57673","html-keyboard-response","139","123286","0.0-6.0-0.26","102","3","2022-11-17 12:30:42","fd252370c17a9971d68c1d4354a03c2e","","Mozilla/5.0 (Macintosh; Intel Mac OS X 10_15_7) AppleWebKit/605.1.15 (KHTML, like Gecko) Version/15.5 Safari/605.1.15","Macintosh","Safari","15.5","OS X","10_15_7","null","null","","<p style=""font-size: 48px;"">+</p>","3","Filler","",""
"","","","","","sentence","57673","html-keyboard-response","140","124322","0.0-6.0-1.26","102","3","2022-11-17 12:30:42","fd252370c17a9971d68c1d4354a03c2e","","Mozilla/5.0 (Macintosh; Intel Mac OS X 10_15_7) AppleWebKit/605.1.15 (KHTML, like Gecko) Version/15.5 Safari/605.1.15","Macintosh","Safari","15.5","OS X","10_15_7","1032"," ","","A butterfly is sitting on a flower","3","Filler","",""
"","","","","","fixation","57673","html-keyboard-response","141","124826","0.0-6.0-2.26","102","3","2022-11-17 12:30:42","fd252370c17a9971d68c1d4354a03c2e","","Mozilla/5.0 (Macintosh; Intel Mac OS X 10_15_7) AppleWebKit/605.1.15 (KHTML, like Gecko) Version/15.5 Safari/605.1.15","Macintosh","Safari","15.5","OS X","10_15_7","null","null","","<p style=""font-size: 48px;"">+</p>","3","Filler","",""
"","","","","","picture","57673","image-keyboard-response","142","125559","0.0-6.0-3.26","102","3","2022-11-17 12:30:42","fd252370c17a9971d68c1d4354a03c2e","","Mozilla/5.0 (Macintosh; Intel Mac OS X 10_15_7) AppleWebKit/605.1.15 (KHTML, like Gecko) Version/15.5 Safari/605.1.15","Macintosh","Safari","15.5","OS X","10_15_7","727","n","","soap.jpg","3","Filler","true",""
"","","","","","fixation","57673","html-keyboard-response","143","126563","0.0-6.0-0.27","102","3","2022-11-17 12:30:42","fd252370c17a9971d68c1d4354a03c2e","","Mozilla/5.0 (Macintosh; Intel Mac OS X 10_15_7) AppleWebKit/605.1.15 (KHTML, like Gecko) Version/15.5 Safari/605.1.15","Macintosh","Safari","15.5","OS X","10_15_7","null","null","","<p style=""font-size: 48px;"">+</p>","3","Filler","",""
"","","","","","sentence","57673","html-keyboard-response","144","127201","0.0-6.0-1.27","102","3","2022-11-17 12:30:42","fd252370c17a9971d68c1d4354a03c2e","","Mozilla/5.0 (Macintosh; Intel Mac OS X 10_15_7) AppleWebKit/605.1.15 (KHTML, like Gecko) Version/15.5 Safari/605.1.15","Macintosh","Safari","15.5","OS X","10_15_7","630"," ","","A doctor is taking a stethoscope","3","Filler","",""
"","","","","","fixation","57673","html-keyboard-response","145","127705","0.0-6.0-2.27","102","3","2022-11-17 12:30:42","fd252370c17a9971d68c1d4354a03c2e","","Mozilla/5.0 (Macintosh; Intel Mac OS X 10_15_7) AppleWebKit/605.1.15 (KHTML, like Gecko) Version/15.5 Safari/605.1.15","Macintosh","Safari","15.5","OS X","10_15_7","null","null","","<p style=""font-size: 48px;"">+</p>","3","Filler","",""
"","","","","","picture","57673","image-keyboard-response","146","128286","0.0-6.0-3.27","102","3","2022-11-17 12:30:42","fd252370c17a9971d68c1d4354a03c2e","","Mozilla/5.0 (Macintosh; Intel Mac OS X 10_15_7) AppleWebKit/605.1.15 (KHTML, like Gecko) Version/15.5 Safari/605.1.15","Macintosh","Safari","15.5","OS X","10_15_7","577","n","","matchesbox.jpg","3","Filler","true",""
"","","","","","fixation","57673","html-keyboard-response","147","129290","0.0-6.0-0.28","102","3","2022-11-17 12:30:42","fd252370c17a9971d68c1d4354a03c2e","","Mozilla/5.0 (Macintosh; Intel Mac OS X 10_15_7) AppleWebKit/605.1.15 (KHTML, like Gecko) Version/15.5 Safari/605.1.15","Macintosh","Safari","15.5","OS X","10_15_7","null","null","","<p style=""font-size: 48px;"">+</p>","3","Filler","",""
"","","","","","sentence","57673","html-keyboard-response","148","129879","0.0-6.0-1.28","102","3","2022-11-17 12:30:42","fd252370c17a9971d68c1d4354a03c2e","","Mozilla/5.0 (Macintosh; Intel Mac OS X 10_15_7) AppleWebKit/605.1.15 (KHTML, like Gecko) Version/15.5 Safari/605.1.15","Macintosh","Safari","15.5","OS X","10_15_7","587"," ","","An owl is sitting on the branch","3","Filler","",""
"","","","","","fixation","57673","html-keyboard-response","149","130383","0.0-6.0-2.28","102","3","2022-11-17 12:30:42","fd252370c17a9971d68c1d4354a03c2e","","Mozilla/5.0 (Macintosh; Intel Mac OS X 10_15_7) AppleWebKit/605.1.15 (KHTML, like Gecko) Version/15.5 Safari/605.1.15","Macintosh","Safari","15.5","OS X","10_15_7","null","null","","<p style=""font-size: 48px;"">+</p>","3","Filler","",""
"","","","","","picture","57673","image-keyboard-response","150","130974","0.0-6.0-3.28","102","3","2022-11-17 12:30:42","fd252370c17a9971d68c1d4354a03c2e","","Mozilla/5.0 (Macintosh; Intel Mac OS X 10_15_7) AppleWebKit/605.1.15 (KHTML, like Gecko) Version/15.5 Safari/605.1.15","Macintosh","Safari","15.5","OS X","10_15_7","581","n","","rubberduck.jpg","3","Filler","true",""
"","","","","","fixation","57673","html-keyboard-response","151","131978","0.0-6.0-0.29","102","3","2022-11-17 12:30:42","fd252370c17a9971d68c1d4354a03c2e","","Mozilla/5.0 (Macintosh; Intel Mac OS X 10_15_7) AppleWebKit/605.1.15 (KHTML, like Gecko) Version/15.5 Safari/605.1.15","Macintosh","Safari","15.5","OS X","10_15_7","null","null","","<p style=""font-size: 48px;"">+</p>","3","Filler","",""
"","","","","","sentence","57673","html-keyboard-response","152","132589","0.0-6.0-1.29","102","3","2022-11-17 12:30:42","fd252370c17a9971d68c1d4354a03c2e","","Mozilla/5.0 (Macintosh; Intel Mac OS X 10_15_7) AppleWebKit/605.1.15 (KHTML, like Gecko) Version/15.5 Safari/605.1.15","Macintosh","Safari","15.5","OS X","10_15_7","606"," ","","A panda is resting on a tree","3","Filler","",""
"","","","","","fixation","57673","html-keyboard-response","153","133094","0.0-6.0-2.29","102","3","2022-11-17 12:30:42","fd252370c17a9971d68c1d4354a03c2e","","Mozilla/5.0 (Macintosh; Intel Mac OS X 10_15_7) AppleWebKit/605.1.15 (KHTML, like Gecko) Version/15.5 Safari/605.1.15","Macintosh","Safari","15.5","OS X","10_15_7","null","null","","<p style=""font-size: 48px;"">+</p>","3","Filler","",""
"","","","","","picture","57673","image-keyboard-response","154","133556","0.0-6.0-3.29","102","3","2022-11-17 12:30:42","fd252370c17a9971d68c1d4354a03c2e","","Mozilla/5.0 (Macintosh; Intel Mac OS X 10_15_7) AppleWebKit/605.1.15 (KHTML, like Gecko) Version/15.5 Safari/605.1.15","Macintosh","Safari","15.5","OS X","10_15_7","455","n","","dollar.jpg","3","Filler","true",""
"","","","","","fixation","57673","html-keyboard-response","155","134561","0.0-6.0-0.30","102","3","2022-11-17 12:30:42","fd252370c17a9971d68c1d4354a03c2e","","Mozilla/5.0 (Macintosh; Intel Mac OS X 10_15_7) AppleWebKit/605.1.15 (KHTML, like Gecko) Version/15.5 Safari/605.1.15","Macintosh","Safari","15.5","OS X","10_15_7","null","null","","<p style=""font-size: 48px;"">+</p>","3","Filler","",""
"","","","","","sentence","57673","html-keyboard-response","156","135320","0.0-6.0-1.30","102","3","2022-11-17 12:30:42","fd252370c17a9971d68c1d4354a03c2e","","Mozilla/5.0 (Macintosh; Intel Mac OS X 10_15_7) AppleWebKit/605.1.15 (KHTML, like Gecko) Version/15.5 Safari/605.1.15","Macintosh","Safari","15.5","OS X","10_15_7","754"," ","","A thermometer was placed on the box","3","Filler","",""
"","","","","","fixation","57673","html-keyboard-response","157","135825","0.0-6.0-2.30","102","3","2022-11-17 12:30:42","fd252370c17a9971d68c1d4354a03c2e","","Mozilla/5.0 (Macintosh; Intel Mac OS X 10_15_7) AppleWebKit/605.1.15 (KHTML, like Gecko) Version/15.5 Safari/605.1.15","Macintosh","Safari","15.5","OS X","10_15_7","null","null","","<p style=""font-size: 48px;"">+</p>","3","Filler","",""
"","","","","","picture","57673","image-keyboard-response","158","136419","0.0-6.0-3.30","102","3","2022-11-17 12:30:42","fd252370c17a9971d68c1d4354a03c2e","","Mozilla/5.0 (Macintosh; Intel Mac OS X 10_15_7) AppleWebKit/605.1.15 (KHTML, like Gecko) Version/15.5 Safari/605.1.15","Macintosh","Safari","15.5","OS X","10_15_7","589","n","","button.jpg","3","Filler","true",""
"","","","","","fixation","57673","html-keyboard-response","159","137423","0.0-6.0-0.31","102","3","2022-11-17 12:30:42","fd252370c17a9971d68c1d4354a03c2e","","Mozilla/5.0 (Macintosh; Intel Mac OS X 10_15_7) AppleWebKit/605.1.15 (KHTML, like Gecko) Version/15.5 Safari/605.1.15","Macintosh","Safari","15.5","OS X","10_15_7","null","null","","<p style=""font-size: 48px;"">+</p>","3","Filler","",""
"","","","","","sentence","57673","html-keyboard-response","160","137974","0.0-6.0-1.31","102","3","2022-11-17 12:30:42","fd252370c17a9971d68c1d4354a03c2e","","Mozilla/5.0 (Macintosh; Intel Mac OS X 10_15_7) AppleWebKit/605.1.15 (KHTML, like Gecko) Version/15.5 Safari/605.1.15","Macintosh","Safari","15.5","OS X","10_15_7","543"," ","","A pilot is reading a book","3","Filler","",""
"","","","","","fixation","57673","html-keyboard-response","161","138479","0.0-6.0-2.31","102","3","2022-11-17 12:30:42","fd252370c17a9971d68c1d4354a03c2e","","Mozilla/5.0 (Macintosh; Intel Mac OS X 10_15_7) AppleWebKit/605.1.15 (KHTML, like Gecko) Version/15.5 Safari/605.1.15","Macintosh","Safari","15.5","OS X","10_15_7","null","null","","<p style=""font-size: 48px;"">+</p>","3","Filler","",""
"","","","","","picture","57673","image-keyboard-response","162","139014","0.0-6.0-3.31","102","3","2022-11-17 12:30:42","fd252370c17a9971d68c1d4354a03c2e","","Mozilla/5.0 (Macintosh; Intel Mac OS X 10_15_7) AppleWebKit/605.1.15 (KHTML, like Gecko) Version/15.5 Safari/605.1.15","Macintosh","Safari","15.5","OS X","10_15_7","529","n","","spoon.jpg","3","Filler","true",""
"","","","","","fixation","57673","html-keyboard-response","163","140018","0.0-6.0-0.32","102","3","2022-11-17 12:30:42","fd252370c17a9971d68c1d4354a03c2e","","Mozilla/5.0 (Macintosh; Intel Mac OS X 10_15_7) AppleWebKit/605.1.15 (KHTML, like Gecko) Version/15.5 Safari/605.1.15","Macintosh","Safari","15.5","OS X","10_15_7","null","null","","<p style=""font-size: 48px;"">+</p>","3","Filler","",""
"","","","","","sentence","57673","html-keyboard-response","164","140688","0.0-6.0-1.32","102","3","2022-11-17 12:30:42","fd252370c17a9971d68c1d4354a03c2e","","Mozilla/5.0 (Macintosh; Intel Mac OS X 10_15_7) AppleWebKit/605.1.15 (KHTML, like Gecko) Version/15.5 Safari/605.1.15","Macintosh","Safari","15.5","OS X","10_15_7","661"," ","","A mouse is eating cheese","3","Filler","",""
"","","","","","fixation","57673","html-keyboard-response","165","141193","0.0-6.0-2.32","102","3","2022-11-17 12:30:42","fd252370c17a9971d68c1d4354a03c2e","","Mozilla/5.0 (Macintosh; Intel Mac OS X 10_15_7) AppleWebKit/605.1.15 (KHTML, like Gecko) Version/15.5 Safari/605.1.15","Macintosh","Safari","15.5","OS X","10_15_7","null","null","","<p style=""font-size: 48px;"">+</p>","3","Filler","",""
"","","","","","picture","57673","image-keyboard-response","166","141753","0.0-6.0-3.32","102","3","2022-11-17 12:30:42","fd252370c17a9971d68c1d4354a03c2e","","Mozilla/5.0 (Macintosh; Intel Mac OS X 10_15_7) AppleWebKit/605.1.15 (KHTML, like Gecko) Version/15.5 Safari/605.1.15","Macintosh","Safari","15.5","OS X","10_15_7","552","n","","ring.jpg","3","Filler","true",""
"","","","","","fixation","57673","html-keyboard-response","167","142758","0.0-6.0-0.33","102","3","2022-11-17 12:30:42","fd252370c17a9971d68c1d4354a03c2e","","Mozilla/5.0 (Macintosh; Intel Mac OS X 10_15_7) AppleWebKit/605.1.15 (KHTML, like Gecko) Version/15.5 Safari/605.1.15","Macintosh","Safari","15.5","OS X","10_15_7","null","null","","<p style=""font-size: 48px;"">+</p>","3","Filler","",""
"","","","","","sentence","57673","html-keyboard-response","168","143441","0.0-6.0-1.33","102","3","2022-11-17 12:30:42","fd252370c17a9971d68c1d4354a03c2e","","Mozilla/5.0 (Macintosh; Intel Mac OS X 10_15_7) AppleWebKit/605.1.15 (KHTML, like Gecko) Version/15.5 Safari/605.1.15","Macintosh","Safari","15.5","OS X","10_15_7","678"," ","","A dentist is drinking a can of cola","3","Filler","",""
"","","","","","fixation","57673","html-keyboard-response","169","143946","0.0-6.0-2.33","102","3","2022-11-17 12:30:42","fd252370c17a9971d68c1d4354a03c2e","","Mozilla/5.0 (Macintosh; Intel Mac OS X 10_15_7) AppleWebKit/605.1.15 (KHTML, like Gecko) Version/15.5 Safari/605.1.15","Macintosh","Safari","15.5","OS X","10_15_7","null","null","","<p style=""font-size: 48px;"">+</p>","3","Filler","",""
"","","","","","picture","57673","image-keyboard-response","170","144527","0.0-6.0-3.33","102","3","2022-11-17 12:30:42","fd252370c17a9971d68c1d4354a03c2e","","Mozilla/5.0 (Macintosh; Intel Mac OS X 10_15_7) AppleWebKit/605.1.15 (KHTML, like Gecko) Version/15.5 Safari/605.1.15","Macintosh","Safari","15.5","OS X","10_15_7","576","n","","doll.jpg","3","Filler","true",""
"","","","","","fixation","57673","html-keyboard-response","171","145532","0.0-6.0-0.34","102","3","2022-11-17 12:30:42","fd252370c17a9971d68c1d4354a03c2e","","Mozilla/5.0 (Macintosh; Intel Mac OS X 10_15_7) AppleWebKit/605.1.15 (KHTML, like Gecko) Version/15.5 Safari/605.1.15","Macintosh","Safari","15.5","OS X","10_15_7","null","null","","<p style=""font-size: 48px;"">+</p>","3","Filler","",""
"","","","","","sentence","57673","html-keyboard-response","172","146077","0.0-6.0-1.34","102","3","2022-11-17 12:30:42","fd252370c17a9971d68c1d4354a03c2e","","Mozilla/5.0 (Macintosh; Intel Mac OS X 10_15_7) AppleWebKit/605.1.15 (KHTML, like Gecko) Version/15.5 Safari/605.1.15","Macintosh","Safari","15.5","OS X","10_15_7","539"," ","","An actress is taking a microphone","3","Filler","",""
"","","","","","fixation","57673","html-keyboard-response","173","146581","0.0-6.0-2.34","102","3","2022-11-17 12:30:42","fd252370c17a9971d68c1d4354a03c2e","","Mozilla/5.0 (Macintosh; Intel Mac OS X 10_15_7) AppleWebKit/605.1.15 (KHTML, like Gecko) Version/15.5 Safari/605.1.15","Macintosh","Safari","15.5","OS X","10_15_7","null","null","","<p style=""font-size: 48px;"">+</p>","3","Filler","",""
"","","","","","picture","57673","image-keyboard-response","174","147116","0.0-6.0-3.34","102","3","2022-11-17 12:30:42","fd252370c17a9971d68c1d4354a03c2e","","Mozilla/5.0 (Macintosh; Intel Mac OS X 10_15_7) AppleWebKit/605.1.15 (KHTML, like Gecko) Version/15.5 Safari/605.1.15","Macintosh","Safari","15.5","OS X","10_15_7","526","n","","pants.jpg","3","Filler","true",""
"","","","","","fixation","57673","html-keyboard-response","175","148121","0.0-6.0-0.35","102","3","2022-11-17 12:30:42","fd252370c17a9971d68c1d4354a03c2e","","Mozilla/5.0 (Macintosh; Intel Mac OS X 10_15_7) AppleWebKit/605.1.15 (KHTML, like Gecko) Version/15.5 Safari/605.1.15","Macintosh","Safari","15.5","OS X","10_15_7","null","null","","<p style=""font-size: 48px;"">+</p>","3","Heavy_Matched","",""
"","","","","","sentence","57673","html-keyboard-response","176","148981","0.0-6.0-1.35","102","3","2022-11-17 12:30:42","fd252370c17a9971d68c1d4354a03c2e","","Mozilla/5.0 (Macintosh; Intel Mac OS X 10_15_7) AppleWebKit/605.1.15 (KHTML, like Gecko) Version/15.5 Safari/605.1.15","Macintosh","Safari","15.5","OS X","10_15_7","854"," ","","A bowling ball dropped and smashed a mirror","3","Heavy_Matched","",""
"","","","","","fixation","57673","html-keyboard-response","177","149487","0.0-6.0-2.35","102","3","2022-11-17 12:30:42","fd252370c17a9971d68c1d4354a03c2e","","Mozilla/5.0 (Macintosh; Intel Mac OS X 10_15_7) AppleWebKit/605.1.15 (KHTML, like Gecko) Version/15.5 Safari/605.1.15","Macintosh","Safari","15.5","OS X","10_15_7","null","null","","<p style=""font-size: 48px;"">+</p>","3","Heavy_Matched","",""
"","","","","","picture","57673","image-keyboard-response","178","150229","0.0-6.0-3.35","102","3","2022-11-17 12:30:42","fd252370c17a9971d68c1d4354a03c2e","","Mozilla/5.0 (Macintosh; Intel Mac OS X 10_15_7) AppleWebKit/605.1.15 (KHTML, like Gecko) Version/15.5 Safari/605.1.15","Macintosh","Safari","15.5","OS X","10_15_7","737","s","","mirrorS.jpg","3","Heavy_Matched","true",""
"","","","","","fixation","57673","html-keyboard-response","179","151234","0.0-6.0-0.36","102","3","2022-11-17 12:30:42","fd252370c17a9971d68c1d4354a03c2e","","Mozilla/5.0 (Macintosh; Intel Mac OS X 10_15_7) AppleWebKit/605.1.15 (KHTML, like Gecko) Version/15.5 Safari/605.1.15","Macintosh","Safari","15.5","OS X","10_15_7","null","null","","<p style=""font-size: 48px;"">+</p>","3","Filler","",""
"","","","","","sentence","57673","html-keyboard-response","180","151916","0.0-6.0-1.36","102","3","2022-11-17 12:30:42","fd252370c17a9971d68c1d4354a03c2e","","Mozilla/5.0 (Macintosh; Intel Mac OS X 10_15_7) AppleWebKit/605.1.15 (KHTML, like Gecko) Version/15.5 Safari/605.1.15","Macintosh","Safari","15.5","OS X","10_15_7","676"," ","","A toothbrush was placed on the sponge","3","Filler","",""
"","","","","","fixation","57673","html-keyboard-response","181","152421","0.0-6.0-2.36","102","3","2022-11-17 12:30:42","fd252370c17a9971d68c1d4354a03c2e","","Mozilla/5.0 (Macintosh; Intel Mac OS X 10_15_7) AppleWebKit/605.1.15 (KHTML, like Gecko) Version/15.5 Safari/605.1.15","Macintosh","Safari","15.5","OS X","10_15_7","null","null","","<p style=""font-size: 48px;"">+</p>","3","Filler","",""
"","","","","","picture","57673","image-keyboard-response","182","153014","0.0-6.0-3.36","102","3","2022-11-17 12:30:42","fd252370c17a9971d68c1d4354a03c2e","","Mozilla/5.0 (Macintosh; Intel Mac OS X 10_15_7) AppleWebKit/605.1.15 (KHTML, like Gecko) Version/15.5 Safari/605.1.15","Macintosh","Safari","15.5","OS X","10_15_7","587","s","","sponge.jpg","3","Filler","true",""
"","","","","","fixation","57673","html-keyboard-response","183","154019","0.0-6.0-0.37","102","3","2022-11-17 12:30:42","fd252370c17a9971d68c1d4354a03c2e","","Mozilla/5.0 (Macintosh; Intel Mac OS X 10_15_7) AppleWebKit/605.1.15 (KHTML, like Gecko) Version/15.5 Safari/605.1.15","Macintosh","Safari","15.5","OS X","10_15_7","null","null","","<p style=""font-size: 48px;"">+</p>","3","Filler","",""
"","","","","","sentence","57673","html-keyboard-response","184","154566","0.0-6.0-1.37","102","3","2022-11-17 12:30:42","fd252370c17a9971d68c1d4354a03c2e","","Mozilla/5.0 (Macintosh; Intel Mac OS X 10_15_7) AppleWebKit/605.1.15 (KHTML, like Gecko) Version/15.5 Safari/605.1.15","Macintosh","Safari","15.5","OS X","10_15_7","540"," ","","A horse is chewing hay","3","Filler","",""
"","","","","","fixation","57673","html-keyboard-response","185","155070","0.0-6.0-2.37","102","3","2022-11-17 12:30:42","fd252370c17a9971d68c1d4354a03c2e","","Mozilla/5.0 (Macintosh; Intel Mac OS X 10_15_7) AppleWebKit/605.1.15 (KHTML, like Gecko) Version/15.5 Safari/605.1.15","Macintosh","Safari","15.5","OS X","10_15_7","null","null","","<p style=""font-size: 48px;"">+</p>","3","Filler","",""
"","","","","","picture","57673","image-keyboard-response","186","155540","0.0-6.0-3.37","102","3","2022-11-17 12:30:42","fd252370c17a9971d68c1d4354a03c2e","","Mozilla/5.0 (Macintosh; Intel Mac OS X 10_15_7) AppleWebKit/605.1.15 (KHTML, like Gecko) Version/15.5 Safari/605.1.15","Macintosh","Safari","15.5","OS X","10_15_7","462","n","","purse.jpg","3","Filler","true",""
"","","","","","fixation","57673","html-keyboard-response","187","156547","0.0-6.0-0.38","102","3","2022-11-17 12:30:42","fd252370c17a9971d68c1d4354a03c2e","","Mozilla/5.0 (Macintosh; Intel Mac OS X 10_15_7) AppleWebKit/605.1.15 (KHTML, like Gecko) Version/15.5 Safari/605.1.15","Macintosh","Safari","15.5","OS X","10_15_7","null","null","","<p style=""font-size: 48px;"">+</p>","3","Heavy_Contradictory","",""
"","","","","","sentence","57673","html-keyboard-response","188","157370","0.0-6.0-1.38","102","3","2022-11-17 12:30:42","fd252370c17a9971d68c1d4354a03c2e","","Mozilla/5.0 (Macintosh; Intel Mac OS X 10_15_7) AppleWebKit/605.1.15 (KHTML, like Gecko) Version/15.5 Safari/605.1.15","Macintosh","Safari","15.5","OS X","10_15_7","816"," ","","A bowling ball dropped and touched a strawberry","3","Heavy_Contradictory","",""
"","","","","","fixation","57673","html-keyboard-response","189","157875","0.0-6.0-2.38","102","3","2022-11-17 12:30:42","fd252370c17a9971d68c1d4354a03c2e","","Mozilla/5.0 (Macintosh; Intel Mac OS X 10_15_7) AppleWebKit/605.1.15 (KHTML, like Gecko) Version/15.5 Safari/605.1.15","Macintosh","Safari","15.5","OS X","10_15_7","null","null","","<p style=""font-size: 48px;"">+</p>","3","Heavy_Contradictory","",""
"","","","","","picture","57673","image-keyboard-response","190","158282","0.0-6.0-3.38","102","3","2022-11-17 12:30:42","fd252370c17a9971d68c1d4354a03c2e","","Mozilla/5.0 (Macintosh; Intel Mac OS X 10_15_7) AppleWebKit/605.1.15 (KHTML, like Gecko) Version/15.5 Safari/605.1.15","Macintosh","Safari","15.5","OS X","10_15_7","400","s","","strawberryS.jpg","3","Heavy_Contradictory","true",""
"","","","","","fixation","57673","html-keyboard-response","191","159287","0.0-6.0-0.39","102","3","2022-11-17 12:30:42","fd252370c17a9971d68c1d4354a03c2e","","Mozilla/5.0 (Macintosh; Intel Mac OS X 10_15_7) AppleWebKit/605.1.15 (KHTML, like Gecko) Version/15.5 Safari/605.1.15","Macintosh","Safari","15.5","OS X","10_15_7","null","null","","<p style=""font-size: 48px;"">+</p>","3","Filler","",""
"","","","","","sentence","57673","html-keyboard-response","192","160023","0.0-6.0-1.39","102","3","2022-11-17 12:30:42","fd252370c17a9971d68c1d4354a03c2e","","Mozilla/5.0 (Macintosh; Intel Mac OS X 10_15_7) AppleWebKit/605.1.15 (KHTML, like Gecko) Version/15.5 Safari/605.1.15","Macintosh","Safari","15.5","OS X","10_15_7","730"," ","","A photographer is taking a photo of a lion","3","Filler","",""
"","","","","","fixation","57673","html-keyboard-response","193","160527","0.0-6.0-2.39","102","3","2022-11-17 12:30:42","fd252370c17a9971d68c1d4354a03c2e","","Mozilla/5.0 (Macintosh; Intel Mac OS X 10_15_7) AppleWebKit/605.1.15 (KHTML, like Gecko) Version/15.5 Safari/605.1.15","Macintosh","Safari","15.5","OS X","10_15_7","null","null","","<p style=""font-size: 48px;"">+</p>","3","Filler","",""
"","","","","","picture","57673","image-keyboard-response","194","160928","0.0-6.0-3.39","102","3","2022-11-17 12:30:42","fd252370c17a9971d68c1d4354a03c2e","","Mozilla/5.0 (Macintosh; Intel Mac OS X 10_15_7) AppleWebKit/605.1.15 (KHTML, like Gecko) Version/15.5 Safari/605.1.15","Macintosh","Safari","15.5","OS X","10_15_7","392","s","","lion.jpg","3","Filler","true",""
"","","","","","fixation","57673","html-keyboard-response","195","161933","0.0-6.0-0.40","102","3","2022-11-17 12:30:42","fd252370c17a9971d68c1d4354a03c2e","","Mozilla/5.0 (Macintosh; Intel Mac OS X 10_15_7) AppleWebKit/605.1.15 (KHTML, like Gecko) Version/15.5 Safari/605.1.15","Macintosh","Safari","15.5","OS X","10_15_7","null","null","","<p style=""font-size: 48px;"">+</p>","3","Heavy_Contradictory","",""
"","","","","","sentence","57673","html-keyboard-response","196","162786","0.0-6.0-1.40","102","3","2022-11-17 12:30:42","fd252370c17a9971d68c1d4354a03c2e","","Mozilla/5.0 (Macintosh; Intel Mac OS X 10_15_7) AppleWebKit/605.1.15 (KHTML, like Gecko) Version/15.5 Safari/605.1.15","Macintosh","Safari","15.5","OS X","10_15_7","845"," ","","A bowling ball dropped and touched a ceramic plate","3","Heavy_Contradictory","",""
"","","","","","fixation","57673","html-keyboard-response","197","163292","0.0-6.0-2.40","102","3","2022-11-17 12:30:42","fd252370c17a9971d68c1d4354a03c2e","","Mozilla/5.0 (Macintosh; Intel Mac OS X 10_15_7) AppleWebKit/605.1.15 (KHTML, like Gecko) Version/15.5 Safari/605.1.15","Macintosh","Safari","15.5","OS X","10_15_7","null","null","","<p style=""font-size: 48px;"">+</p>","3","Heavy_Contradictory","",""
"","","","","","picture","57673","image-keyboard-response","198","163721","0.0-6.0-3.40","102","3","2022-11-17 12:30:42","fd252370c17a9971d68c1d4354a03c2e","","Mozilla/5.0 (Macintosh; Intel Mac OS X 10_15_7) AppleWebKit/605.1.15 (KHTML, like Gecko) Version/15.5 Safari/605.1.15","Macintosh","Safari","15.5","OS X","10_15_7","423","s","","plateS.jpg","3","Heavy_Contradictory","true",""
"","","","","","fixation","57673","html-keyboard-response","199","164727","0.0-6.0-0.41","102","3","2022-11-17 12:30:42","fd252370c17a9971d68c1d4354a03c2e","","Mozilla/5.0 (Macintosh; Intel Mac OS X 10_15_7) AppleWebKit/605.1.15 (KHTML, like Gecko) Version/15.5 Safari/605.1.15","Macintosh","Safari","15.5","OS X","10_15_7","null","null","","<p style=""font-size: 48px;"">+</p>","3","Light_Contradictory","",""
"","","","","","sentence","57673","html-keyboard-response","200","165566","0.0-6.0-1.41","102","3","2022-11-17 12:30:42","fd252370c17a9971d68c1d4354a03c2e","","Mozilla/5.0 (Macintosh; Intel Mac OS X 10_15_7) AppleWebKit/605.1.15 (KHTML, like Gecko) Version/15.5 Safari/605.1.15","Macintosh","Safari","15.5","OS X","10_15_7","831"," ","","A balloon dropped and smashed a chocolate ice-cream","3","Light_Contradictory","",""
"","","","","","fixation","57673","html-keyboard-response","201","166070","0.0-6.0-2.41","102","3","2022-11-17 12:30:42","fd252370c17a9971d68c1d4354a03c2e","","Mozilla/5.0 (Macintosh; Intel Mac OS X 10_15_7) AppleWebKit/605.1.15 (KHTML, like Gecko) Version/15.5 Safari/605.1.15","Macintosh","Safari","15.5","OS X","10_15_7","null","null","","<p style=""font-size: 48px;"">+</p>","3","Light_Contradictory","",""
"","","","","","picture","57673","image-keyboard-response","202","166544","0.0-6.0-3.41","102","3","2022-11-17 12:30:42","fd252370c17a9971d68c1d4354a03c2e","","Mozilla/5.0 (Macintosh; Intel Mac OS X 10_15_7) AppleWebKit/605.1.15 (KHTML, like Gecko) Version/15.5 Safari/605.1.15","Macintosh","Safari","15.5","OS X","10_15_7","471","s","","icecreamS.jpg","3","Light_Contradictory","true",""
"","","","","","fixation","57673","html-keyboard-response","203","167550","0.0-6.0-0.42","102","3","2022-11-17 12:30:42","fd252370c17a9971d68c1d4354a03c2e","","Mozilla/5.0 (Macintosh; Intel Mac OS X 10_15_7) AppleWebKit/605.1.15 (KHTML, like Gecko) Version/15.5 Safari/605.1.15","Macintosh","Safari","15.5","OS X","10_15_7","null","null","","<p style=""font-size: 48px;"">+</p>","3","Heavy_Contradictory","",""
"","","","","","sentence","57673","html-keyboard-response","204","168224","0.0-6.0-1.42","102","3","2022-11-17 12:30:42","fd252370c17a9971d68c1d4354a03c2e","","Mozilla/5.0 (Macintosh; Intel Mac OS X 10_15_7) AppleWebKit/605.1.15 (KHTML, like Gecko) Version/15.5 Safari/605.1.15","Macintosh","Safari","15.5","OS X","10_15_7","668"," ","","A bowling ball dropped and touched a vase","3","Heavy_Contradictory","",""
"","","","","","fixation","57673","html-keyboard-response","205","168729","0.0-6.0-2.42","102","3","2022-11-17 12:30:42","fd252370c17a9971d68c1d4354a03c2e","","Mozilla/5.0 (Macintosh; Intel Mac OS X 10_15_7) AppleWebKit/605.1.15 (KHTML, like Gecko) Version/15.5 Safari/605.1.15","Macintosh","Safari","15.5","OS X","10_15_7","null","null","","<p style=""font-size: 48px;"">+</p>","3","Heavy_Contradictory","",""
"","","","","","picture","57673","image-keyboard-response","206","169264","0.0-6.0-3.42","102","3","2022-11-17 12:30:42","fd252370c17a9971d68c1d4354a03c2e","","Mozilla/5.0 (Macintosh; Intel Mac OS X 10_15_7) AppleWebKit/605.1.15 (KHTML, like Gecko) Version/15.5 Safari/605.1.15","Macintosh","Safari","15.5","OS X","10_15_7","529","s","","vaseS.jpg","3","Heavy_Contradictory","true",""
"","","","","","fixation","57673","html-keyboard-response","207","170270","0.0-6.0-0.43","102","3","2022-11-17 12:30:42","fd252370c17a9971d68c1d4354a03c2e","","Mozilla/5.0 (Macintosh; Intel Mac OS X 10_15_7) AppleWebKit/605.1.15 (KHTML, like Gecko) Version/15.5 Safari/605.1.15","Macintosh","Safari","15.5","OS X","10_15_7","null","null","","<p style=""font-size: 48px;"">+</p>","3","Filler","",""
"","","","","","sentence","57673","html-keyboard-response","208","170927","0.0-6.0-1.43","102","3","2022-11-17 12:30:42","fd252370c17a9971d68c1d4354a03c2e","","Mozilla/5.0 (Macintosh; Intel Mac OS X 10_15_7) AppleWebKit/605.1.15 (KHTML, like Gecko) Version/15.5 Safari/605.1.15","Macintosh","Safari","15.5","OS X","10_15_7","648"," ","","A pencil was placed on the shoe","3","Filler","",""
"","","","","","fixation","57673","html-keyboard-response","209","171432","0.0-6.0-2.43","102","3","2022-11-17 12:30:42","fd252370c17a9971d68c1d4354a03c2e","","Mozilla/5.0 (Macintosh; Intel Mac OS X 10_15_7) AppleWebKit/605.1.15 (KHTML, like Gecko) Version/15.5 Safari/605.1.15","Macintosh","Safari","15.5","OS X","10_15_7","null","null","","<p style=""font-size: 48px;"">+</p>","3","Filler","",""
"","","","","","picture","57673","image-keyboard-response","210","172243","0.0-6.0-3.43","102","3","2022-11-17 12:30:42","fd252370c17a9971d68c1d4354a03c2e","","Mozilla/5.0 (Macintosh; Intel Mac OS X 10_15_7) AppleWebKit/605.1.15 (KHTML, like Gecko) Version/15.5 Safari/605.1.15","Macintosh","Safari","15.5","OS X","10_15_7","803","n","","perfume.jpg","3","Filler","true",""
"","","","","","fixation","57673","html-keyboard-response","211","173249","0.0-6.0-0.44","102","3","2022-11-17 12:30:42","fd252370c17a9971d68c1d4354a03c2e","","Mozilla/5.0 (Macintosh; Intel Mac OS X 10_15_7) AppleWebKit/605.1.15 (KHTML, like Gecko) Version/15.5 Safari/605.1.15","Macintosh","Safari","15.5","OS X","10_15_7","null","null","","<p style=""font-size: 48px;"">+</p>","3","Filler","",""
"","","","","","sentence","57673","html-keyboard-response","212","173882","0.0-6.0-1.44","102","3","2022-11-17 12:30:42","fd252370c17a9971d68c1d4354a03c2e","","Mozilla/5.0 (Macintosh; Intel Mac OS X 10_15_7) AppleWebKit/605.1.15 (KHTML, like Gecko) Version/15.5 Safari/605.1.15","Macintosh","Safari","15.5","OS X","10_15_7","625"," ","","A zebra is playing with a horse","3","Filler","",""
"","","","","","fixation","57673","html-keyboard-response","213","174388","0.0-6.0-2.44","102","3","2022-11-17 12:30:42","fd252370c17a9971d68c1d4354a03c2e","","Mozilla/5.0 (Macintosh; Intel Mac OS X 10_15_7) AppleWebKit/605.1.15 (KHTML, like Gecko) Version/15.5 Safari/605.1.15","Macintosh","Safari","15.5","OS X","10_15_7","null","null","","<p style=""font-size: 48px;"">+</p>","3","Filler","",""
"","","","","","picture","57673","image-keyboard-response","214","174969","0.0-6.0-3.44","102","3","2022-11-17 12:30:42","fd252370c17a9971d68c1d4354a03c2e","","Mozilla/5.0 (Macintosh; Intel Mac OS X 10_15_7) AppleWebKit/605.1.15 (KHTML, like Gecko) Version/15.5 Safari/605.1.15","Macintosh","Safari","15.5","OS X","10_15_7","574","n","","watch.jpg","3","Filler","true",""
"","","","","","fixation","57673","html-keyboard-response","215","175974","0.0-6.0-0.45","102","3","2022-11-17 12:30:42","fd252370c17a9971d68c1d4354a03c2e","","Mozilla/5.0 (Macintosh; Intel Mac OS X 10_15_7) AppleWebKit/605.1.15 (KHTML, like Gecko) Version/15.5 Safari/605.1.15","Macintosh","Safari","15.5","OS X","10_15_7","null","null","","<p style=""font-size: 48px;"">+</p>","3","Filler","",""
"","","","","","sentence","57673","html-keyboard-response","216","176556","0.0-6.0-1.45","102","3","2022-11-17 12:30:42","fd252370c17a9971d68c1d4354a03c2e","","Mozilla/5.0 (Macintosh; Intel Mac OS X 10_15_7) AppleWebKit/605.1.15 (KHTML, like Gecko) Version/15.5 Safari/605.1.15","Macintosh","Safari","15.5","OS X","10_15_7","578"," ","","A musician is playing a guitar","3","Filler","",""
"","","","","","fixation","57673","html-keyboard-response","217","177061","0.0-6.0-2.45","102","3","2022-11-17 12:30:42","fd252370c17a9971d68c1d4354a03c2e","","Mozilla/5.0 (Macintosh; Intel Mac OS X 10_15_7) AppleWebKit/605.1.15 (KHTML, like Gecko) Version/15.5 Safari/605.1.15","Macintosh","Safari","15.5","OS X","10_15_7","null","null","","<p style=""font-size: 48px;"">+</p>","3","Filler","",""
"","","","","","picture","57673","image-keyboard-response","218","177473","0.0-6.0-3.45","102","3","2022-11-17 12:30:42","fd252370c17a9971d68c1d4354a03c2e","","Mozilla/5.0 (Macintosh; Intel Mac OS X 10_15_7) AppleWebKit/605.1.15 (KHTML, like Gecko) Version/15.5 Safari/605.1.15","Macintosh","Safari","15.5","OS X","10_15_7","405","s","","guitar.jpg","3","Filler","true",""
"","","","","","fixation","57673","html-keyboard-response","219","178478","0.0-6.0-0.46","102","3","2022-11-17 12:30:42","fd252370c17a9971d68c1d4354a03c2e","","Mozilla/5.0 (Macintosh; Intel Mac OS X 10_15_7) AppleWebKit/605.1.15 (KHTML, like Gecko) Version/15.5 Safari/605.1.15","Macintosh","Safari","15.5","OS X","10_15_7","null","null","","<p style=""font-size: 48px;"">+</p>","3","Filler","",""
"","","","","","sentence","57673","html-keyboard-response","220","179177","0.0-6.0-1.46","102","3","2022-11-17 12:30:42","fd252370c17a9971d68c1d4354a03c2e","","Mozilla/5.0 (Macintosh; Intel Mac OS X 10_15_7) AppleWebKit/605.1.15 (KHTML, like Gecko) Version/15.5 Safari/605.1.15","Macintosh","Safari","15.5","OS X","10_15_7","691"," ","","A remote was placed on the rug","3","Filler","",""
"","","","","","fixation","57673","html-keyboard-response","221","179683","0.0-6.0-2.46","102","3","2022-11-17 12:30:42","fd252370c17a9971d68c1d4354a03c2e","","Mozilla/5.0 (Macintosh; Intel Mac OS X 10_15_7) AppleWebKit/605.1.15 (KHTML, like Gecko) Version/15.5 Safari/605.1.15","Macintosh","Safari","15.5","OS X","10_15_7","null","null","","<p style=""font-size: 48px;"">+</p>","3","Filler","",""
"","","","","","picture","57673","image-keyboard-response","222","180946","0.0-6.0-3.46","102","3","2022-11-17 12:30:42","fd252370c17a9971d68c1d4354a03c2e","","Mozilla/5.0 (Macintosh; Intel Mac OS X 10_15_7) AppleWebKit/605.1.15 (KHTML, like Gecko) Version/15.5 Safari/605.1.15","Macintosh","Safari","15.5","OS X","10_15_7","1256","n","","CD.jpg","3","Filler","true",""
"","","","","","fixation","57673","html-keyboard-response","223","181954","0.0-6.0-0.47","102","3","2022-11-17 12:30:42","fd252370c17a9971d68c1d4354a03c2e","","Mozilla/5.0 (Macintosh; Intel Mac OS X 10_15_7) AppleWebKit/605.1.15 (KHTML, like Gecko) Version/15.5 Safari/605.1.15","Macintosh","Safari","15.5","OS X","10_15_7","null","null","","<p style=""font-size: 48px;"">+</p>","3","Filler","",""
"","","","","","sentence","57673","html-keyboard-response","224","182756","0.0-6.0-1.47","102","3","2022-11-17 12:30:42","fd252370c17a9971d68c1d4354a03c2e","","Mozilla/5.0 (Macintosh; Intel Mac OS X 10_15_7) AppleWebKit/605.1.15 (KHTML, like Gecko) Version/15.5 Safari/605.1.15","Macintosh","Safari","15.5","OS X","10_15_7","796"," ","","A watch was placed on the laptop","3","Filler","",""
"","","","","","fixation","57673","html-keyboard-response","225","183263","0.0-6.0-2.47","102","3","2022-11-17 12:30:42","fd252370c17a9971d68c1d4354a03c2e","","Mozilla/5.0 (Macintosh; Intel Mac OS X 10_15_7) AppleWebKit/605.1.15 (KHTML, like Gecko) Version/15.5 Safari/605.1.15","Macintosh","Safari","15.5","OS X","10_15_7","null","null","","<p style=""font-size: 48px;"">+</p>","3","Filler","",""
"","","","","","picture","57673","image-keyboard-response","226","183912","0.0-6.0-3.47","102","3","2022-11-17 12:30:42","fd252370c17a9971d68c1d4354a03c2e","","Mozilla/5.0 (Macintosh; Intel Mac OS X 10_15_7) AppleWebKit/605.1.15 (KHTML, like Gecko) Version/15.5 Safari/605.1.15","Macintosh","Safari","15.5","OS X","10_15_7","641","n","","bow.jpg","3","Filler","true",""
"","","","","","fixation","57673","html-keyboard-response","227","184918","0.0-6.0-0.48","102","3","2022-11-17 12:30:42","fd252370c17a9971d68c1d4354a03c2e","","Mozilla/5.0 (Macintosh; Intel Mac OS X 10_15_7) AppleWebKit/605.1.15 (KHTML, like Gecko) Version/15.5 Safari/605.1.15","Macintosh","Safari","15.5","OS X","10_15_7","null","null","","<p style=""font-size: 48px;"">+</p>","3","Light_Contradictory","",""
"","","","","","sentence","57673","html-keyboard-response","228","185702","0.0-6.0-1.48","102","3","2022-11-17 12:30:42","fd252370c17a9971d68c1d4354a03c2e","","Mozilla/5.0 (Macintosh; Intel Mac OS X 10_15_7) AppleWebKit/605.1.15 (KHTML, like Gecko) Version/15.5 Safari/605.1.15","Macintosh","Safari","15.5","OS X","10_15_7","775"," ","","A balloon dropped and smashed an iPAD","3","Light_Contradictory","",""
"","","","","","fixation","57673","html-keyboard-response","229","186208","0.0-6.0-2.48","102","3","2022-11-17 12:30:42","fd252370c17a9971d68c1d4354a03c2e","","Mozilla/5.0 (Macintosh; Intel Mac OS X 10_15_7) AppleWebKit/605.1.15 (KHTML, like Gecko) Version/15.5 Safari/605.1.15","Macintosh","Safari","15.5","OS X","10_15_7","null","null","","<p style=""font-size: 48px;"">+</p>","3","Light_Contradictory","",""
"","","","","","picture","57673","image-keyboard-response","230","186724","0.0-6.0-3.48","102","3","2022-11-17 12:30:42","fd252370c17a9971d68c1d4354a03c2e","","Mozilla/5.0 (Macintosh; Intel Mac OS X 10_15_7) AppleWebKit/605.1.15 (KHTML, like Gecko) Version/15.5 Safari/605.1.15","Macintosh","Safari","15.5","OS X","10_15_7","509","s","","iPadS.jpg","3","Light_Contradictory","true",""
"","","","","","fixation","57673","html-keyboard-response","231","187730","0.0-6.0-0.49","102","3","2022-11-17 12:30:42","fd252370c17a9971d68c1d4354a03c2e","","Mozilla/5.0 (Macintosh; Intel Mac OS X 10_15_7) AppleWebKit/605.1.15 (KHTML, like Gecko) Version/15.5 Safari/605.1.15","Macintosh","Safari","15.5","OS X","10_15_7","null","null","","<p style=""font-size: 48px;"">+</p>","3","Filler","",""
"","","","","","sentence","57673","html-keyboard-response","232","188334","0.0-6.0-1.49","102","3","2022-11-17 12:30:42","fd252370c17a9971d68c1d4354a03c2e","","Mozilla/5.0 (Macintosh; Intel Mac OS X 10_15_7) AppleWebKit/605.1.15 (KHTML, like Gecko) Version/15.5 Safari/605.1.15","Macintosh","Safari","15.5","OS X","10_15_7","597"," ","","A towel was placed on the TV","3","Filler","",""
"","","","","","fixation","57673","html-keyboard-response","233","188840","0.0-6.0-2.49","102","3","2022-11-17 12:30:42","fd252370c17a9971d68c1d4354a03c2e","","Mozilla/5.0 (Macintosh; Intel Mac OS X 10_15_7) AppleWebKit/605.1.15 (KHTML, like Gecko) Version/15.5 Safari/605.1.15","Macintosh","Safari","15.5","OS X","10_15_7","null","null","","<p style=""font-size: 48px;"">+</p>","3","Filler","",""
"","","","","","picture","57673","image-keyboard-response","234","189314","0.0-6.0-3.49","102","3","2022-11-17 12:30:42","fd252370c17a9971d68c1d4354a03c2e","","Mozilla/5.0 (Macintosh; Intel Mac OS X 10_15_7) AppleWebKit/605.1.15 (KHTML, like Gecko) Version/15.5 Safari/605.1.15","Macintosh","Safari","15.5","OS X","10_15_7","467","n","","pencil.jpg","3","Filler","true",""
"","","","","","fixation","57673","html-keyboard-response","235","190323","0.0-6.0-0.50","102","3","2022-11-17 12:30:42","fd252370c17a9971d68c1d4354a03c2e","","Mozilla/5.0 (Macintosh; Intel Mac OS X 10_15_7) AppleWebKit/605.1.15 (KHTML, like Gecko) Version/15.5 Safari/605.1.15","Macintosh","Safari","15.5","OS X","10_15_7","null","null","","<p style=""font-size: 48px;"">+</p>","3","Filler","",""
"","","","","","sentence","57673","html-keyboard-response","236","192053","0.0-6.0-1.50","102","3","2022-11-17 12:30:42","fd252370c17a9971d68c1d4354a03c2e","","Mozilla/5.0 (Macintosh; Intel Mac OS X 10_15_7) AppleWebKit/605.1.15 (KHTML, like Gecko) Version/15.5 Safari/605.1.15","Macintosh","Safari","15.5","OS X","10_15_7","1721"," ","","A man is boiling potatoes.","3","Filler","",""
"","","","","","fixation","57673","html-keyboard-response","237","192559","0.0-6.0-2.50","102","3","2022-11-17 12:30:42","fd252370c17a9971d68c1d4354a03c2e","","Mozilla/5.0 (Macintosh; Intel Mac OS X 10_15_7) AppleWebKit/605.1.15 (KHTML, like Gecko) Version/15.5 Safari/605.1.15","Macintosh","Safari","15.5","OS X","10_15_7","null","null","","<p style=""font-size: 48px;"">+</p>","3","Filler","",""
"","","","","","picture","57673","image-keyboard-response","238","193073","0.0-6.0-3.50","102","3","2022-11-17 12:30:42","fd252370c17a9971d68c1d4354a03c2e","","Mozilla/5.0 (Macintosh; Intel Mac OS X 10_15_7) AppleWebKit/605.1.15 (KHTML, like Gecko) Version/15.5 Safari/605.1.15","Macintosh","Safari","15.5","OS X","10_15_7","507","n","","cup.jpg","3","Filler","true",""
"","","","","","fixation","57673","html-keyboard-response","239","194078","0.0-6.0-0.51","102","3","2022-11-17 12:30:42","fd252370c17a9971d68c1d4354a03c2e","","Mozilla/5.0 (Macintosh; Intel Mac OS X 10_15_7) AppleWebKit/605.1.15 (KHTML, like Gecko) Version/15.5 Safari/605.1.15","Macintosh","Safari","15.5","OS X","10_15_7","null","null","","<p style=""font-size: 48px;"">+</p>","3","Filler","",""
"","","","","","sentence","57673","html-keyboard-response","240","194682","0.0-6.0-1.51","102","3","2022-11-17 12:30:42","fd252370c17a9971d68c1d4354a03c2e","","Mozilla/5.0 (Macintosh; Intel Mac OS X 10_15_7) AppleWebKit/605.1.15 (KHTML, like Gecko) Version/15.5 Safari/605.1.15","Macintosh","Safari","15.5","OS X","10_15_7","596"," ","","A fork was placed on the plate","3","Filler","",""
"","","","","","fixation","57673","html-keyboard-response","241","195188","0.0-6.0-2.51","102","3","2022-11-17 12:30:42","fd252370c17a9971d68c1d4354a03c2e","","Mozilla/5.0 (Macintosh; Intel Mac OS X 10_15_7) AppleWebKit/605.1.15 (KHTML, like Gecko) Version/15.5 Safari/605.1.15","Macintosh","Safari","15.5","OS X","10_15_7","null","null","","<p style=""font-size: 48px;"">+</p>","3","Filler","",""
"","","","","","picture","57673","image-keyboard-response","242","195805","0.0-6.0-3.51","102","3","2022-11-17 12:30:42","fd252370c17a9971d68c1d4354a03c2e","","Mozilla/5.0 (Macintosh; Intel Mac OS X 10_15_7) AppleWebKit/605.1.15 (KHTML, like Gecko) Version/15.5 Safari/605.1.15","Macintosh","Safari","15.5","OS X","10_15_7","610","s","","plate.jpg","3","Filler","true",""
"","","","","","fixation","57673","html-keyboard-response","243","196812","0.0-6.0-0.52","102","3","2022-11-17 12:30:42","fd252370c17a9971d68c1d4354a03c2e","","Mozilla/5.0 (Macintosh; Intel Mac OS X 10_15_7) AppleWebKit/605.1.15 (KHTML, like Gecko) Version/15.5 Safari/605.1.15","Macintosh","Safari","15.5","OS X","10_15_7","null","null","","<p style=""font-size: 48px;"">+</p>","3","Filler","",""
"","","","","","sentence","57673","html-keyboard-response","244","197640","0.0-6.0-1.52","102","3","2022-11-17 12:30:42","fd252370c17a9971d68c1d4354a03c2e","","Mozilla/5.0 (Macintosh; Intel Mac OS X 10_15_7) AppleWebKit/605.1.15 (KHTML, like Gecko) Version/15.5 Safari/605.1.15","Macintosh","Safari","15.5","OS X","10_15_7","820"," ","","A giraffe is playing with a zebra","3","Filler","",""
"","","","","","fixation","57673","html-keyboard-response","245","198146","0.0-6.0-2.52","102","3","2022-11-17 12:30:42","fd252370c17a9971d68c1d4354a03c2e","","Mozilla/5.0 (Macintosh; Intel Mac OS X 10_15_7) AppleWebKit/605.1.15 (KHTML, like Gecko) Version/15.5 Safari/605.1.15","Macintosh","Safari","15.5","OS X","10_15_7","null","null","","<p style=""font-size: 48px;"">+</p>","3","Filler","",""
"","","","","","picture","57673","image-keyboard-response","246","198811","0.0-6.0-3.52","102","3","2022-11-17 12:30:42","fd252370c17a9971d68c1d4354a03c2e","","Mozilla/5.0 (Macintosh; Intel Mac OS X 10_15_7) AppleWebKit/605.1.15 (KHTML, like Gecko) Version/15.5 Safari/605.1.15","Macintosh","Safari","15.5","OS X","10_15_7","658","n","","wallet.jpg","3","Filler","true",""
