"success","timeout","failed_images","failed_audio","failed_video","typeoftrial","subject","trial_type","trial_index","time_elapsed","internal_node_id","run_id","condition","recorded_at","source_code_version","ip","user_agent","device","browser","browser_version","platform","platform_version","rt","response","Experiment","stimulus","list_number","trialcondition","correct","question_order"
"true","false","[]","[]","[]","preload","15384","preload","0","1832","0.0-0.0","2","4","2022-11-17 14:24:57","27f05a78553e1e210bb6d9ff2204662f","","Mozilla/5.0 (X11; CrOS x86_64 15117.86.0) AppleWebKit/537.36 (KHTML, like Gecko) Chrome/107.0.0.0 Safari/537.36","WebKit","Chrome","107.0.0.0","ChromeOS","15117.86.0","","","","","","","",""
"","","","","","ID","15384","survey-text","1","7082","0.0-1.0","2","4","2022-11-17 14:24:57","27f05a78553e1e210bb6d9ff2204662f","","Mozilla/5.0 (X11; CrOS x86_64 15117.86.0) AppleWebKit/537.36 (KHTML, like Gecko) Chrome/107.0.0.0 Safari/537.36","WebKit","Chrome","107.0.0.0","ChromeOS","15117.86.0","5238","{""ID"":""59c7290e0aaf750001213c97""}","","","","","",""
"","","","","","instructions","15384","html-button-response","2","41639","0.0-2.0","2","4","2022-11-17 14:24:57","27f05a78553e1e210bb6d9ff2204662f","","Mozilla/5.0 (X11; CrOS x86_64 15117.86.0) AppleWebKit/537.36 (KHTML, like Gecko) Chrome/107.0.0.0 Safari/537.36","WebKit","Chrome","107.0.0.0","ChromeOS","15117.86.0","34554","0","","
                    <p style=""font-size:20px;""> Welcome to the experiment! </p>
                    <p style=""font-size:20px;""> In this experiment, you will be asked to make judgments about the content of different sentences.</p>
                    <p style=""font-size:20px;""> On each trial, you will read a sentence, and will be shown a picture immediately following the sentence. </p>
                    <p style=""font-size:20px;""> Your task is to decide whether the object displayed in the picture was mentioned in the sentence or not </p>
                    <p style=""font-size:20px;""> and respond as quickly as possible by pressing <strong>S</strong> for yes or <strong>N</strong> for no. </p>
                    <p style=""font-size:20px;""> You will now do a practice session with feedback and instructions. </p>
                    <p style=""font-size:20px;""> Click the button below to continue.</p>
                    ","","","",""
"","","","","","instructions","15384","html-button-response","3","63455","0.0-3.0","2","4","2022-11-17 14:24:57","27f05a78553e1e210bb6d9ff2204662f","","Mozilla/5.0 (X11; CrOS x86_64 15117.86.0) AppleWebKit/537.36 (KHTML, like Gecko) Chrome/107.0.0.0 Safari/537.36","WebKit","Chrome","107.0.0.0","ChromeOS","15117.86.0","21813","0","","
                    <p style=""font-size:20px;""> You are about to begin the practice test. </p>
                    <p style=""font-size:20px;""> On each trial, a sentence will appear on the screen. You should press SPACEBAR when you have read and understood the sentence.</p>
                    <p style=""font-size:20px;""> After you press SPACEBAR, a picture will appear on the screen. </p>
                    <p style=""font-size:20px;""> You need to indicate whether or not the pictured object was mentioned in the sentence. </p>
                    <p style=""font-size:20px;""> If the object WAS mentioned in the preceding sentence, you should press <strong>S</strong> </p>
                    <p style=""font-size:20px;""> If the object was NOT mentioned in the preceding sentence, you should press <strong>N</strong>. </p>
                    <p style=""font-size:20px;""> Click the button below to continue to the practice session.</p>
                    ","","","",""
"","","","","","fixation","15384","html-keyboard-response","4","64461","0.0-4.0-0.0","2","4","2022-11-17 14:24:57","27f05a78553e1e210bb6d9ff2204662f","","Mozilla/5.0 (X11; CrOS x86_64 15117.86.0) AppleWebKit/537.36 (KHTML, like Gecko) Chrome/107.0.0.0 Safari/537.36","WebKit","Chrome","107.0.0.0","ChromeOS","15117.86.0","null","null","","<p style=""font-size: 48px;"">+</p>","practice","practice_n","",""
"","","","","","sentence","15384","html-keyboard-response","5","70973","0.0-4.0-1.0","2","4","2022-11-17 14:24:57","27f05a78553e1e210bb6d9ff2204662f","","Mozilla/5.0 (X11; CrOS x86_64 15117.86.0) AppleWebKit/537.36 (KHTML, like Gecko) Chrome/107.0.0.0 Safari/537.36","WebKit","Chrome","107.0.0.0","ChromeOS","15117.86.0","6510"," ","","A bowling ball dropped and touched a bottle","practice","practice_n","",""
"","","","","","fixation","15384","html-keyboard-response","6","71477","0.0-4.0-2.0","2","4","2022-11-17 14:24:57","27f05a78553e1e210bb6d9ff2204662f","","Mozilla/5.0 (X11; CrOS x86_64 15117.86.0) AppleWebKit/537.36 (KHTML, like Gecko) Chrome/107.0.0.0 Safari/537.36","WebKit","Chrome","107.0.0.0","ChromeOS","15117.86.0","null","null","","<p style=""font-size: 48px;"">+</p>","practice","practice_n","",""
"","","","","","picture","15384","image-keyboard-response","7","73716","0.0-4.0-3.0","2","4","2022-11-17 14:24:57","27f05a78553e1e210bb6d9ff2204662f","","Mozilla/5.0 (X11; CrOS x86_64 15117.86.0) AppleWebKit/537.36 (KHTML, like Gecko) Chrome/107.0.0.0 Safari/537.36","WebKit","Chrome","107.0.0.0","ChromeOS","15117.86.0","2220","n","","bookB.jpg","practice","practice_n","true",""
"","","","","","","","html-keyboard-response","8","75725","0.0-4.0-4.0","2","4","2022-11-17 14:24:57","27f05a78553e1e210bb6d9ff2204662f","","Mozilla/5.0 (X11; CrOS x86_64 15117.86.0) AppleWebKit/537.36 (KHTML, like Gecko) Chrome/107.0.0.0 Safari/537.36","WebKit","Chrome","107.0.0.0","ChromeOS","15117.86.0","null","null","","CORRECT!","","","",""
"","","","","","fixation","15384","html-keyboard-response","9","76733","0.0-4.0-0.1","2","4","2022-11-17 14:24:57","27f05a78553e1e210bb6d9ff2204662f","","Mozilla/5.0 (X11; CrOS x86_64 15117.86.0) AppleWebKit/537.36 (KHTML, like Gecko) Chrome/107.0.0.0 Safari/537.36","WebKit","Chrome","107.0.0.0","ChromeOS","15117.86.0","null","null","","<p style=""font-size: 48px;"">+</p>","practice","practice_s","",""
"","","","","","sentence","15384","html-keyboard-response","10","79615","0.0-4.0-1.1","2","4","2022-11-17 14:24:57","27f05a78553e1e210bb6d9ff2204662f","","Mozilla/5.0 (X11; CrOS x86_64 15117.86.0) AppleWebKit/537.36 (KHTML, like Gecko) Chrome/107.0.0.0 Safari/537.36","WebKit","Chrome","107.0.0.0","ChromeOS","15117.86.0","2880"," ","","A balloon dropped and touched a cigarette","practice","practice_s","",""
"","","","","","fixation","15384","html-keyboard-response","11","80117","0.0-4.0-2.1","2","4","2022-11-17 14:24:57","27f05a78553e1e210bb6d9ff2204662f","","Mozilla/5.0 (X11; CrOS x86_64 15117.86.0) AppleWebKit/537.36 (KHTML, like Gecko) Chrome/107.0.0.0 Safari/537.36","WebKit","Chrome","107.0.0.0","ChromeOS","15117.86.0","null","null","","<p style=""font-size: 48px;"">+</p>","practice","practice_s","",""
"","","","","","picture","15384","image-keyboard-response","12","82341","0.0-4.0-3.1","2","4","2022-11-17 14:24:57","27f05a78553e1e210bb6d9ff2204662f","","Mozilla/5.0 (X11; CrOS x86_64 15117.86.0) AppleWebKit/537.36 (KHTML, like Gecko) Chrome/107.0.0.0 Safari/537.36","WebKit","Chrome","107.0.0.0","ChromeOS","15117.86.0","2222","s","","cigaretteB.jpg","practice","practice_s","true",""
"","","","","","","","html-keyboard-response","13","84349","0.0-4.0-4.1","2","4","2022-11-17 14:24:57","27f05a78553e1e210bb6d9ff2204662f","","Mozilla/5.0 (X11; CrOS x86_64 15117.86.0) AppleWebKit/537.36 (KHTML, like Gecko) Chrome/107.0.0.0 Safari/537.36","WebKit","Chrome","107.0.0.0","ChromeOS","15117.86.0","null","null","","CORRECT!","","","",""
"","","","","","fixation","15384","html-keyboard-response","14","85357","0.0-4.0-0.2","2","4","2022-11-17 14:24:57","27f05a78553e1e210bb6d9ff2204662f","","Mozilla/5.0 (X11; CrOS x86_64 15117.86.0) AppleWebKit/537.36 (KHTML, like Gecko) Chrome/107.0.0.0 Safari/537.36","WebKit","Chrome","107.0.0.0","ChromeOS","15117.86.0","null","null","","<p style=""font-size: 48px;"">+</p>","practice","practice_n","",""
"","","","","","sentence","15384","html-keyboard-response","15","88802","0.0-4.0-1.2","2","4","2022-11-17 14:24:57","27f05a78553e1e210bb6d9ff2204662f","","Mozilla/5.0 (X11; CrOS x86_64 15117.86.0) AppleWebKit/537.36 (KHTML, like Gecko) Chrome/107.0.0.0 Safari/537.36","WebKit","Chrome","107.0.0.0","ChromeOS","15117.86.0","3443"," ","","A balloon dropped and smashed a cup","practice","practice_n","",""
"","","","","","fixation","15384","html-keyboard-response","16","89309","0.0-4.0-2.2","2","4","2022-11-17 14:24:57","27f05a78553e1e210bb6d9ff2204662f","","Mozilla/5.0 (X11; CrOS x86_64 15117.86.0) AppleWebKit/537.36 (KHTML, like Gecko) Chrome/107.0.0.0 Safari/537.36","WebKit","Chrome","107.0.0.0","ChromeOS","15117.86.0","null","null","","<p style=""font-size: 48px;"">+</p>","practice","practice_n","",""
"","","","","","picture","15384","image-keyboard-response","17","90693","0.0-4.0-3.2","2","4","2022-11-17 14:24:57","27f05a78553e1e210bb6d9ff2204662f","","Mozilla/5.0 (X11; CrOS x86_64 15117.86.0) AppleWebKit/537.36 (KHTML, like Gecko) Chrome/107.0.0.0 Safari/537.36","WebKit","Chrome","107.0.0.0","ChromeOS","15117.86.0","1382","n","","bananaB.jpg","practice","practice_n","true",""
"","","","","","","","html-keyboard-response","18","92701","0.0-4.0-4.2","2","4","2022-11-17 14:24:57","27f05a78553e1e210bb6d9ff2204662f","","Mozilla/5.0 (X11; CrOS x86_64 15117.86.0) AppleWebKit/537.36 (KHTML, like Gecko) Chrome/107.0.0.0 Safari/537.36","WebKit","Chrome","107.0.0.0","ChromeOS","15117.86.0","null","null","","CORRECT!","","","",""
"","","","","","fixation","15384","html-keyboard-response","19","93709","0.0-4.0-0.3","2","4","2022-11-17 14:24:57","27f05a78553e1e210bb6d9ff2204662f","","Mozilla/5.0 (X11; CrOS x86_64 15117.86.0) AppleWebKit/537.36 (KHTML, like Gecko) Chrome/107.0.0.0 Safari/537.36","WebKit","Chrome","107.0.0.0","ChromeOS","15117.86.0","null","null","","<p style=""font-size: 48px;"">+</p>","practice","practice_n","",""
"","","","","","sentence","15384","html-keyboard-response","20","96237","0.0-4.0-1.3","2","4","2022-11-17 14:24:57","27f05a78553e1e210bb6d9ff2204662f","","Mozilla/5.0 (X11; CrOS x86_64 15117.86.0) AppleWebKit/537.36 (KHTML, like Gecko) Chrome/107.0.0.0 Safari/537.36","WebKit","Chrome","107.0.0.0","ChromeOS","15117.86.0","2526"," ","","A fork was placed on a stool","practice","practice_n","",""
"","","","","","fixation","15384","html-keyboard-response","21","96741","0.0-4.0-2.3","2","4","2022-11-17 14:24:57","27f05a78553e1e210bb6d9ff2204662f","","Mozilla/5.0 (X11; CrOS x86_64 15117.86.0) AppleWebKit/537.36 (KHTML, like Gecko) Chrome/107.0.0.0 Safari/537.36","WebKit","Chrome","107.0.0.0","ChromeOS","15117.86.0","null","null","","<p style=""font-size: 48px;"">+</p>","practice","practice_n","",""
"","","","","","picture","15384","image-keyboard-response","22","98806","0.0-4.0-3.3","2","4","2022-11-17 14:24:57","27f05a78553e1e210bb6d9ff2204662f","","Mozilla/5.0 (X11; CrOS x86_64 15117.86.0) AppleWebKit/537.36 (KHTML, like Gecko) Chrome/107.0.0.0 Safari/537.36","WebKit","Chrome","107.0.0.0","ChromeOS","15117.86.0","2063","n","","tableB.jpg","practice","practice_n","true",""
"","","","","","","","html-keyboard-response","23","100813","0.0-4.0-4.3","2","4","2022-11-17 14:24:57","27f05a78553e1e210bb6d9ff2204662f","","Mozilla/5.0 (X11; CrOS x86_64 15117.86.0) AppleWebKit/537.36 (KHTML, like Gecko) Chrome/107.0.0.0 Safari/537.36","WebKit","Chrome","107.0.0.0","ChromeOS","15117.86.0","null","null","","CORRECT!","","","",""
"","","","","","fixation","15384","html-keyboard-response","24","101820","0.0-4.0-0.4","2","4","2022-11-17 14:24:57","27f05a78553e1e210bb6d9ff2204662f","","Mozilla/5.0 (X11; CrOS x86_64 15117.86.0) AppleWebKit/537.36 (KHTML, like Gecko) Chrome/107.0.0.0 Safari/537.36","WebKit","Chrome","107.0.0.0","ChromeOS","15117.86.0","null","null","","<p style=""font-size: 48px;"">+</p>","practice","practice_s","",""
"","","","","","sentence","15384","html-keyboard-response","25","103777","0.0-4.0-1.4","2","4","2022-11-17 14:24:57","27f05a78553e1e210bb6d9ff2204662f","","Mozilla/5.0 (X11; CrOS x86_64 15117.86.0) AppleWebKit/537.36 (KHTML, like Gecko) Chrome/107.0.0.0 Safari/537.36","WebKit","Chrome","107.0.0.0","ChromeOS","15117.86.0","1954"," ","","A bowling ball dropped and smashed a teacup","practice","practice_s","",""
"","","","","","fixation","15384","html-keyboard-response","26","104285","0.0-4.0-2.4","2","4","2022-11-17 14:24:57","27f05a78553e1e210bb6d9ff2204662f","","Mozilla/5.0 (X11; CrOS x86_64 15117.86.0) AppleWebKit/537.36 (KHTML, like Gecko) Chrome/107.0.0.0 Safari/537.36","WebKit","Chrome","107.0.0.0","ChromeOS","15117.86.0","null","null","","<p style=""font-size: 48px;"">+</p>","practice","practice_s","",""
"","","","","","picture","15384","image-keyboard-response","27","105201","0.0-4.0-3.4","2","4","2022-11-17 14:24:57","27f05a78553e1e210bb6d9ff2204662f","","Mozilla/5.0 (X11; CrOS x86_64 15117.86.0) AppleWebKit/537.36 (KHTML, like Gecko) Chrome/107.0.0.0 Safari/537.36","WebKit","Chrome","107.0.0.0","ChromeOS","15117.86.0","913","s","","cupB.jpg","practice","practice_s","true",""
"","","","","","","","html-keyboard-response","28","107204","0.0-4.0-4.4","2","4","2022-11-17 14:24:57","27f05a78553e1e210bb6d9ff2204662f","","Mozilla/5.0 (X11; CrOS x86_64 15117.86.0) AppleWebKit/537.36 (KHTML, like Gecko) Chrome/107.0.0.0 Safari/537.36","WebKit","Chrome","107.0.0.0","ChromeOS","15117.86.0","null","null","","CORRECT!","","","",""
"","","","","","fixation","15384","html-keyboard-response","29","108212","0.0-4.0-0.5","2","4","2022-11-17 14:24:57","27f05a78553e1e210bb6d9ff2204662f","","Mozilla/5.0 (X11; CrOS x86_64 15117.86.0) AppleWebKit/537.36 (KHTML, like Gecko) Chrome/107.0.0.0 Safari/537.36","WebKit","Chrome","107.0.0.0","ChromeOS","15117.86.0","null","null","","<p style=""font-size: 48px;"">+</p>","practice","practice_s","",""
"","","","","","sentence","15384","html-keyboard-response","30","110428","0.0-4.0-1.5","2","4","2022-11-17 14:24:57","27f05a78553e1e210bb6d9ff2204662f","","Mozilla/5.0 (X11; CrOS x86_64 15117.86.0) AppleWebKit/537.36 (KHTML, like Gecko) Chrome/107.0.0.0 Safari/537.36","WebKit","Chrome","107.0.0.0","ChromeOS","15117.86.0","2214"," ","","A knife was placed on a hammer","practice","practice_s","",""
"","","","","","fixation","15384","html-keyboard-response","31","110933","0.0-4.0-2.5","2","4","2022-11-17 14:24:57","27f05a78553e1e210bb6d9ff2204662f","","Mozilla/5.0 (X11; CrOS x86_64 15117.86.0) AppleWebKit/537.36 (KHTML, like Gecko) Chrome/107.0.0.0 Safari/537.36","WebKit","Chrome","107.0.0.0","ChromeOS","15117.86.0","null","null","","<p style=""font-size: 48px;"">+</p>","practice","practice_s","",""
"","","","","","picture","15384","image-keyboard-response","32","111678","0.0-4.0-3.5","2","4","2022-11-17 14:24:57","27f05a78553e1e210bb6d9ff2204662f","","Mozilla/5.0 (X11; CrOS x86_64 15117.86.0) AppleWebKit/537.36 (KHTML, like Gecko) Chrome/107.0.0.0 Safari/537.36","WebKit","Chrome","107.0.0.0","ChromeOS","15117.86.0","743","s","","hammerB.jpg","practice","practice_s","true",""
"","","","","","","","html-keyboard-response","33","113685","0.0-4.0-4.5","2","4","2022-11-17 14:24:57","27f05a78553e1e210bb6d9ff2204662f","","Mozilla/5.0 (X11; CrOS x86_64 15117.86.0) AppleWebKit/537.36 (KHTML, like Gecko) Chrome/107.0.0.0 Safari/537.36","WebKit","Chrome","107.0.0.0","ChromeOS","15117.86.0","null","null","","CORRECT!","","","",""
"","","","","","movetoexp","15384","html-button-response","34","125967","0.0-5.0","2","4","2022-11-17 14:24:57","27f05a78553e1e210bb6d9ff2204662f","","Mozilla/5.0 (X11; CrOS x86_64 15117.86.0) AppleWebKit/537.36 (KHTML, like Gecko) Chrome/107.0.0.0 Safari/537.36","WebKit","Chrome","107.0.0.0","ChromeOS","15117.86.0","12280","0","","<p style=""font-size:20px;"">You have now completed the practice session! </p>
                    <p style=""font-size:20px;"">You will now move on to the main experiment, where you will not be provided any feedback. </p>
                    <p style=""font-size:20px;"">Remember, you should press <strong>S</strong> if the pictured object was mentioned in the preceding sentence<br> and <strong>N</strong> if the pictured object was not mentioned in the preceding sentence.</p>
                    <p style=""font-size:20px;"">Please click the button below to continue to the main experiment. </p>","","","",""
"","","","","","fixation","15384","html-keyboard-response","35","126973","0.0-6.0-0.0","2","4","2022-11-17 14:24:57","27f05a78553e1e210bb6d9ff2204662f","","Mozilla/5.0 (X11; CrOS x86_64 15117.86.0) AppleWebKit/537.36 (KHTML, like Gecko) Chrome/107.0.0.0 Safari/537.36","WebKit","Chrome","107.0.0.0","ChromeOS","15117.86.0","null","null","","<p style=""font-size: 48px;"">+</p>","4","Filler","",""
"","","","","","sentence","15384","html-keyboard-response","36","130763","0.0-6.0-1.0","2","4","2022-11-17 14:24:57","27f05a78553e1e210bb6d9ff2204662f","","Mozilla/5.0 (X11; CrOS x86_64 15117.86.0) AppleWebKit/537.36 (KHTML, like Gecko) Chrome/107.0.0.0 Safari/537.36","WebKit","Chrome","107.0.0.0","ChromeOS","15117.86.0","3789"," ","","A cat is drinking water from a bowl","4","Filler","",""
"","","","","","fixation","15384","html-keyboard-response","37","131269","0.0-6.0-2.0","2","4","2022-11-17 14:24:57","27f05a78553e1e210bb6d9ff2204662f","","Mozilla/5.0 (X11; CrOS x86_64 15117.86.0) AppleWebKit/537.36 (KHTML, like Gecko) Chrome/107.0.0.0 Safari/537.36","WebKit","Chrome","107.0.0.0","ChromeOS","15117.86.0","null","null","","<p style=""font-size: 48px;"">+</p>","4","Filler","",""
"","","","","","picture","15384","image-keyboard-response","38","131971","0.0-6.0-3.0","2","4","2022-11-17 14:24:57","27f05a78553e1e210bb6d9ff2204662f","","Mozilla/5.0 (X11; CrOS x86_64 15117.86.0) AppleWebKit/537.36 (KHTML, like Gecko) Chrome/107.0.0.0 Safari/537.36","WebKit","Chrome","107.0.0.0","ChromeOS","15117.86.0","698","n","","bowl.jpg","4","Filler","false",""
"","","","","","fixation","15384","html-keyboard-response","39","132981","0.0-6.0-0.1","2","4","2022-11-17 14:24:57","27f05a78553e1e210bb6d9ff2204662f","","Mozilla/5.0 (X11; CrOS x86_64 15117.86.0) AppleWebKit/537.36 (KHTML, like Gecko) Chrome/107.0.0.0 Safari/537.36","WebKit","Chrome","107.0.0.0","ChromeOS","15117.86.0","null","null","","<p style=""font-size: 48px;"">+</p>","4","Heavy-Matched","",""
"","","","","","sentence","15384","html-keyboard-response","40","134882","0.0-6.0-1.1","2","4","2022-11-17 14:24:57","27f05a78553e1e210bb6d9ff2204662f","","Mozilla/5.0 (X11; CrOS x86_64 15117.86.0) AppleWebKit/537.36 (KHTML, like Gecko) Chrome/107.0.0.0 Safari/537.36","WebKit","Chrome","107.0.0.0","ChromeOS","15117.86.0","1899"," ","","A bowling ball dropped and smashed a strawberry","4","Heavy-Matched","",""
"","","","","","fixation","15384","html-keyboard-response","41","135389","0.0-6.0-2.1","2","4","2022-11-17 14:24:57","27f05a78553e1e210bb6d9ff2204662f","","Mozilla/5.0 (X11; CrOS x86_64 15117.86.0) AppleWebKit/537.36 (KHTML, like Gecko) Chrome/107.0.0.0 Safari/537.36","WebKit","Chrome","107.0.0.0","ChromeOS","15117.86.0","null","null","","<p style=""font-size: 48px;"">+</p>","4","Heavy-Matched","",""
"","","","","","picture","15384","image-keyboard-response","42","136522","0.0-6.0-3.1","2","4","2022-11-17 14:24:57","27f05a78553e1e210bb6d9ff2204662f","","Mozilla/5.0 (X11; CrOS x86_64 15117.86.0) AppleWebKit/537.36 (KHTML, like Gecko) Chrome/107.0.0.0 Safari/537.36","WebKit","Chrome","107.0.0.0","ChromeOS","15117.86.0","1128","s","","strawberryS.jpg","4","Heavy-Matched","true",""
"","","","","","fixation","15384","html-keyboard-response","43","137525","0.0-6.0-0.2","2","4","2022-11-17 14:24:57","27f05a78553e1e210bb6d9ff2204662f","","Mozilla/5.0 (X11; CrOS x86_64 15117.86.0) AppleWebKit/537.36 (KHTML, like Gecko) Chrome/107.0.0.0 Safari/537.36","WebKit","Chrome","107.0.0.0","ChromeOS","15117.86.0","null","null","","<p style=""font-size: 48px;"">+</p>","4","Filler","",""
"","","","","","sentence","15384","html-keyboard-response","44","139148","0.0-6.0-1.2","2","4","2022-11-17 14:24:57","27f05a78553e1e210bb6d9ff2204662f","","Mozilla/5.0 (X11; CrOS x86_64 15117.86.0) AppleWebKit/537.36 (KHTML, like Gecko) Chrome/107.0.0.0 Safari/537.36","WebKit","Chrome","107.0.0.0","ChromeOS","15117.86.0","1621"," ","","A remote was placed on the rug","4","Filler","",""
"","","","","","fixation","15384","html-keyboard-response","45","139653","0.0-6.0-2.2","2","4","2022-11-17 14:24:57","27f05a78553e1e210bb6d9ff2204662f","","Mozilla/5.0 (X11; CrOS x86_64 15117.86.0) AppleWebKit/537.36 (KHTML, like Gecko) Chrome/107.0.0.0 Safari/537.36","WebKit","Chrome","107.0.0.0","ChromeOS","15117.86.0","null","null","","<p style=""font-size: 48px;"">+</p>","4","Filler","",""
"","","","","","picture","15384","image-keyboard-response","46","140957","0.0-6.0-3.2","2","4","2022-11-17 14:24:57","27f05a78553e1e210bb6d9ff2204662f","","Mozilla/5.0 (X11; CrOS x86_64 15117.86.0) AppleWebKit/537.36 (KHTML, like Gecko) Chrome/107.0.0.0 Safari/537.36","WebKit","Chrome","107.0.0.0","ChromeOS","15117.86.0","1301","n","","CD.jpg","4","Filler","true",""
"","","","","","fixation","15384","html-keyboard-response","47","141965","0.0-6.0-0.3","2","4","2022-11-17 14:24:57","27f05a78553e1e210bb6d9ff2204662f","","Mozilla/5.0 (X11; CrOS x86_64 15117.86.0) AppleWebKit/537.36 (KHTML, like Gecko) Chrome/107.0.0.0 Safari/537.36","WebKit","Chrome","107.0.0.0","ChromeOS","15117.86.0","null","null","","<p style=""font-size: 48px;"">+</p>","4","Filler","",""
"","","","","","sentence","15384","html-keyboard-response","48","143221","0.0-6.0-1.3","2","4","2022-11-17 14:24:57","27f05a78553e1e210bb6d9ff2204662f","","Mozilla/5.0 (X11; CrOS x86_64 15117.86.0) AppleWebKit/537.36 (KHTML, like Gecko) Chrome/107.0.0.0 Safari/537.36","WebKit","Chrome","107.0.0.0","ChromeOS","15117.86.0","1254"," ","","A butterfly is sitting on a flower","4","Filler","",""
"","","","","","fixation","15384","html-keyboard-response","49","143725","0.0-6.0-2.3","2","4","2022-11-17 14:24:57","27f05a78553e1e210bb6d9ff2204662f","","Mozilla/5.0 (X11; CrOS x86_64 15117.86.0) AppleWebKit/537.36 (KHTML, like Gecko) Chrome/107.0.0.0 Safari/537.36","WebKit","Chrome","107.0.0.0","ChromeOS","15117.86.0","null","null","","<p style=""font-size: 48px;"">+</p>","4","Filler","",""
"","","","","","picture","15384","image-keyboard-response","50","144842","0.0-6.0-3.3","2","4","2022-11-17 14:24:57","27f05a78553e1e210bb6d9ff2204662f","","Mozilla/5.0 (X11; CrOS x86_64 15117.86.0) AppleWebKit/537.36 (KHTML, like Gecko) Chrome/107.0.0.0 Safari/537.36","WebKit","Chrome","107.0.0.0","ChromeOS","15117.86.0","1114","n","","soap.jpg","4","Filler","true",""
"","","","","","fixation","15384","html-keyboard-response","51","145847","0.0-6.0-0.4","2","4","2022-11-17 14:24:57","27f05a78553e1e210bb6d9ff2204662f","","Mozilla/5.0 (X11; CrOS x86_64 15117.86.0) AppleWebKit/537.36 (KHTML, like Gecko) Chrome/107.0.0.0 Safari/537.36","WebKit","Chrome","107.0.0.0","ChromeOS","15117.86.0","null","null","","<p style=""font-size: 48px;"">+</p>","4","Filler","",""
"","","","","","sentence","15384","html-keyboard-response","52","148621","0.0-6.0-1.4","2","4","2022-11-17 14:24:57","27f05a78553e1e210bb6d9ff2204662f","","Mozilla/5.0 (X11; CrOS x86_64 15117.86.0) AppleWebKit/537.36 (KHTML, like Gecko) Chrome/107.0.0.0 Safari/537.36","WebKit","Chrome","107.0.0.0","ChromeOS","15117.86.0","2771"," ","","An astronaut is putting on a space suit","4","Filler","",""
"","","","","","fixation","15384","html-keyboard-response","53","149125","0.0-6.0-2.4","2","4","2022-11-17 14:24:57","27f05a78553e1e210bb6d9ff2204662f","","Mozilla/5.0 (X11; CrOS x86_64 15117.86.0) AppleWebKit/537.36 (KHTML, like Gecko) Chrome/107.0.0.0 Safari/537.36","WebKit","Chrome","107.0.0.0","ChromeOS","15117.86.0","null","null","","<p style=""font-size: 48px;"">+</p>","4","Filler","",""
"","","","","","picture","15384","image-keyboard-response","54","149886","0.0-6.0-3.4","2","4","2022-11-17 14:24:57","27f05a78553e1e210bb6d9ff2204662f","","Mozilla/5.0 (X11; CrOS x86_64 15117.86.0) AppleWebKit/537.36 (KHTML, like Gecko) Chrome/107.0.0.0 Safari/537.36","WebKit","Chrome","107.0.0.0","ChromeOS","15117.86.0","758","s","","spacesuit.jpg","4","Filler","true",""
"","","","","","fixation","15384","html-keyboard-response","55","150893","0.0-6.0-0.5","2","4","2022-11-17 14:24:57","27f05a78553e1e210bb6d9ff2204662f","","Mozilla/5.0 (X11; CrOS x86_64 15117.86.0) AppleWebKit/537.36 (KHTML, like Gecko) Chrome/107.0.0.0 Safari/537.36","WebKit","Chrome","107.0.0.0","ChromeOS","15117.86.0","null","null","","<p style=""font-size: 48px;"">+</p>","4","Light-Matched","",""
"","","","","","sentence","15384","html-keyboard-response","56","154664","0.0-6.0-1.5","2","4","2022-11-17 14:24:57","27f05a78553e1e210bb6d9ff2204662f","","Mozilla/5.0 (X11; CrOS x86_64 15117.86.0) AppleWebKit/537.36 (KHTML, like Gecko) Chrome/107.0.0.0 Safari/537.36","WebKit","Chrome","107.0.0.0","ChromeOS","15117.86.0","3768"," ","","A balloon dropped and touched glasses","4","Light-Matched","",""
"","","","","","fixation","15384","html-keyboard-response","57","155173","0.0-6.0-2.5","2","4","2022-11-17 14:24:57","27f05a78553e1e210bb6d9ff2204662f","","Mozilla/5.0 (X11; CrOS x86_64 15117.86.0) AppleWebKit/537.36 (KHTML, like Gecko) Chrome/107.0.0.0 Safari/537.36","WebKit","Chrome","107.0.0.0","ChromeOS","15117.86.0","null","null","","<p style=""font-size: 48px;"">+</p>","4","Light-Matched","",""
"","","","","","picture","15384","image-keyboard-response","58","156293","0.0-6.0-3.5","2","4","2022-11-17 14:24:57","27f05a78553e1e210bb6d9ff2204662f","","Mozilla/5.0 (X11; CrOS x86_64 15117.86.0) AppleWebKit/537.36 (KHTML, like Gecko) Chrome/107.0.0.0 Safari/537.36","WebKit","Chrome","107.0.0.0","ChromeOS","15117.86.0","1117","s","","glassesS.jpg","4","Light-Matched","true",""
"","","","","","fixation","15384","html-keyboard-response","59","157301","0.0-6.0-0.6","2","4","2022-11-17 14:24:57","27f05a78553e1e210bb6d9ff2204662f","","Mozilla/5.0 (X11; CrOS x86_64 15117.86.0) AppleWebKit/537.36 (KHTML, like Gecko) Chrome/107.0.0.0 Safari/537.36","WebKit","Chrome","107.0.0.0","ChromeOS","15117.86.0","null","null","","<p style=""font-size: 48px;"">+</p>","4","Filler","",""
"","","","","","sentence","15384","html-keyboard-response","60","158741","0.0-6.0-1.6","2","4","2022-11-17 14:24:57","27f05a78553e1e210bb6d9ff2204662f","","Mozilla/5.0 (X11; CrOS x86_64 15117.86.0) AppleWebKit/537.36 (KHTML, like Gecko) Chrome/107.0.0.0 Safari/537.36","WebKit","Chrome","107.0.0.0","ChromeOS","15117.86.0","1437"," ","","A pilot is reading a book","4","Filler","",""
"","","","","","fixation","15384","html-keyboard-response","61","159245","0.0-6.0-2.6","2","4","2022-11-17 14:24:57","27f05a78553e1e210bb6d9ff2204662f","","Mozilla/5.0 (X11; CrOS x86_64 15117.86.0) AppleWebKit/537.36 (KHTML, like Gecko) Chrome/107.0.0.0 Safari/537.36","WebKit","Chrome","107.0.0.0","ChromeOS","15117.86.0","null","null","","<p style=""font-size: 48px;"">+</p>","4","Filler","",""
"","","","","","picture","15384","image-keyboard-response","62","160255","0.0-6.0-3.6","2","4","2022-11-17 14:24:57","27f05a78553e1e210bb6d9ff2204662f","","Mozilla/5.0 (X11; CrOS x86_64 15117.86.0) AppleWebKit/537.36 (KHTML, like Gecko) Chrome/107.0.0.0 Safari/537.36","WebKit","Chrome","107.0.0.0","ChromeOS","15117.86.0","1007","n","","spoon.jpg","4","Filler","true",""
"","","","","","fixation","15384","html-keyboard-response","63","161261","0.0-6.0-0.7","2","4","2022-11-17 14:24:57","27f05a78553e1e210bb6d9ff2204662f","","Mozilla/5.0 (X11; CrOS x86_64 15117.86.0) AppleWebKit/537.36 (KHTML, like Gecko) Chrome/107.0.0.0 Safari/537.36","WebKit","Chrome","107.0.0.0","ChromeOS","15117.86.0","null","null","","<p style=""font-size: 48px;"">+</p>","4","Filler","",""
"","","","","","sentence","15384","html-keyboard-response","64","162767","0.0-6.0-1.7","2","4","2022-11-17 14:24:57","27f05a78553e1e210bb6d9ff2204662f","","Mozilla/5.0 (X11; CrOS x86_64 15117.86.0) AppleWebKit/537.36 (KHTML, like Gecko) Chrome/107.0.0.0 Safari/537.36","WebKit","Chrome","107.0.0.0","ChromeOS","15117.86.0","1504"," ","","A pencil was placed on the shoe","4","Filler","",""
"","","","","","fixation","15384","html-keyboard-response","65","163276","0.0-6.0-2.7","2","4","2022-11-17 14:24:57","27f05a78553e1e210bb6d9ff2204662f","","Mozilla/5.0 (X11; CrOS x86_64 15117.86.0) AppleWebKit/537.36 (KHTML, like Gecko) Chrome/107.0.0.0 Safari/537.36","WebKit","Chrome","107.0.0.0","ChromeOS","15117.86.0","null","null","","<p style=""font-size: 48px;"">+</p>","4","Filler","",""
"","","","","","picture","15384","image-keyboard-response","66","164170","0.0-6.0-3.7","2","4","2022-11-17 14:24:57","27f05a78553e1e210bb6d9ff2204662f","","Mozilla/5.0 (X11; CrOS x86_64 15117.86.0) AppleWebKit/537.36 (KHTML, like Gecko) Chrome/107.0.0.0 Safari/537.36","WebKit","Chrome","107.0.0.0","ChromeOS","15117.86.0","889","n","","perfume.jpg","4","Filler","true",""
"","","","","","fixation","15384","html-keyboard-response","67","165180","0.0-6.0-0.8","2","4","2022-11-17 14:24:57","27f05a78553e1e210bb6d9ff2204662f","","Mozilla/5.0 (X11; CrOS x86_64 15117.86.0) AppleWebKit/537.36 (KHTML, like Gecko) Chrome/107.0.0.0 Safari/537.36","WebKit","Chrome","107.0.0.0","ChromeOS","15117.86.0","null","null","","<p style=""font-size: 48px;"">+</p>","4","Light-Matched","",""
"","","","","","sentence","15384","html-keyboard-response","68","166570","0.0-6.0-1.8","2","4","2022-11-17 14:24:57","27f05a78553e1e210bb6d9ff2204662f","","Mozilla/5.0 (X11; CrOS x86_64 15117.86.0) AppleWebKit/537.36 (KHTML, like Gecko) Chrome/107.0.0.0 Safari/537.36","WebKit","Chrome","107.0.0.0","ChromeOS","15117.86.0","1387"," ","","A balloon dropped and touched an egg flan","4","Light-Matched","",""
"","","","","","fixation","15384","html-keyboard-response","69","167077","0.0-6.0-2.8","2","4","2022-11-17 14:24:57","27f05a78553e1e210bb6d9ff2204662f","","Mozilla/5.0 (X11; CrOS x86_64 15117.86.0) AppleWebKit/537.36 (KHTML, like Gecko) Chrome/107.0.0.0 Safari/537.36","WebKit","Chrome","107.0.0.0","ChromeOS","15117.86.0","null","null","","<p style=""font-size: 48px;"">+</p>","4","Light-Matched","",""
"","","","","","picture","15384","image-keyboard-response","70","170201","0.0-6.0-3.8","2","4","2022-11-17 14:24:57","27f05a78553e1e210bb6d9ff2204662f","","Mozilla/5.0 (X11; CrOS x86_64 15117.86.0) AppleWebKit/537.36 (KHTML, like Gecko) Chrome/107.0.0.0 Safari/537.36","WebKit","Chrome","107.0.0.0","ChromeOS","15117.86.0","3121","s","","eggflanS.jpg","4","Light-Matched","true",""
"","","","","","fixation","15384","html-keyboard-response","71","171213","0.0-6.0-0.9","2","4","2022-11-17 14:24:57","27f05a78553e1e210bb6d9ff2204662f","","Mozilla/5.0 (X11; CrOS x86_64 15117.86.0) AppleWebKit/537.36 (KHTML, like Gecko) Chrome/107.0.0.0 Safari/537.36","WebKit","Chrome","107.0.0.0","ChromeOS","15117.86.0","null","null","","<p style=""font-size: 48px;"">+</p>","4","Light-Matched","",""
"","","","","","sentence","15384","html-keyboard-response","72","172783","0.0-6.0-1.9","2","4","2022-11-17 14:24:57","27f05a78553e1e210bb6d9ff2204662f","","Mozilla/5.0 (X11; CrOS x86_64 15117.86.0) AppleWebKit/537.36 (KHTML, like Gecko) Chrome/107.0.0.0 Safari/537.36","WebKit","Chrome","107.0.0.0","ChromeOS","15117.86.0","1567"," ","","A balloon dropped and touched a blackberry","4","Light-Matched","",""
"","","","","","fixation","15384","html-keyboard-response","73","173293","0.0-6.0-2.9","2","4","2022-11-17 14:24:57","27f05a78553e1e210bb6d9ff2204662f","","Mozilla/5.0 (X11; CrOS x86_64 15117.86.0) AppleWebKit/537.36 (KHTML, like Gecko) Chrome/107.0.0.0 Safari/537.36","WebKit","Chrome","107.0.0.0","ChromeOS","15117.86.0","null","null","","<p style=""font-size: 48px;"">+</p>","4","Light-Matched","",""
"","","","","","picture","15384","image-keyboard-response","74","174365","0.0-6.0-3.9","2","4","2022-11-17 14:24:57","27f05a78553e1e210bb6d9ff2204662f","","Mozilla/5.0 (X11; CrOS x86_64 15117.86.0) AppleWebKit/537.36 (KHTML, like Gecko) Chrome/107.0.0.0 Safari/537.36","WebKit","Chrome","107.0.0.0","ChromeOS","15117.86.0","1069","s","","blackberryS.jpg","4","Light-Matched","true",""
"","","","","","fixation","15384","html-keyboard-response","75","175373","0.0-6.0-0.10","2","4","2022-11-17 14:24:57","27f05a78553e1e210bb6d9ff2204662f","","Mozilla/5.0 (X11; CrOS x86_64 15117.86.0) AppleWebKit/537.36 (KHTML, like Gecko) Chrome/107.0.0.0 Safari/537.36","WebKit","Chrome","107.0.0.0","ChromeOS","15117.86.0","null","null","","<p style=""font-size: 48px;"">+</p>","4","Filler","",""
"","","","","","sentence","15384","html-keyboard-response","76","176909","0.0-6.0-1.10","2","4","2022-11-17 14:24:57","27f05a78553e1e210bb6d9ff2204662f","","Mozilla/5.0 (X11; CrOS x86_64 15117.86.0) AppleWebKit/537.36 (KHTML, like Gecko) Chrome/107.0.0.0 Safari/537.36","WebKit","Chrome","107.0.0.0","ChromeOS","15117.86.0","1532"," ","","A thermometer was placed on the box","4","Filler","",""
"","","","","","fixation","15384","html-keyboard-response","77","177412","0.0-6.0-2.10","2","4","2022-11-17 14:24:57","27f05a78553e1e210bb6d9ff2204662f","","Mozilla/5.0 (X11; CrOS x86_64 15117.86.0) AppleWebKit/537.36 (KHTML, like Gecko) Chrome/107.0.0.0 Safari/537.36","WebKit","Chrome","107.0.0.0","ChromeOS","15117.86.0","null","null","","<p style=""font-size: 48px;"">+</p>","4","Filler","",""
"","","","","","picture","15384","image-keyboard-response","78","178224","0.0-6.0-3.10","2","4","2022-11-17 14:24:57","27f05a78553e1e210bb6d9ff2204662f","","Mozilla/5.0 (X11; CrOS x86_64 15117.86.0) AppleWebKit/537.36 (KHTML, like Gecko) Chrome/107.0.0.0 Safari/537.36","WebKit","Chrome","107.0.0.0","ChromeOS","15117.86.0","808","n","","button.jpg","4","Filler","true",""
"","","","","","fixation","15384","html-keyboard-response","79","179237","0.0-6.0-0.11","2","4","2022-11-17 14:24:57","27f05a78553e1e210bb6d9ff2204662f","","Mozilla/5.0 (X11; CrOS x86_64 15117.86.0) AppleWebKit/537.36 (KHTML, like Gecko) Chrome/107.0.0.0 Safari/537.36","WebKit","Chrome","107.0.0.0","ChromeOS","15117.86.0","null","null","","<p style=""font-size: 48px;"">+</p>","4","Filler","",""
"","","","","","sentence","15384","html-keyboard-response","80","180760","0.0-6.0-1.11","2","4","2022-11-17 14:24:57","27f05a78553e1e210bb6d9ff2204662f","","Mozilla/5.0 (X11; CrOS x86_64 15117.86.0) AppleWebKit/537.36 (KHTML, like Gecko) Chrome/107.0.0.0 Safari/537.36","WebKit","Chrome","107.0.0.0","ChromeOS","15117.86.0","1520"," ","","A towel was placed on the TV","4","Filler","",""
"","","","","","fixation","15384","html-keyboard-response","81","181269","0.0-6.0-2.11","2","4","2022-11-17 14:24:57","27f05a78553e1e210bb6d9ff2204662f","","Mozilla/5.0 (X11; CrOS x86_64 15117.86.0) AppleWebKit/537.36 (KHTML, like Gecko) Chrome/107.0.0.0 Safari/537.36","WebKit","Chrome","107.0.0.0","ChromeOS","15117.86.0","null","null","","<p style=""font-size: 48px;"">+</p>","4","Filler","",""
"","","","","","picture","15384","image-keyboard-response","82","182569","0.0-6.0-3.11","2","4","2022-11-17 14:24:57","27f05a78553e1e210bb6d9ff2204662f","","Mozilla/5.0 (X11; CrOS x86_64 15117.86.0) AppleWebKit/537.36 (KHTML, like Gecko) Chrome/107.0.0.0 Safari/537.36","WebKit","Chrome","107.0.0.0","ChromeOS","15117.86.0","1297","n","","pencil.jpg","4","Filler","true",""
"","","","","","fixation","15384","html-keyboard-response","83","183581","0.0-6.0-0.12","2","4","2022-11-17 14:24:57","27f05a78553e1e210bb6d9ff2204662f","","Mozilla/5.0 (X11; CrOS x86_64 15117.86.0) AppleWebKit/537.36 (KHTML, like Gecko) Chrome/107.0.0.0 Safari/537.36","WebKit","Chrome","107.0.0.0","ChromeOS","15117.86.0","null","null","","<p style=""font-size: 48px;"">+</p>","4","Heavy-Matched","",""
"","","","","","sentence","15384","html-keyboard-response","84","185713","0.0-6.0-1.12","2","4","2022-11-17 14:24:57","27f05a78553e1e210bb6d9ff2204662f","","Mozilla/5.0 (X11; CrOS x86_64 15117.86.0) AppleWebKit/537.36 (KHTML, like Gecko) Chrome/107.0.0.0 Safari/537.36","WebKit","Chrome","107.0.0.0","ChromeOS","15117.86.0","2129"," ","","A bowling ball dropped and smashed a piece of sushi","4","Heavy-Matched","",""
"","","","","","fixation","15384","html-keyboard-response","85","186221","0.0-6.0-2.12","2","4","2022-11-17 14:24:57","27f05a78553e1e210bb6d9ff2204662f","","Mozilla/5.0 (X11; CrOS x86_64 15117.86.0) AppleWebKit/537.36 (KHTML, like Gecko) Chrome/107.0.0.0 Safari/537.36","WebKit","Chrome","107.0.0.0","ChromeOS","15117.86.0","null","null","","<p style=""font-size: 48px;"">+</p>","4","Heavy-Matched","",""
"","","","","","picture","15384","image-keyboard-response","86","187304","0.0-6.0-3.12","2","4","2022-11-17 14:24:57","27f05a78553e1e210bb6d9ff2204662f","","Mozilla/5.0 (X11; CrOS x86_64 15117.86.0) AppleWebKit/537.36 (KHTML, like Gecko) Chrome/107.0.0.0 Safari/537.36","WebKit","Chrome","107.0.0.0","ChromeOS","15117.86.0","1076","s","","sushiS.jpg","4","Heavy-Matched","true",""
"","","","","","fixation","15384","html-keyboard-response","87","188309","0.0-6.0-0.13","2","4","2022-11-17 14:24:57","27f05a78553e1e210bb6d9ff2204662f","","Mozilla/5.0 (X11; CrOS x86_64 15117.86.0) AppleWebKit/537.36 (KHTML, like Gecko) Chrome/107.0.0.0 Safari/537.36","WebKit","Chrome","107.0.0.0","ChromeOS","15117.86.0","null","null","","<p style=""font-size: 48px;"">+</p>","4","Filler","",""
"","","","","","sentence","15384","html-keyboard-response","88","189957","0.0-6.0-1.13","2","4","2022-11-17 14:24:57","27f05a78553e1e210bb6d9ff2204662f","","Mozilla/5.0 (X11; CrOS x86_64 15117.86.0) AppleWebKit/537.36 (KHTML, like Gecko) Chrome/107.0.0.0 Safari/537.36","WebKit","Chrome","107.0.0.0","ChromeOS","15117.86.0","1644"," ","","A parrot is eating an apple","4","Filler","",""
"","","","","","fixation","15384","html-keyboard-response","89","190461","0.0-6.0-2.13","2","4","2022-11-17 14:24:57","27f05a78553e1e210bb6d9ff2204662f","","Mozilla/5.0 (X11; CrOS x86_64 15117.86.0) AppleWebKit/537.36 (KHTML, like Gecko) Chrome/107.0.0.0 Safari/537.36","WebKit","Chrome","107.0.0.0","ChromeOS","15117.86.0","null","null","","<p style=""font-size: 48px;"">+</p>","4","Filler","",""
"","","","","","picture","15384","image-keyboard-response","90","191358","0.0-6.0-3.13","2","4","2022-11-17 14:24:57","27f05a78553e1e210bb6d9ff2204662f","","Mozilla/5.0 (X11; CrOS x86_64 15117.86.0) AppleWebKit/537.36 (KHTML, like Gecko) Chrome/107.0.0.0 Safari/537.36","WebKit","Chrome","107.0.0.0","ChromeOS","15117.86.0","893","n","","shirt.jpg","4","Filler","true",""
"","","","","","fixation","15384","html-keyboard-response","91","192365","0.0-6.0-0.14","2","4","2022-11-17 14:24:57","27f05a78553e1e210bb6d9ff2204662f","","Mozilla/5.0 (X11; CrOS x86_64 15117.86.0) AppleWebKit/537.36 (KHTML, like Gecko) Chrome/107.0.0.0 Safari/537.36","WebKit","Chrome","107.0.0.0","ChromeOS","15117.86.0","null","null","","<p style=""font-size: 48px;"">+</p>","4","Filler","",""
"","","","","","sentence","15384","html-keyboard-response","92","195697","0.0-6.0-1.14","2","4","2022-11-17 14:24:57","27f05a78553e1e210bb6d9ff2204662f","","Mozilla/5.0 (X11; CrOS x86_64 15117.86.0) AppleWebKit/537.36 (KHTML, like Gecko) Chrome/107.0.0.0 Safari/537.36","WebKit","Chrome","107.0.0.0","ChromeOS","15117.86.0","3329"," ","","A puppy is playing with a ball","4","Filler","",""
"","","","","","fixation","15384","html-keyboard-response","93","196205","0.0-6.0-2.14","2","4","2022-11-17 14:24:57","27f05a78553e1e210bb6d9ff2204662f","","Mozilla/5.0 (X11; CrOS x86_64 15117.86.0) AppleWebKit/537.36 (KHTML, like Gecko) Chrome/107.0.0.0 Safari/537.36","WebKit","Chrome","107.0.0.0","ChromeOS","15117.86.0","null","null","","<p style=""font-size: 48px;"">+</p>","4","Filler","",""
"","","","","","picture","15384","image-keyboard-response","94","197458","0.0-6.0-3.14","2","4","2022-11-17 14:24:57","27f05a78553e1e210bb6d9ff2204662f","","Mozilla/5.0 (X11; CrOS x86_64 15117.86.0) AppleWebKit/537.36 (KHTML, like Gecko) Chrome/107.0.0.0 Safari/537.36","WebKit","Chrome","107.0.0.0","ChromeOS","15117.86.0","1248","s","","tennisball.jpg","4","Filler","true",""
"","","","","","fixation","15384","html-keyboard-response","95","198468","0.0-6.0-0.15","2","4","2022-11-17 14:24:57","27f05a78553e1e210bb6d9ff2204662f","","Mozilla/5.0 (X11; CrOS x86_64 15117.86.0) AppleWebKit/537.36 (KHTML, like Gecko) Chrome/107.0.0.0 Safari/537.36","WebKit","Chrome","107.0.0.0","ChromeOS","15117.86.0","null","null","","<p style=""font-size: 48px;"">+</p>","4","Heavy-Matched","",""
"","","","","","sentence","15384","html-keyboard-response","96","199902","0.0-6.0-1.15","2","4","2022-11-17 14:24:57","27f05a78553e1e210bb6d9ff2204662f","","Mozilla/5.0 (X11; CrOS x86_64 15117.86.0) AppleWebKit/537.36 (KHTML, like Gecko) Chrome/107.0.0.0 Safari/537.36","WebKit","Chrome","107.0.0.0","ChromeOS","15117.86.0","1429"," ","","A bowling ball  dropped and smashed a tomato","4","Heavy-Matched","",""
"","","","","","fixation","15384","html-keyboard-response","97","200411","0.0-6.0-2.15","2","4","2022-11-17 14:24:57","27f05a78553e1e210bb6d9ff2204662f","","Mozilla/5.0 (X11; CrOS x86_64 15117.86.0) AppleWebKit/537.36 (KHTML, like Gecko) Chrome/107.0.0.0 Safari/537.36","WebKit","Chrome","107.0.0.0","ChromeOS","15117.86.0","null","null","","<p style=""font-size: 48px;"">+</p>","4","Heavy-Matched","",""
"","","","","","picture","15384","image-keyboard-response","98","200994","0.0-6.0-3.15","2","4","2022-11-17 14:24:57","27f05a78553e1e210bb6d9ff2204662f","","Mozilla/5.0 (X11; CrOS x86_64 15117.86.0) AppleWebKit/537.36 (KHTML, like Gecko) Chrome/107.0.0.0 Safari/537.36","WebKit","Chrome","107.0.0.0","ChromeOS","15117.86.0","578","n","","tomatoS.jpg","4","Heavy-Matched","false",""
"","","","","","fixation","15384","html-keyboard-response","99","202005","0.0-6.0-0.16","2","4","2022-11-17 14:24:57","27f05a78553e1e210bb6d9ff2204662f","","Mozilla/5.0 (X11; CrOS x86_64 15117.86.0) AppleWebKit/537.36 (KHTML, like Gecko) Chrome/107.0.0.0 Safari/537.36","WebKit","Chrome","107.0.0.0","ChromeOS","15117.86.0","null","null","","<p style=""font-size: 48px;"">+</p>","4","Filler","",""
"","","","","","sentence","15384","html-keyboard-response","100","203636","0.0-6.0-1.16","2","4","2022-11-17 14:24:57","27f05a78553e1e210bb6d9ff2204662f","","Mozilla/5.0 (X11; CrOS x86_64 15117.86.0) AppleWebKit/537.36 (KHTML, like Gecko) Chrome/107.0.0.0 Safari/537.36","WebKit","Chrome","107.0.0.0","ChromeOS","15117.86.0","1627"," ","","A kitten is playing in the sandbox","4","Filler","",""
"","","","","","fixation","15384","html-keyboard-response","101","204141","0.0-6.0-2.16","2","4","2022-11-17 14:24:57","27f05a78553e1e210bb6d9ff2204662f","","Mozilla/5.0 (X11; CrOS x86_64 15117.86.0) AppleWebKit/537.36 (KHTML, like Gecko) Chrome/107.0.0.0 Safari/537.36","WebKit","Chrome","107.0.0.0","ChromeOS","15117.86.0","null","null","","<p style=""font-size: 48px;"">+</p>","4","Filler","",""
"","","","","","picture","15384","image-keyboard-response","102","205123","0.0-6.0-3.16","2","4","2022-11-17 14:24:57","27f05a78553e1e210bb6d9ff2204662f","","Mozilla/5.0 (X11; CrOS x86_64 15117.86.0) AppleWebKit/537.36 (KHTML, like Gecko) Chrome/107.0.0.0 Safari/537.36","WebKit","Chrome","107.0.0.0","ChromeOS","15117.86.0","976","n","","dustbin.jpg","4","Filler","true",""
"","","","","","fixation","15384","html-keyboard-response","103","206133","0.0-6.0-0.17","2","4","2022-11-17 14:24:57","27f05a78553e1e210bb6d9ff2204662f","","Mozilla/5.0 (X11; CrOS x86_64 15117.86.0) AppleWebKit/537.36 (KHTML, like Gecko) Chrome/107.0.0.0 Safari/537.36","WebKit","Chrome","107.0.0.0","ChromeOS","15117.86.0","null","null","","<p style=""font-size: 48px;"">+</p>","4","Filler","",""
"","","","","","sentence","15384","html-keyboard-response","104","207203","0.0-6.0-1.17","2","4","2022-11-17 14:24:57","27f05a78553e1e210bb6d9ff2204662f","","Mozilla/5.0 (X11; CrOS x86_64 15117.86.0) AppleWebKit/537.36 (KHTML, like Gecko) Chrome/107.0.0.0 Safari/537.36","WebKit","Chrome","107.0.0.0","ChromeOS","15117.86.0","1066"," ","","A cook is taking a knife","4","Filler","",""
"","","","","","fixation","15384","html-keyboard-response","105","207709","0.0-6.0-2.17","2","4","2022-11-17 14:24:57","27f05a78553e1e210bb6d9ff2204662f","","Mozilla/5.0 (X11; CrOS x86_64 15117.86.0) AppleWebKit/537.36 (KHTML, like Gecko) Chrome/107.0.0.0 Safari/537.36","WebKit","Chrome","107.0.0.0","ChromeOS","15117.86.0","null","null","","<p style=""font-size: 48px;"">+</p>","4","Filler","",""
"","","","","","picture","15384","image-keyboard-response","106","208402","0.0-6.0-3.17","2","4","2022-11-17 14:24:57","27f05a78553e1e210bb6d9ff2204662f","","Mozilla/5.0 (X11; CrOS x86_64 15117.86.0) AppleWebKit/537.36 (KHTML, like Gecko) Chrome/107.0.0.0 Safari/537.36","WebKit","Chrome","107.0.0.0","ChromeOS","15117.86.0","688","s","","knife.jpg","4","Filler","true",""
"","","","","","fixation","15384","html-keyboard-response","107","209412","0.0-6.0-0.18","2","4","2022-11-17 14:24:57","27f05a78553e1e210bb6d9ff2204662f","","Mozilla/5.0 (X11; CrOS x86_64 15117.86.0) AppleWebKit/537.36 (KHTML, like Gecko) Chrome/107.0.0.0 Safari/537.36","WebKit","Chrome","107.0.0.0","ChromeOS","15117.86.0","null","null","","<p style=""font-size: 48px;"">+</p>","4","Filler","",""
"","","","","","sentence","15384","html-keyboard-response","108","211091","0.0-6.0-1.18","2","4","2022-11-17 14:24:57","27f05a78553e1e210bb6d9ff2204662f","","Mozilla/5.0 (X11; CrOS x86_64 15117.86.0) AppleWebKit/537.36 (KHTML, like Gecko) Chrome/107.0.0.0 Safari/537.36","WebKit","Chrome","107.0.0.0","ChromeOS","15117.86.0","1674"," ","","A hairdresser is taking scissors","4","Filler","",""
"","","","","","fixation","15384","html-keyboard-response","109","211597","0.0-6.0-2.18","2","4","2022-11-17 14:24:57","27f05a78553e1e210bb6d9ff2204662f","","Mozilla/5.0 (X11; CrOS x86_64 15117.86.0) AppleWebKit/537.36 (KHTML, like Gecko) Chrome/107.0.0.0 Safari/537.36","WebKit","Chrome","107.0.0.0","ChromeOS","15117.86.0","null","null","","<p style=""font-size: 48px;"">+</p>","4","Filler","",""
"","","","","","picture","15384","image-keyboard-response","110","212422","0.0-6.0-3.18","2","4","2022-11-17 14:24:57","27f05a78553e1e210bb6d9ff2204662f","","Mozilla/5.0 (X11; CrOS x86_64 15117.86.0) AppleWebKit/537.36 (KHTML, like Gecko) Chrome/107.0.0.0 Safari/537.36","WebKit","Chrome","107.0.0.0","ChromeOS","15117.86.0","820","n","","sock.jpg","4","Filler","true",""
"","","","","","fixation","15384","html-keyboard-response","111","213429","0.0-6.0-0.19","2","4","2022-11-17 14:24:57","27f05a78553e1e210bb6d9ff2204662f","","Mozilla/5.0 (X11; CrOS x86_64 15117.86.0) AppleWebKit/537.36 (KHTML, like Gecko) Chrome/107.0.0.0 Safari/537.36","WebKit","Chrome","107.0.0.0","ChromeOS","15117.86.0","null","null","","<p style=""font-size: 48px;"">+</p>","4","Filler","",""
"","","","","","sentence","15384","html-keyboard-response","112","214527","0.0-6.0-1.19","2","4","2022-11-17 14:24:57","27f05a78553e1e210bb6d9ff2204662f","","Mozilla/5.0 (X11; CrOS x86_64 15117.86.0) AppleWebKit/537.36 (KHTML, like Gecko) Chrome/107.0.0.0 Safari/537.36","WebKit","Chrome","107.0.0.0","ChromeOS","15117.86.0","1092"," ","","A panda is resting on a tree","4","Filler","",""
"","","","","","fixation","15384","html-keyboard-response","113","215036","0.0-6.0-2.19","2","4","2022-11-17 14:24:57","27f05a78553e1e210bb6d9ff2204662f","","Mozilla/5.0 (X11; CrOS x86_64 15117.86.0) AppleWebKit/537.36 (KHTML, like Gecko) Chrome/107.0.0.0 Safari/537.36","WebKit","Chrome","107.0.0.0","ChromeOS","15117.86.0","null","null","","<p style=""font-size: 48px;"">+</p>","4","Filler","",""
"","","","","","picture","15384","image-keyboard-response","114","215652","0.0-6.0-3.19","2","4","2022-11-17 14:24:57","27f05a78553e1e210bb6d9ff2204662f","","Mozilla/5.0 (X11; CrOS x86_64 15117.86.0) AppleWebKit/537.36 (KHTML, like Gecko) Chrome/107.0.0.0 Safari/537.36","WebKit","Chrome","107.0.0.0","ChromeOS","15117.86.0","611","n","","dollar.jpg","4","Filler","true",""
"","","","","","fixation","15384","html-keyboard-response","115","216660","0.0-6.0-0.20","2","4","2022-11-17 14:24:57","27f05a78553e1e210bb6d9ff2204662f","","Mozilla/5.0 (X11; CrOS x86_64 15117.86.0) AppleWebKit/537.36 (KHTML, like Gecko) Chrome/107.0.0.0 Safari/537.36","WebKit","Chrome","107.0.0.0","ChromeOS","15117.86.0","null","null","","<p style=""font-size: 48px;"">+</p>","4","Light-Contradictory","",""
"","","","","","sentence","15384","html-keyboard-response","116","218903","0.0-6.0-1.20","2","4","2022-11-17 14:24:57","27f05a78553e1e210bb6d9ff2204662f","","Mozilla/5.0 (X11; CrOS x86_64 15117.86.0) AppleWebKit/537.36 (KHTML, like Gecko) Chrome/107.0.0.0 Safari/537.36","WebKit","Chrome","107.0.0.0","ChromeOS","15117.86.0","2238"," ","","A balloon dropped and smashed a light bulb","4","Light-Contradictory","",""
"","","","","","fixation","15384","html-keyboard-response","117","219413","0.0-6.0-2.20","2","4","2022-11-17 14:24:57","27f05a78553e1e210bb6d9ff2204662f","","Mozilla/5.0 (X11; CrOS x86_64 15117.86.0) AppleWebKit/537.36 (KHTML, like Gecko) Chrome/107.0.0.0 Safari/537.36","WebKit","Chrome","107.0.0.0","ChromeOS","15117.86.0","null","null","","<p style=""font-size: 48px;"">+</p>","4","Light-Contradictory","",""
"","","","","","picture","15384","image-keyboard-response","118","220776","0.0-6.0-3.20","2","4","2022-11-17 14:24:57","27f05a78553e1e210bb6d9ff2204662f","","Mozilla/5.0 (X11; CrOS x86_64 15117.86.0) AppleWebKit/537.36 (KHTML, like Gecko) Chrome/107.0.0.0 Safari/537.36","WebKit","Chrome","107.0.0.0","ChromeOS","15117.86.0","1358","s","","lampS.jpg","4","Light-Contradictory","true",""
"","","","","","fixation","15384","html-keyboard-response","119","221789","0.0-6.0-0.21","2","4","2022-11-17 14:24:57","27f05a78553e1e210bb6d9ff2204662f","","Mozilla/5.0 (X11; CrOS x86_64 15117.86.0) AppleWebKit/537.36 (KHTML, like Gecko) Chrome/107.0.0.0 Safari/537.36","WebKit","Chrome","107.0.0.0","ChromeOS","15117.86.0","null","null","","<p style=""font-size: 48px;"">+</p>","4","Filler","",""
"","","","","","sentence","15384","html-keyboard-response","120","223012","0.0-6.0-1.21","2","4","2022-11-17 14:24:57","27f05a78553e1e210bb6d9ff2204662f","","Mozilla/5.0 (X11; CrOS x86_64 15117.86.0) AppleWebKit/537.36 (KHTML, like Gecko) Chrome/107.0.0.0 Safari/537.36","WebKit","Chrome","107.0.0.0","ChromeOS","15117.86.0","1218"," ","","A man is playing with a cat","4","Filler","",""
"","","","","","fixation","15384","html-keyboard-response","121","223525","0.0-6.0-2.21","2","4","2022-11-17 14:24:57","27f05a78553e1e210bb6d9ff2204662f","","Mozilla/5.0 (X11; CrOS x86_64 15117.86.0) AppleWebKit/537.36 (KHTML, like Gecko) Chrome/107.0.0.0 Safari/537.36","WebKit","Chrome","107.0.0.0","ChromeOS","15117.86.0","null","null","","<p style=""font-size: 48px;"">+</p>","4","Filler","",""
"","","","","","picture","15384","image-keyboard-response","122","224811","0.0-6.0-3.21","2","4","2022-11-17 14:24:57","27f05a78553e1e210bb6d9ff2204662f","","Mozilla/5.0 (X11; CrOS x86_64 15117.86.0) AppleWebKit/537.36 (KHTML, like Gecko) Chrome/107.0.0.0 Safari/537.36","WebKit","Chrome","107.0.0.0","ChromeOS","15117.86.0","1280","n","","ceramicplate.jpg","4","Filler","true",""
"","","","","","fixation","15384","html-keyboard-response","123","225821","0.0-6.0-0.22","2","4","2022-11-17 14:24:57","27f05a78553e1e210bb6d9ff2204662f","","Mozilla/5.0 (X11; CrOS x86_64 15117.86.0) AppleWebKit/537.36 (KHTML, like Gecko) Chrome/107.0.0.0 Safari/537.36","WebKit","Chrome","107.0.0.0","ChromeOS","15117.86.0","null","null","","<p style=""font-size: 48px;"">+</p>","4","Heavy-Matched","",""
"","","","","","sentence","15384","html-keyboard-response","124","226816","0.0-6.0-1.22","2","4","2022-11-17 14:24:57","27f05a78553e1e210bb6d9ff2204662f","","Mozilla/5.0 (X11; CrOS x86_64 15117.86.0) AppleWebKit/537.36 (KHTML, like Gecko) Chrome/107.0.0.0 Safari/537.36","WebKit","Chrome","107.0.0.0","ChromeOS","15117.86.0","991"," ","","A bowling ball dropped and smashed a tile","4","Heavy-Matched","",""
"","","","","","fixation","15384","html-keyboard-response","125","227324","0.0-6.0-2.22","2","4","2022-11-17 14:24:57","27f05a78553e1e210bb6d9ff2204662f","","Mozilla/5.0 (X11; CrOS x86_64 15117.86.0) AppleWebKit/537.36 (KHTML, like Gecko) Chrome/107.0.0.0 Safari/537.36","WebKit","Chrome","107.0.0.0","ChromeOS","15117.86.0","null","null","","<p style=""font-size: 48px;"">+</p>","4","Heavy-Matched","",""
"","","","","","picture","15384","image-keyboard-response","126","228109","0.0-6.0-3.22","2","4","2022-11-17 14:24:57","27f05a78553e1e210bb6d9ff2204662f","","Mozilla/5.0 (X11; CrOS x86_64 15117.86.0) AppleWebKit/537.36 (KHTML, like Gecko) Chrome/107.0.0.0 Safari/537.36","WebKit","Chrome","107.0.0.0","ChromeOS","15117.86.0","779","s","","tileS.jpg","4","Heavy-Matched","true",""
"","","","","","fixation","15384","html-keyboard-response","127","229117","0.0-6.0-0.23","2","4","2022-11-17 14:24:57","27f05a78553e1e210bb6d9ff2204662f","","Mozilla/5.0 (X11; CrOS x86_64 15117.86.0) AppleWebKit/537.36 (KHTML, like Gecko) Chrome/107.0.0.0 Safari/537.36","WebKit","Chrome","107.0.0.0","ChromeOS","15117.86.0","null","null","","<p style=""font-size: 48px;"">+</p>","4","Filler","",""
"","","","","","sentence","15384","html-keyboard-response","128","230223","0.0-6.0-1.23","2","4","2022-11-17 14:24:57","27f05a78553e1e210bb6d9ff2204662f","","Mozilla/5.0 (X11; CrOS x86_64 15117.86.0) AppleWebKit/537.36 (KHTML, like Gecko) Chrome/107.0.0.0 Safari/537.36","WebKit","Chrome","107.0.0.0","ChromeOS","15117.86.0","1102"," ","","An actress is taking a microphone","4","Filler","",""
"","","","","","fixation","15384","html-keyboard-response","129","230733","0.0-6.0-2.23","2","4","2022-11-17 14:24:57","27f05a78553e1e210bb6d9ff2204662f","","Mozilla/5.0 (X11; CrOS x86_64 15117.86.0) AppleWebKit/537.36 (KHTML, like Gecko) Chrome/107.0.0.0 Safari/537.36","WebKit","Chrome","107.0.0.0","ChromeOS","15117.86.0","null","null","","<p style=""font-size: 48px;"">+</p>","4","Filler","",""
"","","","","","picture","15384","image-keyboard-response","130","231608","0.0-6.0-3.23","2","4","2022-11-17 14:24:57","27f05a78553e1e210bb6d9ff2204662f","","Mozilla/5.0 (X11; CrOS x86_64 15117.86.0) AppleWebKit/537.36 (KHTML, like Gecko) Chrome/107.0.0.0 Safari/537.36","WebKit","Chrome","107.0.0.0","ChromeOS","15117.86.0","870","n","","pants.jpg","4","Filler","true",""
"","","","","","fixation","15384","html-keyboard-response","131","232621","0.0-6.0-0.24","2","4","2022-11-17 14:24:57","27f05a78553e1e210bb6d9ff2204662f","","Mozilla/5.0 (X11; CrOS x86_64 15117.86.0) AppleWebKit/537.36 (KHTML, like Gecko) Chrome/107.0.0.0 Safari/537.36","WebKit","Chrome","107.0.0.0","ChromeOS","15117.86.0","null","null","","<p style=""font-size: 48px;"">+</p>","4","Heavy-Contradictory","",""
"","","","","","sentence","15384","html-keyboard-response","132","234306","0.0-6.0-1.24","2","4","2022-11-17 14:24:57","27f05a78553e1e210bb6d9ff2204662f","","Mozilla/5.0 (X11; CrOS x86_64 15117.86.0) AppleWebKit/537.36 (KHTML, like Gecko) Chrome/107.0.0.0 Safari/537.36","WebKit","Chrome","107.0.0.0","ChromeOS","15117.86.0","1681"," ","","A bowling ball dropped and touched a porcelain figure","4","Heavy-Contradictory","",""
"","","","","","fixation","15384","html-keyboard-response","133","234813","0.0-6.0-2.24","2","4","2022-11-17 14:24:57","27f05a78553e1e210bb6d9ff2204662f","","Mozilla/5.0 (X11; CrOS x86_64 15117.86.0) AppleWebKit/537.36 (KHTML, like Gecko) Chrome/107.0.0.0 Safari/537.36","WebKit","Chrome","107.0.0.0","ChromeOS","15117.86.0","null","null","","<p style=""font-size: 48px;"">+</p>","4","Heavy-Contradictory","",""
"","","","","","picture","15384","image-keyboard-response","134","235308","0.0-6.0-3.24","2","4","2022-11-17 14:24:57","27f05a78553e1e210bb6d9ff2204662f","","Mozilla/5.0 (X11; CrOS x86_64 15117.86.0) AppleWebKit/537.36 (KHTML, like Gecko) Chrome/107.0.0.0 Safari/537.36","WebKit","Chrome","107.0.0.0","ChromeOS","15117.86.0","490","s","","figureS.jpg","4","Heavy-Contradictory","true",""
"","","","","","fixation","15384","html-keyboard-response","135","236317","0.0-6.0-0.25","2","4","2022-11-17 14:24:57","27f05a78553e1e210bb6d9ff2204662f","","Mozilla/5.0 (X11; CrOS x86_64 15117.86.0) AppleWebKit/537.36 (KHTML, like Gecko) Chrome/107.0.0.0 Safari/537.36","WebKit","Chrome","107.0.0.0","ChromeOS","15117.86.0","null","null","","<p style=""font-size: 48px;"">+</p>","4","Filler","",""
"","","","","","sentence","15384","html-keyboard-response","136","238736","0.0-6.0-1.25","2","4","2022-11-17 14:24:57","27f05a78553e1e210bb6d9ff2204662f","","Mozilla/5.0 (X11; CrOS x86_64 15117.86.0) AppleWebKit/537.36 (KHTML, like Gecko) Chrome/107.0.0.0 Safari/537.36","WebKit","Chrome","107.0.0.0","ChromeOS","15117.86.0","2414"," ","","A photographer is taking a photo of a lion","4","Filler","",""
"","","","","","fixation","15384","html-keyboard-response","137","239245","0.0-6.0-2.25","2","4","2022-11-17 14:24:57","27f05a78553e1e210bb6d9ff2204662f","","Mozilla/5.0 (X11; CrOS x86_64 15117.86.0) AppleWebKit/537.36 (KHTML, like Gecko) Chrome/107.0.0.0 Safari/537.36","WebKit","Chrome","107.0.0.0","ChromeOS","15117.86.0","null","null","","<p style=""font-size: 48px;"">+</p>","4","Filler","",""
"","","","","","picture","15384","image-keyboard-response","138","239914","0.0-6.0-3.25","2","4","2022-11-17 14:24:57","27f05a78553e1e210bb6d9ff2204662f","","Mozilla/5.0 (X11; CrOS x86_64 15117.86.0) AppleWebKit/537.36 (KHTML, like Gecko) Chrome/107.0.0.0 Safari/537.36","WebKit","Chrome","107.0.0.0","ChromeOS","15117.86.0","665","s","","lion.jpg","4","Filler","true",""
"","","","","","fixation","15384","html-keyboard-response","139","240925","0.0-6.0-0.26","2","4","2022-11-17 14:24:57","27f05a78553e1e210bb6d9ff2204662f","","Mozilla/5.0 (X11; CrOS x86_64 15117.86.0) AppleWebKit/537.36 (KHTML, like Gecko) Chrome/107.0.0.0 Safari/537.36","WebKit","Chrome","107.0.0.0","ChromeOS","15117.86.0","null","null","","<p style=""font-size: 48px;"">+</p>","4","Heavy-Contradictory","",""
"","","","","","sentence","15384","html-keyboard-response","140","242498","0.0-6.0-1.26","2","4","2022-11-17 14:24:57","27f05a78553e1e210bb6d9ff2204662f","","Mozilla/5.0 (X11; CrOS x86_64 15117.86.0) AppleWebKit/537.36 (KHTML, like Gecko) Chrome/107.0.0.0 Safari/537.36","WebKit","Chrome","107.0.0.0","ChromeOS","15117.86.0","1568"," ","","A bowling ball dropped and touched a piece of cake","4","Heavy-Contradictory","",""
"","","","","","fixation","15384","html-keyboard-response","141","243005","0.0-6.0-2.26","2","4","2022-11-17 14:24:57","27f05a78553e1e210bb6d9ff2204662f","","Mozilla/5.0 (X11; CrOS x86_64 15117.86.0) AppleWebKit/537.36 (KHTML, like Gecko) Chrome/107.0.0.0 Safari/537.36","WebKit","Chrome","107.0.0.0","ChromeOS","15117.86.0","null","null","","<p style=""font-size: 48px;"">+</p>","4","Heavy-Contradictory","",""
"","","","","","picture","15384","image-keyboard-response","142","243958","0.0-6.0-3.26","2","4","2022-11-17 14:24:57","27f05a78553e1e210bb6d9ff2204662f","","Mozilla/5.0 (X11; CrOS x86_64 15117.86.0) AppleWebKit/537.36 (KHTML, like Gecko) Chrome/107.0.0.0 Safari/537.36","WebKit","Chrome","107.0.0.0","ChromeOS","15117.86.0","948","s","","cakeS.jpg","4","Heavy-Contradictory","true",""
"","","","","","fixation","15384","html-keyboard-response","143","244965","0.0-6.0-0.27","2","4","2022-11-17 14:24:57","27f05a78553e1e210bb6d9ff2204662f","","Mozilla/5.0 (X11; CrOS x86_64 15117.86.0) AppleWebKit/537.36 (KHTML, like Gecko) Chrome/107.0.0.0 Safari/537.36","WebKit","Chrome","107.0.0.0","ChromeOS","15117.86.0","null","null","","<p style=""font-size: 48px;"">+</p>","4","Light-Contradictory","",""
"","","","","","sentence","15384","html-keyboard-response","144","246137","0.0-6.0-1.27","2","4","2022-11-17 14:24:57","27f05a78553e1e210bb6d9ff2204662f","","Mozilla/5.0 (X11; CrOS x86_64 15117.86.0) AppleWebKit/537.36 (KHTML, like Gecko) Chrome/107.0.0.0 Safari/537.36","WebKit","Chrome","107.0.0.0","ChromeOS","15117.86.0","1168"," ","","A balloon dropped and smashed a rice cake","4","Light-Contradictory","",""
"","","","","","fixation","15384","html-keyboard-response","145","246645","0.0-6.0-2.27","2","4","2022-11-17 14:24:57","27f05a78553e1e210bb6d9ff2204662f","","Mozilla/5.0 (X11; CrOS x86_64 15117.86.0) AppleWebKit/537.36 (KHTML, like Gecko) Chrome/107.0.0.0 Safari/537.36","WebKit","Chrome","107.0.0.0","ChromeOS","15117.86.0","null","null","","<p style=""font-size: 48px;"">+</p>","4","Light-Contradictory","",""
"","","","","","picture","15384","image-keyboard-response","146","247863","0.0-6.0-3.27","2","4","2022-11-17 14:24:57","27f05a78553e1e210bb6d9ff2204662f","","Mozilla/5.0 (X11; CrOS x86_64 15117.86.0) AppleWebKit/537.36 (KHTML, like Gecko) Chrome/107.0.0.0 Safari/537.36","WebKit","Chrome","107.0.0.0","ChromeOS","15117.86.0","1213","n","","tortitaS.jpg","4","Light-Contradictory","false",""
"","","","","","fixation","15384","html-keyboard-response","147","248868","0.0-6.0-0.28","2","4","2022-11-17 14:24:57","27f05a78553e1e210bb6d9ff2204662f","","Mozilla/5.0 (X11; CrOS x86_64 15117.86.0) AppleWebKit/537.36 (KHTML, like Gecko) Chrome/107.0.0.0 Safari/537.36","WebKit","Chrome","107.0.0.0","ChromeOS","15117.86.0","null","null","","<p style=""font-size: 48px;"">+</p>","4","Filler","",""
"","","","","","sentence","15384","html-keyboard-response","148","250124","0.0-6.0-1.28","2","4","2022-11-17 14:24:57","27f05a78553e1e210bb6d9ff2204662f","","Mozilla/5.0 (X11; CrOS x86_64 15117.86.0) AppleWebKit/537.36 (KHTML, like Gecko) Chrome/107.0.0.0 Safari/537.36","WebKit","Chrome","107.0.0.0","ChromeOS","15117.86.0","1251"," ","","A man is boiling potatoes.","4","Filler","",""
"","","","","","fixation","15384","html-keyboard-response","149","250629","0.0-6.0-2.28","2","4","2022-11-17 14:24:57","27f05a78553e1e210bb6d9ff2204662f","","Mozilla/5.0 (X11; CrOS x86_64 15117.86.0) AppleWebKit/537.36 (KHTML, like Gecko) Chrome/107.0.0.0 Safari/537.36","WebKit","Chrome","107.0.0.0","ChromeOS","15117.86.0","null","null","","<p style=""font-size: 48px;"">+</p>","4","Filler","",""
"","","","","","picture","15384","image-keyboard-response","150","251368","0.0-6.0-3.28","2","4","2022-11-17 14:24:57","27f05a78553e1e210bb6d9ff2204662f","","Mozilla/5.0 (X11; CrOS x86_64 15117.86.0) AppleWebKit/537.36 (KHTML, like Gecko) Chrome/107.0.0.0 Safari/537.36","WebKit","Chrome","107.0.0.0","ChromeOS","15117.86.0","734","n","","cup.jpg","4","Filler","true",""
"","","","","","fixation","15384","html-keyboard-response","151","252380","0.0-6.0-0.29","2","4","2022-11-17 14:24:57","27f05a78553e1e210bb6d9ff2204662f","","Mozilla/5.0 (X11; CrOS x86_64 15117.86.0) AppleWebKit/537.36 (KHTML, like Gecko) Chrome/107.0.0.0 Safari/537.36","WebKit","Chrome","107.0.0.0","ChromeOS","15117.86.0","null","null","","<p style=""font-size: 48px;"">+</p>","4","Filler","",""
"","","","","","sentence","15384","html-keyboard-response","152","254292","0.0-6.0-1.29","2","4","2022-11-17 14:24:57","27f05a78553e1e210bb6d9ff2204662f","","Mozilla/5.0 (X11; CrOS x86_64 15117.86.0) AppleWebKit/537.36 (KHTML, like Gecko) Chrome/107.0.0.0 Safari/537.36","WebKit","Chrome","107.0.0.0","ChromeOS","15117.86.0","1906"," ","","A donkey is drinking water.","4","Filler","",""
"","","","","","fixation","15384","html-keyboard-response","153","254797","0.0-6.0-2.29","2","4","2022-11-17 14:24:57","27f05a78553e1e210bb6d9ff2204662f","","Mozilla/5.0 (X11; CrOS x86_64 15117.86.0) AppleWebKit/537.36 (KHTML, like Gecko) Chrome/107.0.0.0 Safari/537.36","WebKit","Chrome","107.0.0.0","ChromeOS","15117.86.0","null","null","","<p style=""font-size: 48px;"">+</p>","4","Filler","",""
"","","","","","picture","15384","image-keyboard-response","154","255572","0.0-6.0-3.29","2","4","2022-11-17 14:24:57","27f05a78553e1e210bb6d9ff2204662f","","Mozilla/5.0 (X11; CrOS x86_64 15117.86.0) AppleWebKit/537.36 (KHTML, like Gecko) Chrome/107.0.0.0 Safari/537.36","WebKit","Chrome","107.0.0.0","ChromeOS","15117.86.0","769","n","","couch.jpg","4","Filler","true",""
"","","","","","fixation","15384","html-keyboard-response","155","256581","0.0-6.0-0.30","2","4","2022-11-17 14:24:57","27f05a78553e1e210bb6d9ff2204662f","","Mozilla/5.0 (X11; CrOS x86_64 15117.86.0) AppleWebKit/537.36 (KHTML, like Gecko) Chrome/107.0.0.0 Safari/537.36","WebKit","Chrome","107.0.0.0","ChromeOS","15117.86.0","null","null","","<p style=""font-size: 48px;"">+</p>","4","Filler","",""
"","","","","","sentence","15384","html-keyboard-response","156","257418","0.0-6.0-1.30","2","4","2022-11-17 14:24:57","27f05a78553e1e210bb6d9ff2204662f","","Mozilla/5.0 (X11; CrOS x86_64 15117.86.0) AppleWebKit/537.36 (KHTML, like Gecko) Chrome/107.0.0.0 Safari/537.36","WebKit","Chrome","107.0.0.0","ChromeOS","15117.86.0","832"," ","","An owl is sitting on the branch","4","Filler","",""
"","","","","","fixation","15384","html-keyboard-response","157","257925","0.0-6.0-2.30","2","4","2022-11-17 14:24:57","27f05a78553e1e210bb6d9ff2204662f","","Mozilla/5.0 (X11; CrOS x86_64 15117.86.0) AppleWebKit/537.36 (KHTML, like Gecko) Chrome/107.0.0.0 Safari/537.36","WebKit","Chrome","107.0.0.0","ChromeOS","15117.86.0","null","null","","<p style=""font-size: 48px;"">+</p>","4","Filler","",""
"","","","","","picture","15384","image-keyboard-response","158","258624","0.0-6.0-3.30","2","4","2022-11-17 14:24:57","27f05a78553e1e210bb6d9ff2204662f","","Mozilla/5.0 (X11; CrOS x86_64 15117.86.0) AppleWebKit/537.36 (KHTML, like Gecko) Chrome/107.0.0.0 Safari/537.36","WebKit","Chrome","107.0.0.0","ChromeOS","15117.86.0","693","n","","rubberduck.jpg","4","Filler","true",""
"","","","","","fixation","15384","html-keyboard-response","159","259637","0.0-6.0-0.31","2","4","2022-11-17 14:24:57","27f05a78553e1e210bb6d9ff2204662f","","Mozilla/5.0 (X11; CrOS x86_64 15117.86.0) AppleWebKit/537.36 (KHTML, like Gecko) Chrome/107.0.0.0 Safari/537.36","WebKit","Chrome","107.0.0.0","ChromeOS","15117.86.0","null","null","","<p style=""font-size: 48px;"">+</p>","4","Filler","",""
"","","","","","sentence","15384","html-keyboard-response","160","260002","0.0-6.0-1.31","2","4","2022-11-17 14:24:57","27f05a78553e1e210bb6d9ff2204662f","","Mozilla/5.0 (X11; CrOS x86_64 15117.86.0) AppleWebKit/537.36 (KHTML, like Gecko) Chrome/107.0.0.0 Safari/537.36","WebKit","Chrome","107.0.0.0","ChromeOS","15117.86.0","359"," ","","A fork was placed on the plate","4","Filler","",""
"","","","","","fixation","15384","html-keyboard-response","161","260517","0.0-6.0-2.31","2","4","2022-11-17 14:24:57","27f05a78553e1e210bb6d9ff2204662f","","Mozilla/5.0 (X11; CrOS x86_64 15117.86.0) AppleWebKit/537.36 (KHTML, like Gecko) Chrome/107.0.0.0 Safari/537.36","WebKit","Chrome","107.0.0.0","ChromeOS","15117.86.0","null","null","","<p style=""font-size: 48px;"">+</p>","4","Filler","",""
"","","","","","picture","15384","image-keyboard-response","162","261455","0.0-6.0-3.31","2","4","2022-11-17 14:24:57","27f05a78553e1e210bb6d9ff2204662f","","Mozilla/5.0 (X11; CrOS x86_64 15117.86.0) AppleWebKit/537.36 (KHTML, like Gecko) Chrome/107.0.0.0 Safari/537.36","WebKit","Chrome","107.0.0.0","ChromeOS","15117.86.0","933","s","","plate.jpg","4","Filler","true",""
"","","","","","fixation","15384","html-keyboard-response","163","262469","0.0-6.0-0.32","2","4","2022-11-17 14:24:57","27f05a78553e1e210bb6d9ff2204662f","","Mozilla/5.0 (X11; CrOS x86_64 15117.86.0) AppleWebKit/537.36 (KHTML, like Gecko) Chrome/107.0.0.0 Safari/537.36","WebKit","Chrome","107.0.0.0","ChromeOS","15117.86.0","null","null","","<p style=""font-size: 48px;"">+</p>","4","Filler","",""
"","","","","","sentence","15384","html-keyboard-response","164","264101","0.0-6.0-1.32","2","4","2022-11-17 14:24:57","27f05a78553e1e210bb6d9ff2204662f","","Mozilla/5.0 (X11; CrOS x86_64 15117.86.0) AppleWebKit/537.36 (KHTML, like Gecko) Chrome/107.0.0.0 Safari/537.36","WebKit","Chrome","107.0.0.0","ChromeOS","15117.86.0","1627"," ","","A watch was placed on the laptop","4","Filler","",""
"","","","","","fixation","15384","html-keyboard-response","165","264621","0.0-6.0-2.32","2","4","2022-11-17 14:24:57","27f05a78553e1e210bb6d9ff2204662f","","Mozilla/5.0 (X11; CrOS x86_64 15117.86.0) AppleWebKit/537.36 (KHTML, like Gecko) Chrome/107.0.0.0 Safari/537.36","WebKit","Chrome","107.0.0.0","ChromeOS","15117.86.0","null","null","","<p style=""font-size: 48px;"">+</p>","4","Filler","",""
"","","","","","picture","15384","image-keyboard-response","166","265420","0.0-6.0-3.32","2","4","2022-11-17 14:24:57","27f05a78553e1e210bb6d9ff2204662f","","Mozilla/5.0 (X11; CrOS x86_64 15117.86.0) AppleWebKit/537.36 (KHTML, like Gecko) Chrome/107.0.0.0 Safari/537.36","WebKit","Chrome","107.0.0.0","ChromeOS","15117.86.0","792","n","","bow.jpg","4","Filler","true",""
"","","","","","fixation","15384","html-keyboard-response","167","266429","0.0-6.0-0.33","2","4","2022-11-17 14:24:57","27f05a78553e1e210bb6d9ff2204662f","","Mozilla/5.0 (X11; CrOS x86_64 15117.86.0) AppleWebKit/537.36 (KHTML, like Gecko) Chrome/107.0.0.0 Safari/537.36","WebKit","Chrome","107.0.0.0","ChromeOS","15117.86.0","null","null","","<p style=""font-size: 48px;"">+</p>","4","Heavy-Contradictory","",""
"","","","","","sentence","15384","html-keyboard-response","168","267811","0.0-6.0-1.33","2","4","2022-11-17 14:24:57","27f05a78553e1e210bb6d9ff2204662f","","Mozilla/5.0 (X11; CrOS x86_64 15117.86.0) AppleWebKit/537.36 (KHTML, like Gecko) Chrome/107.0.0.0 Safari/537.36","WebKit","Chrome","107.0.0.0","ChromeOS","15117.86.0","1377"," ","","A bowling ball dropped and touched a TV","4","Heavy-Contradictory","",""
"","","","","","fixation","15384","html-keyboard-response","169","268325","0.0-6.0-2.33","2","4","2022-11-17 14:24:57","27f05a78553e1e210bb6d9ff2204662f","","Mozilla/5.0 (X11; CrOS x86_64 15117.86.0) AppleWebKit/537.36 (KHTML, like Gecko) Chrome/107.0.0.0 Safari/537.36","WebKit","Chrome","107.0.0.0","ChromeOS","15117.86.0","null","null","","<p style=""font-size: 48px;"">+</p>","4","Heavy-Contradictory","",""
"","","","","","picture","15384","image-keyboard-response","170","269274","0.0-6.0-3.33","2","4","2022-11-17 14:24:57","27f05a78553e1e210bb6d9ff2204662f","","Mozilla/5.0 (X11; CrOS x86_64 15117.86.0) AppleWebKit/537.36 (KHTML, like Gecko) Chrome/107.0.0.0 Safari/537.36","WebKit","Chrome","107.0.0.0","ChromeOS","15117.86.0","943","s","","tvS.jpg","4","Heavy-Contradictory","true",""
"","","","","","fixation","15384","html-keyboard-response","171","270285","0.0-6.0-0.34","2","4","2022-11-17 14:24:57","27f05a78553e1e210bb6d9ff2204662f","","Mozilla/5.0 (X11; CrOS x86_64 15117.86.0) AppleWebKit/537.36 (KHTML, like Gecko) Chrome/107.0.0.0 Safari/537.36","WebKit","Chrome","107.0.0.0","ChromeOS","15117.86.0","null","null","","<p style=""font-size: 48px;"">+</p>","4","Filler","",""
"","","","","","sentence","15384","html-keyboard-response","172","271184","0.0-6.0-1.34","2","4","2022-11-17 14:24:57","27f05a78553e1e210bb6d9ff2204662f","","Mozilla/5.0 (X11; CrOS x86_64 15117.86.0) AppleWebKit/537.36 (KHTML, like Gecko) Chrome/107.0.0.0 Safari/537.36","WebKit","Chrome","107.0.0.0","ChromeOS","15117.86.0","895"," ","","A cushion was placed on the magazine","4","Filler","",""
"","","","","","fixation","15384","html-keyboard-response","173","271693","0.0-6.0-2.34","2","4","2022-11-17 14:24:57","27f05a78553e1e210bb6d9ff2204662f","","Mozilla/5.0 (X11; CrOS x86_64 15117.86.0) AppleWebKit/537.36 (KHTML, like Gecko) Chrome/107.0.0.0 Safari/537.36","WebKit","Chrome","107.0.0.0","ChromeOS","15117.86.0","null","null","","<p style=""font-size: 48px;"">+</p>","4","Filler","",""
"","","","","","picture","15384","image-keyboard-response","174","272667","0.0-6.0-3.34","2","4","2022-11-17 14:24:57","27f05a78553e1e210bb6d9ff2204662f","","Mozilla/5.0 (X11; CrOS x86_64 15117.86.0) AppleWebKit/537.36 (KHTML, like Gecko) Chrome/107.0.0.0 Safari/537.36","WebKit","Chrome","107.0.0.0","ChromeOS","15117.86.0","969","n","","box.jpg","4","Filler","true",""
"","","","","","fixation","15384","html-keyboard-response","175","273677","0.0-6.0-0.35","2","4","2022-11-17 14:24:57","27f05a78553e1e210bb6d9ff2204662f","","Mozilla/5.0 (X11; CrOS x86_64 15117.86.0) AppleWebKit/537.36 (KHTML, like Gecko) Chrome/107.0.0.0 Safari/537.36","WebKit","Chrome","107.0.0.0","ChromeOS","15117.86.0","null","null","","<p style=""font-size: 48px;"">+</p>","4","Heavy-Contradictory","",""
"","","","","","sentence","15384","html-keyboard-response","176","274909","0.0-6.0-1.35","2","4","2022-11-17 14:24:57","27f05a78553e1e210bb6d9ff2204662f","","Mozilla/5.0 (X11; CrOS x86_64 15117.86.0) AppleWebKit/537.36 (KHTML, like Gecko) Chrome/107.0.0.0 Safari/537.36","WebKit","Chrome","107.0.0.0","ChromeOS","15117.86.0","1228"," ","","A bowling ball dropped and touched a wineglass","4","Heavy-Contradictory","",""
"","","","","","fixation","15384","html-keyboard-response","177","275421","0.0-6.0-2.35","2","4","2022-11-17 14:24:57","27f05a78553e1e210bb6d9ff2204662f","","Mozilla/5.0 (X11; CrOS x86_64 15117.86.0) AppleWebKit/537.36 (KHTML, like Gecko) Chrome/107.0.0.0 Safari/537.36","WebKit","Chrome","107.0.0.0","ChromeOS","15117.86.0","null","null","","<p style=""font-size: 48px;"">+</p>","4","Heavy-Contradictory","",""
"","","","","","picture","15384","image-keyboard-response","178","276203","0.0-6.0-3.35","2","4","2022-11-17 14:24:57","27f05a78553e1e210bb6d9ff2204662f","","Mozilla/5.0 (X11; CrOS x86_64 15117.86.0) AppleWebKit/537.36 (KHTML, like Gecko) Chrome/107.0.0.0 Safari/537.36","WebKit","Chrome","107.0.0.0","ChromeOS","15117.86.0","777","s","","wineglassS.jpg","4","Heavy-Contradictory","true",""
"","","","","","fixation","15384","html-keyboard-response","179","277213","0.0-6.0-0.36","2","4","2022-11-17 14:24:57","27f05a78553e1e210bb6d9ff2204662f","","Mozilla/5.0 (X11; CrOS x86_64 15117.86.0) AppleWebKit/537.36 (KHTML, like Gecko) Chrome/107.0.0.0 Safari/537.36","WebKit","Chrome","107.0.0.0","ChromeOS","15117.86.0","null","null","","<p style=""font-size: 48px;"">+</p>","4","Light-Contradictory","",""
"","","","","","sentence","15384","html-keyboard-response","180","279038","0.0-6.0-1.36","2","4","2022-11-17 14:24:57","27f05a78553e1e210bb6d9ff2204662f","","Mozilla/5.0 (X11; CrOS x86_64 15117.86.0) AppleWebKit/537.36 (KHTML, like Gecko) Chrome/107.0.0.0 Safari/537.36","WebKit","Chrome","107.0.0.0","ChromeOS","15117.86.0","1821"," ","","A balloon dropped and smashed a mirror","4","Light-Contradictory","",""
"","","","","","fixation","15384","html-keyboard-response","181","279548","0.0-6.0-2.36","2","4","2022-11-17 14:24:57","27f05a78553e1e210bb6d9ff2204662f","","Mozilla/5.0 (X11; CrOS x86_64 15117.86.0) AppleWebKit/537.36 (KHTML, like Gecko) Chrome/107.0.0.0 Safari/537.36","WebKit","Chrome","107.0.0.0","ChromeOS","15117.86.0","null","null","","<p style=""font-size: 48px;"">+</p>","4","Light-Contradictory","",""
"","","","","","picture","15384","image-keyboard-response","182","280316","0.0-6.0-3.36","2","4","2022-11-17 14:24:57","27f05a78553e1e210bb6d9ff2204662f","","Mozilla/5.0 (X11; CrOS x86_64 15117.86.0) AppleWebKit/537.36 (KHTML, like Gecko) Chrome/107.0.0.0 Safari/537.36","WebKit","Chrome","107.0.0.0","ChromeOS","15117.86.0","761","s","","mirrorS.jpg","4","Light-Contradictory","true",""
"","","","","","fixation","15384","html-keyboard-response","183","281324","0.0-6.0-0.37","2","4","2022-11-17 14:24:57","27f05a78553e1e210bb6d9ff2204662f","","Mozilla/5.0 (X11; CrOS x86_64 15117.86.0) AppleWebKit/537.36 (KHTML, like Gecko) Chrome/107.0.0.0 Safari/537.36","WebKit","Chrome","107.0.0.0","ChromeOS","15117.86.0","null","null","","<p style=""font-size: 48px;"">+</p>","4","Filler","",""
"","","","","","sentence","15384","html-keyboard-response","184","282524","0.0-6.0-1.37","2","4","2022-11-17 14:24:57","27f05a78553e1e210bb6d9ff2204662f","","Mozilla/5.0 (X11; CrOS x86_64 15117.86.0) AppleWebKit/537.36 (KHTML, like Gecko) Chrome/107.0.0.0 Safari/537.36","WebKit","Chrome","107.0.0.0","ChromeOS","15117.86.0","1194"," ","","A boy is wearing a hat","4","Filler","",""
"","","","","","fixation","15384","html-keyboard-response","185","283036","0.0-6.0-2.37","2","4","2022-11-17 14:24:57","27f05a78553e1e210bb6d9ff2204662f","","Mozilla/5.0 (X11; CrOS x86_64 15117.86.0) AppleWebKit/537.36 (KHTML, like Gecko) Chrome/107.0.0.0 Safari/537.36","WebKit","Chrome","107.0.0.0","ChromeOS","15117.86.0","null","null","","<p style=""font-size: 48px;"">+</p>","4","Filler","",""
"","","","","","picture","15384","image-keyboard-response","186","283836","0.0-6.0-3.37","2","4","2022-11-17 14:24:57","27f05a78553e1e210bb6d9ff2204662f","","Mozilla/5.0 (X11; CrOS x86_64 15117.86.0) AppleWebKit/537.36 (KHTML, like Gecko) Chrome/107.0.0.0 Safari/537.36","WebKit","Chrome","107.0.0.0","ChromeOS","15117.86.0","792","s","","hat.jpg","4","Filler","true",""
"","","","","","fixation","15384","html-keyboard-response","187","284845","0.0-6.0-0.38","2","4","2022-11-17 14:24:57","27f05a78553e1e210bb6d9ff2204662f","","Mozilla/5.0 (X11; CrOS x86_64 15117.86.0) AppleWebKit/537.36 (KHTML, like Gecko) Chrome/107.0.0.0 Safari/537.36","WebKit","Chrome","107.0.0.0","ChromeOS","15117.86.0","null","null","","<p style=""font-size: 48px;"">+</p>","4","Filler","",""
"","","","","","sentence","15384","html-keyboard-response","188","286401","0.0-6.0-1.38","2","4","2022-11-17 14:24:57","27f05a78553e1e210bb6d9ff2204662f","","Mozilla/5.0 (X11; CrOS x86_64 15117.86.0) AppleWebKit/537.36 (KHTML, like Gecko) Chrome/107.0.0.0 Safari/537.36","WebKit","Chrome","107.0.0.0","ChromeOS","15117.86.0","1550"," ","","A toothbrush was placed on the sponge","4","Filler","",""
"","","","","","fixation","15384","html-keyboard-response","189","286916","0.0-6.0-2.38","2","4","2022-11-17 14:24:57","27f05a78553e1e210bb6d9ff2204662f","","Mozilla/5.0 (X11; CrOS x86_64 15117.86.0) AppleWebKit/537.36 (KHTML, like Gecko) Chrome/107.0.0.0 Safari/537.36","WebKit","Chrome","107.0.0.0","ChromeOS","15117.86.0","null","null","","<p style=""font-size: 48px;"">+</p>","4","Filler","",""
"","","","","","picture","15384","image-keyboard-response","190","287526","0.0-6.0-3.38","2","4","2022-11-17 14:24:57","27f05a78553e1e210bb6d9ff2204662f","","Mozilla/5.0 (X11; CrOS x86_64 15117.86.0) AppleWebKit/537.36 (KHTML, like Gecko) Chrome/107.0.0.0 Safari/537.36","WebKit","Chrome","107.0.0.0","ChromeOS","15117.86.0","602","n","","sponge.jpg","4","Filler","false",""
"","","","","","fixation","15384","html-keyboard-response","191","288532","0.0-6.0-0.39","2","4","2022-11-17 14:24:57","27f05a78553e1e210bb6d9ff2204662f","","Mozilla/5.0 (X11; CrOS x86_64 15117.86.0) AppleWebKit/537.36 (KHTML, like Gecko) Chrome/107.0.0.0 Safari/537.36","WebKit","Chrome","107.0.0.0","ChromeOS","15117.86.0","null","null","","<p style=""font-size: 48px;"">+</p>","4","Filler","",""
"","","","","","sentence","15384","html-keyboard-response","192","289870","0.0-6.0-1.39","2","4","2022-11-17 14:24:57","27f05a78553e1e210bb6d9ff2204662f","","Mozilla/5.0 (X11; CrOS x86_64 15117.86.0) AppleWebKit/537.36 (KHTML, like Gecko) Chrome/107.0.0.0 Safari/537.36","WebKit","Chrome","107.0.0.0","ChromeOS","15117.86.0","1332"," ","","A ring was placed on the newspaper","4","Filler","",""
"","","","","","fixation","15384","html-keyboard-response","193","290381","0.0-6.0-2.39","2","4","2022-11-17 14:24:57","27f05a78553e1e210bb6d9ff2204662f","","Mozilla/5.0 (X11; CrOS x86_64 15117.86.0) AppleWebKit/537.36 (KHTML, like Gecko) Chrome/107.0.0.0 Safari/537.36","WebKit","Chrome","107.0.0.0","ChromeOS","15117.86.0","null","null","","<p style=""font-size: 48px;"">+</p>","4","Filler","",""
"","","","","","picture","15384","image-keyboard-response","194","291206","0.0-6.0-3.39","2","4","2022-11-17 14:24:57","27f05a78553e1e210bb6d9ff2204662f","","Mozilla/5.0 (X11; CrOS x86_64 15117.86.0) AppleWebKit/537.36 (KHTML, like Gecko) Chrome/107.0.0.0 Safari/537.36","WebKit","Chrome","107.0.0.0","ChromeOS","15117.86.0","818","n","","cat.jpg","4","Filler","true",""
"","","","","","fixation","15384","html-keyboard-response","195","292213","0.0-6.0-0.40","2","4","2022-11-17 14:24:57","27f05a78553e1e210bb6d9ff2204662f","","Mozilla/5.0 (X11; CrOS x86_64 15117.86.0) AppleWebKit/537.36 (KHTML, like Gecko) Chrome/107.0.0.0 Safari/537.36","WebKit","Chrome","107.0.0.0","ChromeOS","15117.86.0","null","null","","<p style=""font-size: 48px;"">+</p>","4","Filler","",""
"","","","","","sentence","15384","html-keyboard-response","196","293359","0.0-6.0-1.40","2","4","2022-11-17 14:24:57","27f05a78553e1e210bb6d9ff2204662f","","Mozilla/5.0 (X11; CrOS x86_64 15117.86.0) AppleWebKit/537.36 (KHTML, like Gecko) Chrome/107.0.0.0 Safari/537.36","WebKit","Chrome","107.0.0.0","ChromeOS","15117.86.0","1141"," ","","A keyboard was placed on the bed","4","Filler","",""
"","","","","","fixation","15384","html-keyboard-response","197","293869","0.0-6.0-2.40","2","4","2022-11-17 14:24:57","27f05a78553e1e210bb6d9ff2204662f","","Mozilla/5.0 (X11; CrOS x86_64 15117.86.0) AppleWebKit/537.36 (KHTML, like Gecko) Chrome/107.0.0.0 Safari/537.36","WebKit","Chrome","107.0.0.0","ChromeOS","15117.86.0","null","null","","<p style=""font-size: 48px;"">+</p>","4","Filler","",""
"","","","","","picture","15384","image-keyboard-response","198","294464","0.0-6.0-3.40","2","4","2022-11-17 14:24:57","27f05a78553e1e210bb6d9ff2204662f","","Mozilla/5.0 (X11; CrOS x86_64 15117.86.0) AppleWebKit/537.36 (KHTML, like Gecko) Chrome/107.0.0.0 Safari/537.36","WebKit","Chrome","107.0.0.0","ChromeOS","15117.86.0","588","n","","bottlecap.jpg","4","Filler","true",""
"","","","","","fixation","15384","html-keyboard-response","199","295476","0.0-6.0-0.41","2","4","2022-11-17 14:24:57","27f05a78553e1e210bb6d9ff2204662f","","Mozilla/5.0 (X11; CrOS x86_64 15117.86.0) AppleWebKit/537.36 (KHTML, like Gecko) Chrome/107.0.0.0 Safari/537.36","WebKit","Chrome","107.0.0.0","ChromeOS","15117.86.0","null","null","","<p style=""font-size: 48px;"">+</p>","4","Light-Matched","",""
"","","","","","sentence","15384","html-keyboard-response","200","296490","0.0-6.0-1.41","2","4","2022-11-17 14:24:57","27f05a78553e1e210bb6d9ff2204662f","","Mozilla/5.0 (X11; CrOS x86_64 15117.86.0) AppleWebKit/537.36 (KHTML, like Gecko) Chrome/107.0.0.0 Safari/537.36","WebKit","Chrome","107.0.0.0","ChromeOS","15117.86.0","1007"," ","","A balloon dropped and touched a chocolate ice-cream","4","Light-Matched","",""
"","","","","","fixation","15384","html-keyboard-response","201","296997","0.0-6.0-2.41","2","4","2022-11-17 14:24:57","27f05a78553e1e210bb6d9ff2204662f","","Mozilla/5.0 (X11; CrOS x86_64 15117.86.0) AppleWebKit/537.36 (KHTML, like Gecko) Chrome/107.0.0.0 Safari/537.36","WebKit","Chrome","107.0.0.0","ChromeOS","15117.86.0","null","null","","<p style=""font-size: 48px;"">+</p>","4","Light-Matched","",""
"","","","","","picture","15384","image-keyboard-response","202","297432","0.0-6.0-3.41","2","4","2022-11-17 14:24:57","27f05a78553e1e210bb6d9ff2204662f","","Mozilla/5.0 (X11; CrOS x86_64 15117.86.0) AppleWebKit/537.36 (KHTML, like Gecko) Chrome/107.0.0.0 Safari/537.36","WebKit","Chrome","107.0.0.0","ChromeOS","15117.86.0","427","s","","icecreamS.jpg","4","Light-Matched","true",""
"","","","","","fixation","15384","html-keyboard-response","203","298445","0.0-6.0-0.42","2","4","2022-11-17 14:24:57","27f05a78553e1e210bb6d9ff2204662f","","Mozilla/5.0 (X11; CrOS x86_64 15117.86.0) AppleWebKit/537.36 (KHTML, like Gecko) Chrome/107.0.0.0 Safari/537.36","WebKit","Chrome","107.0.0.0","ChromeOS","15117.86.0","null","null","","<p style=""font-size: 48px;"">+</p>","4","Filler","",""
"","","","","","sentence","15384","html-keyboard-response","204","301671","0.0-6.0-1.42","2","4","2022-11-17 14:24:57","27f05a78553e1e210bb6d9ff2204662f","","Mozilla/5.0 (X11; CrOS x86_64 15117.86.0) AppleWebKit/537.36 (KHTML, like Gecko) Chrome/107.0.0.0 Safari/537.36","WebKit","Chrome","107.0.0.0","ChromeOS","15117.86.0","3217"," ","","An old man is hammering a nail","4","Filler","",""
"","","","","","fixation","15384","html-keyboard-response","205","302181","0.0-6.0-2.42","2","4","2022-11-17 14:24:57","27f05a78553e1e210bb6d9ff2204662f","","Mozilla/5.0 (X11; CrOS x86_64 15117.86.0) AppleWebKit/537.36 (KHTML, like Gecko) Chrome/107.0.0.0 Safari/537.36","WebKit","Chrome","107.0.0.0","ChromeOS","15117.86.0","null","null","","<p style=""font-size: 48px;"">+</p>","4","Filler","",""
"","","","","","picture","15384","image-keyboard-response","206","302796","0.0-6.0-3.42","2","4","2022-11-17 14:24:57","27f05a78553e1e210bb6d9ff2204662f","","Mozilla/5.0 (X11; CrOS x86_64 15117.86.0) AppleWebKit/537.36 (KHTML, like Gecko) Chrome/107.0.0.0 Safari/537.36","WebKit","Chrome","107.0.0.0","ChromeOS","15117.86.0","608","s","","nail.jpg","4","Filler","true",""
"","","","","","fixation","15384","html-keyboard-response","207","303805","0.0-6.0-0.43","2","4","2022-11-17 14:24:57","27f05a78553e1e210bb6d9ff2204662f","","Mozilla/5.0 (X11; CrOS x86_64 15117.86.0) AppleWebKit/537.36 (KHTML, like Gecko) Chrome/107.0.0.0 Safari/537.36","WebKit","Chrome","107.0.0.0","ChromeOS","15117.86.0","null","null","","<p style=""font-size: 48px;"">+</p>","4","Filler","",""
"","","","","","sentence","15384","html-keyboard-response","208","304628","0.0-6.0-1.43","2","4","2022-11-17 14:24:57","27f05a78553e1e210bb6d9ff2204662f","","Mozilla/5.0 (X11; CrOS x86_64 15117.86.0) AppleWebKit/537.36 (KHTML, like Gecko) Chrome/107.0.0.0 Safari/537.36","WebKit","Chrome","107.0.0.0","ChromeOS","15117.86.0","817"," ","","A giraffe is playing with a zebra","4","Filler","",""
"","","","","","fixation","15384","html-keyboard-response","209","305141","0.0-6.0-2.43","2","4","2022-11-17 14:24:57","27f05a78553e1e210bb6d9ff2204662f","","Mozilla/5.0 (X11; CrOS x86_64 15117.86.0) AppleWebKit/537.36 (KHTML, like Gecko) Chrome/107.0.0.0 Safari/537.36","WebKit","Chrome","107.0.0.0","ChromeOS","15117.86.0","null","null","","<p style=""font-size: 48px;"">+</p>","4","Filler","",""
"","","","","","picture","15384","image-keyboard-response","210","305898","0.0-6.0-3.43","2","4","2022-11-17 14:24:57","27f05a78553e1e210bb6d9ff2204662f","","Mozilla/5.0 (X11; CrOS x86_64 15117.86.0) AppleWebKit/537.36 (KHTML, like Gecko) Chrome/107.0.0.0 Safari/537.36","WebKit","Chrome","107.0.0.0","ChromeOS","15117.86.0","750","n","","wallet.jpg","4","Filler","true",""
"","","","","","fixation","15384","html-keyboard-response","211","306909","0.0-6.0-0.44","2","4","2022-11-17 14:24:57","27f05a78553e1e210bb6d9ff2204662f","","Mozilla/5.0 (X11; CrOS x86_64 15117.86.0) AppleWebKit/537.36 (KHTML, like Gecko) Chrome/107.0.0.0 Safari/537.36","WebKit","Chrome","107.0.0.0","ChromeOS","15117.86.0","null","null","","<p style=""font-size: 48px;"">+</p>","4","Filler","",""
"","","","","","sentence","15384","html-keyboard-response","212","308613","0.0-6.0-1.44","2","4","2022-11-17 14:24:57","27f05a78553e1e210bb6d9ff2204662f","","Mozilla/5.0 (X11; CrOS x86_64 15117.86.0) AppleWebKit/537.36 (KHTML, like Gecko) Chrome/107.0.0.0 Safari/537.36","WebKit","Chrome","107.0.0.0","ChromeOS","15117.86.0","1698"," ","","A student is writing on a board","4","Filler","",""
"","","","","","fixation","15384","html-keyboard-response","213","309125","0.0-6.0-2.44","2","4","2022-11-17 14:24:57","27f05a78553e1e210bb6d9ff2204662f","","Mozilla/5.0 (X11; CrOS x86_64 15117.86.0) AppleWebKit/537.36 (KHTML, like Gecko) Chrome/107.0.0.0 Safari/537.36","WebKit","Chrome","107.0.0.0","ChromeOS","15117.86.0","null","null","","<p style=""font-size: 48px;"">+</p>","4","Filler","",""
"","","","","","picture","15384","image-keyboard-response","214","309760","0.0-6.0-3.44","2","4","2022-11-17 14:24:57","27f05a78553e1e210bb6d9ff2204662f","","Mozilla/5.0 (X11; CrOS x86_64 15117.86.0) AppleWebKit/537.36 (KHTML, like Gecko) Chrome/107.0.0.0 Safari/537.36","WebKit","Chrome","107.0.0.0","ChromeOS","15117.86.0","617","n","","owl.jpg","4","Filler","true",""
"","","","","","fixation","15384","html-keyboard-response","215","310772","0.0-6.0-0.45","2","4","2022-11-17 14:24:57","27f05a78553e1e210bb6d9ff2204662f","","Mozilla/5.0 (X11; CrOS x86_64 15117.86.0) AppleWebKit/537.36 (KHTML, like Gecko) Chrome/107.0.0.0 Safari/537.36","WebKit","Chrome","107.0.0.0","ChromeOS","15117.86.0","null","null","","<p style=""font-size: 48px;"">+</p>","4","Filler","",""
"","","","","","sentence","15384","html-keyboard-response","216","312962","0.0-6.0-1.45","2","4","2022-11-17 14:24:57","27f05a78553e1e210bb6d9ff2204662f","","Mozilla/5.0 (X11; CrOS x86_64 15117.86.0) AppleWebKit/537.36 (KHTML, like Gecko) Chrome/107.0.0.0 Safari/537.36","WebKit","Chrome","107.0.0.0","ChromeOS","15117.86.0","2183"," ","","A president is writing in the notebook","4","Filler","",""
"","","","","","fixation","15384","html-keyboard-response","217","313477","0.0-6.0-2.45","2","4","2022-11-17 14:24:57","27f05a78553e1e210bb6d9ff2204662f","","Mozilla/5.0 (X11; CrOS x86_64 15117.86.0) AppleWebKit/537.36 (KHTML, like Gecko) Chrome/107.0.0.0 Safari/537.36","WebKit","Chrome","107.0.0.0","ChromeOS","15117.86.0","null","null","","<p style=""font-size: 48px;"">+</p>","4","Filler","",""
"","","","","","picture","15384","image-keyboard-response","218","314930","0.0-6.0-3.45","2","4","2022-11-17 14:24:57","27f05a78553e1e210bb6d9ff2204662f","","Mozilla/5.0 (X11; CrOS x86_64 15117.86.0) AppleWebKit/537.36 (KHTML, like Gecko) Chrome/107.0.0.0 Safari/537.36","WebKit","Chrome","107.0.0.0","ChromeOS","15117.86.0","1446","n","","can.jpg","4","Filler","true",""
"","","","","","fixation","15384","html-keyboard-response","219","315940","0.0-6.0-0.46","2","4","2022-11-17 14:24:57","27f05a78553e1e210bb6d9ff2204662f","","Mozilla/5.0 (X11; CrOS x86_64 15117.86.0) AppleWebKit/537.36 (KHTML, like Gecko) Chrome/107.0.0.0 Safari/537.36","WebKit","Chrome","107.0.0.0","ChromeOS","15117.86.0","null","null","","<p style=""font-size: 48px;"">+</p>","4","Light-Contradictory","",""
"","","","","","sentence","15384","html-keyboard-response","220","317544","0.0-6.0-1.46","2","4","2022-11-17 14:24:57","27f05a78553e1e210bb6d9ff2204662f","","Mozilla/5.0 (X11; CrOS x86_64 15117.86.0) AppleWebKit/537.36 (KHTML, like Gecko) Chrome/107.0.0.0 Safari/537.36","WebKit","Chrome","107.0.0.0","ChromeOS","15117.86.0","1597"," ","","A balloon dropped and smashed a chocolate muffin","4","Light-Contradictory","",""
"","","","","","fixation","15384","html-keyboard-response","221","318052","0.0-6.0-2.46","2","4","2022-11-17 14:24:57","27f05a78553e1e210bb6d9ff2204662f","","Mozilla/5.0 (X11; CrOS x86_64 15117.86.0) AppleWebKit/537.36 (KHTML, like Gecko) Chrome/107.0.0.0 Safari/537.36","WebKit","Chrome","107.0.0.0","ChromeOS","15117.86.0","null","null","","<p style=""font-size: 48px;"">+</p>","4","Light-Contradictory","",""
"","","","","","picture","15384","image-keyboard-response","222","318497","0.0-6.0-3.46","2","4","2022-11-17 14:24:57","27f05a78553e1e210bb6d9ff2204662f","","Mozilla/5.0 (X11; CrOS x86_64 15117.86.0) AppleWebKit/537.36 (KHTML, like Gecko) Chrome/107.0.0.0 Safari/537.36","WebKit","Chrome","107.0.0.0","ChromeOS","15117.86.0","436","s","","muffinS.jpg","4","Light-Contradictory","true",""
"","","","","","fixation","15384","html-keyboard-response","223","319509","0.0-6.0-0.47","2","4","2022-11-17 14:24:57","27f05a78553e1e210bb6d9ff2204662f","","Mozilla/5.0 (X11; CrOS x86_64 15117.86.0) AppleWebKit/537.36 (KHTML, like Gecko) Chrome/107.0.0.0 Safari/537.36","WebKit","Chrome","107.0.0.0","ChromeOS","15117.86.0","null","null","","<p style=""font-size: 48px;"">+</p>","4","Heavy-Matched","",""
"","","","","","sentence","15384","html-keyboard-response","224","321448","0.0-6.0-1.47","2","4","2022-11-17 14:24:57","27f05a78553e1e210bb6d9ff2204662f","","Mozilla/5.0 (X11; CrOS x86_64 15117.86.0) AppleWebKit/537.36 (KHTML, like Gecko) Chrome/107.0.0.0 Safari/537.36","WebKit","Chrome","107.0.0.0","ChromeOS","15117.86.0","1933"," ","","A bowling ball  dropped and smashed a ceramic plate","4","Heavy-Matched","",""
"","","","","","fixation","15384","html-keyboard-response","225","321956","0.0-6.0-2.47","2","4","2022-11-17 14:24:57","27f05a78553e1e210bb6d9ff2204662f","","Mozilla/5.0 (X11; CrOS x86_64 15117.86.0) AppleWebKit/537.36 (KHTML, like Gecko) Chrome/107.0.0.0 Safari/537.36","WebKit","Chrome","107.0.0.0","ChromeOS","15117.86.0","null","null","","<p style=""font-size: 48px;"">+</p>","4","Heavy-Matched","",""
"","","","","","picture","15384","image-keyboard-response","226","322347","0.0-6.0-3.47","2","4","2022-11-17 14:24:57","27f05a78553e1e210bb6d9ff2204662f","","Mozilla/5.0 (X11; CrOS x86_64 15117.86.0) AppleWebKit/537.36 (KHTML, like Gecko) Chrome/107.0.0.0 Safari/537.36","WebKit","Chrome","107.0.0.0","ChromeOS","15117.86.0","383","s","","plateS.jpg","4","Heavy-Matched","true",""
"","","","","","fixation","15384","html-keyboard-response","227","323357","0.0-6.0-0.48","2","4","2022-11-17 14:24:57","27f05a78553e1e210bb6d9ff2204662f","","Mozilla/5.0 (X11; CrOS x86_64 15117.86.0) AppleWebKit/537.36 (KHTML, like Gecko) Chrome/107.0.0.0 Safari/537.36","WebKit","Chrome","107.0.0.0","ChromeOS","15117.86.0","null","null","","<p style=""font-size: 48px;"">+</p>","4","Filler","",""
"","","","","","sentence","15384","html-keyboard-response","228","324309","0.0-6.0-1.48","2","4","2022-11-17 14:24:57","27f05a78553e1e210bb6d9ff2204662f","","Mozilla/5.0 (X11; CrOS x86_64 15117.86.0) AppleWebKit/537.36 (KHTML, like Gecko) Chrome/107.0.0.0 Safari/537.36","WebKit","Chrome","107.0.0.0","ChromeOS","15117.86.0","945"," ","","A zebra is playing with a horse","4","Filler","",""
"","","","","","fixation","15384","html-keyboard-response","229","324821","0.0-6.0-2.48","2","4","2022-11-17 14:24:57","27f05a78553e1e210bb6d9ff2204662f","","Mozilla/5.0 (X11; CrOS x86_64 15117.86.0) AppleWebKit/537.36 (KHTML, like Gecko) Chrome/107.0.0.0 Safari/537.36","WebKit","Chrome","107.0.0.0","ChromeOS","15117.86.0","null","null","","<p style=""font-size: 48px;"">+</p>","4","Filler","",""
"","","","","","picture","15384","image-keyboard-response","230","325418","0.0-6.0-3.48","2","4","2022-11-17 14:24:57","27f05a78553e1e210bb6d9ff2204662f","","Mozilla/5.0 (X11; CrOS x86_64 15117.86.0) AppleWebKit/537.36 (KHTML, like Gecko) Chrome/107.0.0.0 Safari/537.36","WebKit","Chrome","107.0.0.0","ChromeOS","15117.86.0","588","n","","watch.jpg","4","Filler","true",""
"","","","","","fixation","15384","html-keyboard-response","231","326428","0.0-6.0-0.49","2","4","2022-11-17 14:24:57","27f05a78553e1e210bb6d9ff2204662f","","Mozilla/5.0 (X11; CrOS x86_64 15117.86.0) AppleWebKit/537.36 (KHTML, like Gecko) Chrome/107.0.0.0 Safari/537.36","WebKit","Chrome","107.0.0.0","ChromeOS","15117.86.0","null","null","","<p style=""font-size: 48px;"">+</p>","4","Filler","",""
"","","","","","sentence","15384","html-keyboard-response","232","327221","0.0-6.0-1.49","2","4","2022-11-17 14:24:57","27f05a78553e1e210bb6d9ff2204662f","","Mozilla/5.0 (X11; CrOS x86_64 15117.86.0) AppleWebKit/537.36 (KHTML, like Gecko) Chrome/107.0.0.0 Safari/537.36","WebKit","Chrome","107.0.0.0","ChromeOS","15117.86.0","786"," ","","A woman is paying with a debit card","4","Filler","",""
"","","","","","fixation","15384","html-keyboard-response","233","327732","0.0-6.0-2.49","2","4","2022-11-17 14:24:57","27f05a78553e1e210bb6d9ff2204662f","","Mozilla/5.0 (X11; CrOS x86_64 15117.86.0) AppleWebKit/537.36 (KHTML, like Gecko) Chrome/107.0.0.0 Safari/537.36","WebKit","Chrome","107.0.0.0","ChromeOS","15117.86.0","null","null","","<p style=""font-size: 48px;"">+</p>","4","Filler","",""
"","","","","","picture","15384","image-keyboard-response","234","328440","0.0-6.0-3.49","2","4","2022-11-17 14:24:57","27f05a78553e1e210bb6d9ff2204662f","","Mozilla/5.0 (X11; CrOS x86_64 15117.86.0) AppleWebKit/537.36 (KHTML, like Gecko) Chrome/107.0.0.0 Safari/537.36","WebKit","Chrome","107.0.0.0","ChromeOS","15117.86.0","701","n","","papercup.jpg","4","Filler","true",""
"","","","","","fixation","15384","html-keyboard-response","235","329453","0.0-6.0-0.50","2","4","2022-11-17 14:24:57","27f05a78553e1e210bb6d9ff2204662f","","Mozilla/5.0 (X11; CrOS x86_64 15117.86.0) AppleWebKit/537.36 (KHTML, like Gecko) Chrome/107.0.0.0 Safari/537.36","WebKit","Chrome","107.0.0.0","ChromeOS","15117.86.0","null","null","","<p style=""font-size: 48px;"">+</p>","4","Filler","",""
"","","","","","sentence","15384","html-keyboard-response","236","330206","0.0-6.0-1.50","2","4","2022-11-17 14:24:57","27f05a78553e1e210bb6d9ff2204662f","","Mozilla/5.0 (X11; CrOS x86_64 15117.86.0) AppleWebKit/537.36 (KHTML, like Gecko) Chrome/107.0.0.0 Safari/537.36","WebKit","Chrome","107.0.0.0","ChromeOS","15117.86.0","746"," ","","A mouse is eating cheese","4","Filler","",""
"","","","","","fixation","15384","html-keyboard-response","237","330717","0.0-6.0-2.50","2","4","2022-11-17 14:24:57","27f05a78553e1e210bb6d9ff2204662f","","Mozilla/5.0 (X11; CrOS x86_64 15117.86.0) AppleWebKit/537.36 (KHTML, like Gecko) Chrome/107.0.0.0 Safari/537.36","WebKit","Chrome","107.0.0.0","ChromeOS","15117.86.0","null","null","","<p style=""font-size: 48px;"">+</p>","4","Filler","",""
"","","","","","picture","15384","image-keyboard-response","238","331519","0.0-6.0-3.50","2","4","2022-11-17 14:24:57","27f05a78553e1e210bb6d9ff2204662f","","Mozilla/5.0 (X11; CrOS x86_64 15117.86.0) AppleWebKit/537.36 (KHTML, like Gecko) Chrome/107.0.0.0 Safari/537.36","WebKit","Chrome","107.0.0.0","ChromeOS","15117.86.0","786","n","","ring.jpg","4","Filler","true",""
"","","","","","fixation","15384","html-keyboard-response","239","332533","0.0-6.0-0.51","2","4","2022-11-17 14:24:57","27f05a78553e1e210bb6d9ff2204662f","","Mozilla/5.0 (X11; CrOS x86_64 15117.86.0) AppleWebKit/537.36 (KHTML, like Gecko) Chrome/107.0.0.0 Safari/537.36","WebKit","Chrome","107.0.0.0","ChromeOS","15117.86.0","null","null","","<p style=""font-size: 48px;"">+</p>","4","Light-Contradictory","",""
"","","","","","sentence","15384","html-keyboard-response","240","333380","0.0-6.0-1.51","2","4","2022-11-17 14:24:57","27f05a78553e1e210bb6d9ff2204662f","","Mozilla/5.0 (X11; CrOS x86_64 15117.86.0) AppleWebKit/537.36 (KHTML, like Gecko) Chrome/107.0.0.0 Safari/537.36","WebKit","Chrome","107.0.0.0","ChromeOS","15117.86.0","834"," ","","A balloon dropped and smashed a donut","4","Light-Contradictory","",""
"","","","","","fixation","15384","html-keyboard-response","241","333892","0.0-6.0-2.51","2","4","2022-11-17 14:24:57","27f05a78553e1e210bb6d9ff2204662f","","Mozilla/5.0 (X11; CrOS x86_64 15117.86.0) AppleWebKit/537.36 (KHTML, like Gecko) Chrome/107.0.0.0 Safari/537.36","WebKit","Chrome","107.0.0.0","ChromeOS","15117.86.0","null","null","","<p style=""font-size: 48px;"">+</p>","4","Light-Contradictory","",""
"","","","","","picture","15384","image-keyboard-response","242","334484","0.0-6.0-3.51","2","4","2022-11-17 14:24:57","27f05a78553e1e210bb6d9ff2204662f","","Mozilla/5.0 (X11; CrOS x86_64 15117.86.0) AppleWebKit/537.36 (KHTML, like Gecko) Chrome/107.0.0.0 Safari/537.36","WebKit","Chrome","107.0.0.0","ChromeOS","15117.86.0","584","s","","donutS.jpg","4","Light-Contradictory","true",""
"","","","","","fixation","15384","html-keyboard-response","243","335501","0.0-6.0-0.52","2","4","2022-11-17 14:24:57","27f05a78553e1e210bb6d9ff2204662f","","Mozilla/5.0 (X11; CrOS x86_64 15117.86.0) AppleWebKit/537.36 (KHTML, like Gecko) Chrome/107.0.0.0 Safari/537.36","WebKit","Chrome","107.0.0.0","ChromeOS","15117.86.0","null","null","","<p style=""font-size: 48px;"">+</p>","4","Filler","",""
"","","","","","sentence","15384","html-keyboard-response","244","338131","0.0-6.0-1.52","2","4","2022-11-17 14:24:57","27f05a78553e1e210bb6d9ff2204662f","","Mozilla/5.0 (X11; CrOS x86_64 15117.86.0) AppleWebKit/537.36 (KHTML, like Gecko) Chrome/107.0.0.0 Safari/537.36","WebKit","Chrome","107.0.0.0","ChromeOS","15117.86.0","2623"," ","","A teenage girl is playing the piano","4","Filler","",""
