"success","timeout","failed_images","failed_audio","failed_video","typeoftrial","subject","trial_type","trial_index","time_elapsed","internal_node_id","run_id","condition","recorded_at","source_code_version","ip","user_agent","device","browser","browser_version","platform","platform_version","rt","response","Experiment","stimulus","list_number","trialcondition","correct","question_order"
"true","false","[]","[]","[]","preload","10420","preload","0","508","0.0-0.0","72","2","2022-11-17 12:25:01","fd252370c17a9971d68c1d4354a03c2e","","Mozilla/5.0 (Windows NT 10.0; Win64; x64; rv:107.0) Gecko/20100101 Firefox/107.0","","Firefox","107.0","Windows","10.0","","","","","","","",""
"","","","","","ID","10420","survey-text","1","5377","0.0-1.0","72","2","2022-11-17 12:25:01","fd252370c17a9971d68c1d4354a03c2e","","Mozilla/5.0 (Windows NT 10.0; Win64; x64; rv:107.0) Gecko/20100101 Firefox/107.0","","Firefox","107.0","Windows","10.0","4852","{""ID"":""5f9ac707dc3cd12104ea955c""}","","","","","",""
"","","","","","instructions","10420","html-button-response","2","29219","0.0-2.0","72","2","2022-11-17 12:25:01","fd252370c17a9971d68c1d4354a03c2e","","Mozilla/5.0 (Windows NT 10.0; Win64; x64; rv:107.0) Gecko/20100101 Firefox/107.0","","Firefox","107.0","Windows","10.0","23841","0","","
                    <p style=""font-size:20px;""> Welcome to the experiment! </p>
                    <p style=""font-size:20px;""> In this experiment, you will be asked to make judgments about the content of different sentences.</p>
                    <p style=""font-size:20px;""> On each trial, you will read a sentence, and will be shown a picture immediately following the sentence. </p>
                    <p style=""font-size:20px;""> Your task is to decide whether the object displayed in the picture was mentioned in the sentence or not </p>
                    <p style=""font-size:20px;""> and respond as quickly as possible by pressing <strong>S</strong> for yes or <strong>N</strong> for no. </p>
                    <p style=""font-size:20px;""> You will now do a practice session with feedback and instructions. </p>
                    <p style=""font-size:20px;""> Click the button below to continue.</p>
                    ","","","",""
"","","","","","instructions","10420","html-button-response","3","46121","0.0-3.0","72","2","2022-11-17 12:25:01","fd252370c17a9971d68c1d4354a03c2e","","Mozilla/5.0 (Windows NT 10.0; Win64; x64; rv:107.0) Gecko/20100101 Firefox/107.0","","Firefox","107.0","Windows","10.0","16899","0","","
                    <p style=""font-size:20px;""> You are about to begin the practice test. </p>
                    <p style=""font-size:20px;""> On each trial, a sentence will appear on the screen. You should press SPACEBAR when you have read and understood the sentence.</p>
                    <p style=""font-size:20px;""> After you press SPACEBAR, a picture will appear on the screen. </p>
                    <p style=""font-size:20px;""> You need to indicate whether or not the pictured object was mentioned in the sentence. </p>
                    <p style=""font-size:20px;""> If the object WAS mentioned in the preceding sentence, you should press <strong>S</strong> </p>
                    <p style=""font-size:20px;""> If the object was NOT mentioned in the preceding sentence, you should press <strong>N</strong>. </p>
                    <p style=""font-size:20px;""> Click the button below to continue to the practice session.</p>
                    ","","","",""
"","","","","","fixation","10420","html-keyboard-response","4","47134","0.0-4.0-0.0","72","2","2022-11-17 12:25:01","fd252370c17a9971d68c1d4354a03c2e","","Mozilla/5.0 (Windows NT 10.0; Win64; x64; rv:107.0) Gecko/20100101 Firefox/107.0","","Firefox","107.0","Windows","10.0","null","null","","<p style=""font-size: 48px;"">+</p>","practice","practice_n","",""
"","","","","","sentence","10420","html-keyboard-response","5","51847","0.0-4.0-1.0","72","2","2022-11-17 12:25:01","fd252370c17a9971d68c1d4354a03c2e","","Mozilla/5.0 (Windows NT 10.0; Win64; x64; rv:107.0) Gecko/20100101 Firefox/107.0","","Firefox","107.0","Windows","10.0","4709"," ","","A bowling ball dropped and touched a bottle","practice","practice_n","",""
"","","","","","fixation","10420","html-keyboard-response","6","52361","0.0-4.0-2.0","72","2","2022-11-17 12:25:01","fd252370c17a9971d68c1d4354a03c2e","","Mozilla/5.0 (Windows NT 10.0; Win64; x64; rv:107.0) Gecko/20100101 Firefox/107.0","","Firefox","107.0","Windows","10.0","null","null","","<p style=""font-size: 48px;"">+</p>","practice","practice_n","",""
"","","","","","picture","10420","image-keyboard-response","7","56615","0.0-4.0-3.0","72","2","2022-11-17 12:25:01","fd252370c17a9971d68c1d4354a03c2e","","Mozilla/5.0 (Windows NT 10.0; Win64; x64; rv:107.0) Gecko/20100101 Firefox/107.0","","Firefox","107.0","Windows","10.0","4245","n","","bookB.jpg","practice","practice_n","true",""
"","","","","","","","html-keyboard-response","8","58622","0.0-4.0-4.0","72","2","2022-11-17 12:25:01","fd252370c17a9971d68c1d4354a03c2e","","Mozilla/5.0 (Windows NT 10.0; Win64; x64; rv:107.0) Gecko/20100101 Firefox/107.0","","Firefox","107.0","Windows","10.0","null","null","","CORRECT!","","","",""
"","","","","","fixation","10420","html-keyboard-response","9","59634","0.0-4.0-0.1","72","2","2022-11-17 12:25:01","fd252370c17a9971d68c1d4354a03c2e","","Mozilla/5.0 (Windows NT 10.0; Win64; x64; rv:107.0) Gecko/20100101 Firefox/107.0","","Firefox","107.0","Windows","10.0","null","null","","<p style=""font-size: 48px;"">+</p>","practice","practice_s","",""
"","","","","","sentence","10420","html-keyboard-response","10","63125","0.0-4.0-1.1","72","2","2022-11-17 12:25:01","fd252370c17a9971d68c1d4354a03c2e","","Mozilla/5.0 (Windows NT 10.0; Win64; x64; rv:107.0) Gecko/20100101 Firefox/107.0","","Firefox","107.0","Windows","10.0","3486"," ","","A knife was placed on a hammer","practice","practice_s","",""
"","","","","","fixation","10420","html-keyboard-response","11","63635","0.0-4.0-2.1","72","2","2022-11-17 12:25:01","fd252370c17a9971d68c1d4354a03c2e","","Mozilla/5.0 (Windows NT 10.0; Win64; x64; rv:107.0) Gecko/20100101 Firefox/107.0","","Firefox","107.0","Windows","10.0","null","null","","<p style=""font-size: 48px;"">+</p>","practice","practice_s","",""
"","","","","","picture","10420","image-keyboard-response","12","65424","0.0-4.0-3.1","72","2","2022-11-17 12:25:01","fd252370c17a9971d68c1d4354a03c2e","","Mozilla/5.0 (Windows NT 10.0; Win64; x64; rv:107.0) Gecko/20100101 Firefox/107.0","","Firefox","107.0","Windows","10.0","1782","s","","hammerB.jpg","practice","practice_s","true",""
"","","","","","","","html-keyboard-response","13","67436","0.0-4.0-4.1","72","2","2022-11-17 12:25:01","fd252370c17a9971d68c1d4354a03c2e","","Mozilla/5.0 (Windows NT 10.0; Win64; x64; rv:107.0) Gecko/20100101 Firefox/107.0","","Firefox","107.0","Windows","10.0","null","null","","CORRECT!","","","",""
"","","","","","fixation","10420","html-keyboard-response","14","68446","0.0-4.0-0.2","72","2","2022-11-17 12:25:01","fd252370c17a9971d68c1d4354a03c2e","","Mozilla/5.0 (Windows NT 10.0; Win64; x64; rv:107.0) Gecko/20100101 Firefox/107.0","","Firefox","107.0","Windows","10.0","null","null","","<p style=""font-size: 48px;"">+</p>","practice","practice_n","",""
"","","","","","sentence","10420","html-keyboard-response","15","72627","0.0-4.0-1.2","72","2","2022-11-17 12:25:01","fd252370c17a9971d68c1d4354a03c2e","","Mozilla/5.0 (Windows NT 10.0; Win64; x64; rv:107.0) Gecko/20100101 Firefox/107.0","","Firefox","107.0","Windows","10.0","4178"," ","","A fork was placed on a stool","practice","practice_n","",""
"","","","","","fixation","10420","html-keyboard-response","16","73138","0.0-4.0-2.2","72","2","2022-11-17 12:25:01","fd252370c17a9971d68c1d4354a03c2e","","Mozilla/5.0 (Windows NT 10.0; Win64; x64; rv:107.0) Gecko/20100101 Firefox/107.0","","Firefox","107.0","Windows","10.0","null","null","","<p style=""font-size: 48px;"">+</p>","practice","practice_n","",""
"","","","","","picture","10420","image-keyboard-response","17","75918","0.0-4.0-3.2","72","2","2022-11-17 12:25:01","fd252370c17a9971d68c1d4354a03c2e","","Mozilla/5.0 (Windows NT 10.0; Win64; x64; rv:107.0) Gecko/20100101 Firefox/107.0","","Firefox","107.0","Windows","10.0","2771","s","","tableB.jpg","practice","practice_n","false",""
"","","","","","","","html-keyboard-response","18","77922","0.0-4.0-4.2","72","2","2022-11-17 12:25:01","fd252370c17a9971d68c1d4354a03c2e","","Mozilla/5.0 (Windows NT 10.0; Win64; x64; rv:107.0) Gecko/20100101 Firefox/107.0","","Firefox","107.0","Windows","10.0","null","null","","WRONG!","","","",""
"","","","","","fixation","10420","html-keyboard-response","19","78934","0.0-4.0-0.3","72","2","2022-11-17 12:25:01","fd252370c17a9971d68c1d4354a03c2e","","Mozilla/5.0 (Windows NT 10.0; Win64; x64; rv:107.0) Gecko/20100101 Firefox/107.0","","Firefox","107.0","Windows","10.0","null","null","","<p style=""font-size: 48px;"">+</p>","practice","practice_s","",""
"","","","","","sentence","10420","html-keyboard-response","20","81872","0.0-4.0-1.3","72","2","2022-11-17 12:25:01","fd252370c17a9971d68c1d4354a03c2e","","Mozilla/5.0 (Windows NT 10.0; Win64; x64; rv:107.0) Gecko/20100101 Firefox/107.0","","Firefox","107.0","Windows","10.0","2936"," ","","A bowling ball dropped and smashed a teacup","practice","practice_s","",""
"","","","","","fixation","10420","html-keyboard-response","21","82388","0.0-4.0-2.3","72","2","2022-11-17 12:25:01","fd252370c17a9971d68c1d4354a03c2e","","Mozilla/5.0 (Windows NT 10.0; Win64; x64; rv:107.0) Gecko/20100101 Firefox/107.0","","Firefox","107.0","Windows","10.0","null","null","","<p style=""font-size: 48px;"">+</p>","practice","practice_s","",""
"","","","","","picture","10420","image-keyboard-response","22","83847","0.0-4.0-3.3","72","2","2022-11-17 12:25:01","fd252370c17a9971d68c1d4354a03c2e","","Mozilla/5.0 (Windows NT 10.0; Win64; x64; rv:107.0) Gecko/20100101 Firefox/107.0","","Firefox","107.0","Windows","10.0","1451","s","","cupB.jpg","practice","practice_s","true",""
"","","","","","","","html-keyboard-response","23","85856","0.0-4.0-4.3","72","2","2022-11-17 12:25:01","fd252370c17a9971d68c1d4354a03c2e","","Mozilla/5.0 (Windows NT 10.0; Win64; x64; rv:107.0) Gecko/20100101 Firefox/107.0","","Firefox","107.0","Windows","10.0","null","null","","CORRECT!","","","",""
"","","","","","fixation","10420","html-keyboard-response","24","86869","0.0-4.0-0.4","72","2","2022-11-17 12:25:01","fd252370c17a9971d68c1d4354a03c2e","","Mozilla/5.0 (Windows NT 10.0; Win64; x64; rv:107.0) Gecko/20100101 Firefox/107.0","","Firefox","107.0","Windows","10.0","null","null","","<p style=""font-size: 48px;"">+</p>","practice","practice_s","",""
"","","","","","sentence","10420","html-keyboard-response","25","92627","0.0-4.0-1.4","72","2","2022-11-17 12:25:01","fd252370c17a9971d68c1d4354a03c2e","","Mozilla/5.0 (Windows NT 10.0; Win64; x64; rv:107.0) Gecko/20100101 Firefox/107.0","","Firefox","107.0","Windows","10.0","5755"," ","","A balloon dropped and touched a cigarette","practice","practice_s","",""
"","","","","","fixation","10420","html-keyboard-response","26","93138","0.0-4.0-2.4","72","2","2022-11-17 12:25:01","fd252370c17a9971d68c1d4354a03c2e","","Mozilla/5.0 (Windows NT 10.0; Win64; x64; rv:107.0) Gecko/20100101 Firefox/107.0","","Firefox","107.0","Windows","10.0","null","null","","<p style=""font-size: 48px;"">+</p>","practice","practice_s","",""
"","","","","","picture","10420","image-keyboard-response","27","94029","0.0-4.0-3.4","72","2","2022-11-17 12:25:01","fd252370c17a9971d68c1d4354a03c2e","","Mozilla/5.0 (Windows NT 10.0; Win64; x64; rv:107.0) Gecko/20100101 Firefox/107.0","","Firefox","107.0","Windows","10.0","888","s","","cigaretteB.jpg","practice","practice_s","true",""
"","","","","","","","html-keyboard-response","28","96033","0.0-4.0-4.4","72","2","2022-11-17 12:25:01","fd252370c17a9971d68c1d4354a03c2e","","Mozilla/5.0 (Windows NT 10.0; Win64; x64; rv:107.0) Gecko/20100101 Firefox/107.0","","Firefox","107.0","Windows","10.0","null","null","","CORRECT!","","","",""
"","","","","","fixation","10420","html-keyboard-response","29","97049","0.0-4.0-0.5","72","2","2022-11-17 12:25:01","fd252370c17a9971d68c1d4354a03c2e","","Mozilla/5.0 (Windows NT 10.0; Win64; x64; rv:107.0) Gecko/20100101 Firefox/107.0","","Firefox","107.0","Windows","10.0","null","null","","<p style=""font-size: 48px;"">+</p>","practice","practice_n","",""
"","","","","","sentence","10420","html-keyboard-response","30","99143","0.0-4.0-1.5","72","2","2022-11-17 12:25:01","fd252370c17a9971d68c1d4354a03c2e","","Mozilla/5.0 (Windows NT 10.0; Win64; x64; rv:107.0) Gecko/20100101 Firefox/107.0","","Firefox","107.0","Windows","10.0","2090"," ","","A balloon dropped and smashed a cup","practice","practice_n","",""
"","","","","","fixation","10420","html-keyboard-response","31","99653","0.0-4.0-2.5","72","2","2022-11-17 12:25:01","fd252370c17a9971d68c1d4354a03c2e","","Mozilla/5.0 (Windows NT 10.0; Win64; x64; rv:107.0) Gecko/20100101 Firefox/107.0","","Firefox","107.0","Windows","10.0","null","null","","<p style=""font-size: 48px;"">+</p>","practice","practice_n","",""
"","","","","","picture","10420","image-keyboard-response","32","100535","0.0-4.0-3.5","72","2","2022-11-17 12:25:01","fd252370c17a9971d68c1d4354a03c2e","","Mozilla/5.0 (Windows NT 10.0; Win64; x64; rv:107.0) Gecko/20100101 Firefox/107.0","","Firefox","107.0","Windows","10.0","876","n","","bananaB.jpg","practice","practice_n","true",""
"","","","","","","","html-keyboard-response","33","102548","0.0-4.0-4.5","72","2","2022-11-17 12:25:01","fd252370c17a9971d68c1d4354a03c2e","","Mozilla/5.0 (Windows NT 10.0; Win64; x64; rv:107.0) Gecko/20100101 Firefox/107.0","","Firefox","107.0","Windows","10.0","null","null","","CORRECT!","","","",""
"","","","","","movetoexp","10420","html-button-response","34","106105","0.0-5.0","72","2","2022-11-17 12:25:01","fd252370c17a9971d68c1d4354a03c2e","","Mozilla/5.0 (Windows NT 10.0; Win64; x64; rv:107.0) Gecko/20100101 Firefox/107.0","","Firefox","107.0","Windows","10.0","3555","0","","<p style=""font-size:20px;"">You have now completed the practice session! </p>
                    <p style=""font-size:20px;"">You will now move on to the main experiment, where you will not be provided any feedback. </p>
                    <p style=""font-size:20px;"">Remember, you should press <strong>S</strong> if the pictured object was mentioned in the preceding sentence<br> and <strong>N</strong> if the pictured object was not mentioned in the preceding sentence.</p>
                    <p style=""font-size:20px;"">Please click the button below to continue to the main experiment. </p>","","","",""
"","","","","","fixation","10420","html-keyboard-response","35","107121","0.0-6.0-0.0","72","2","2022-11-17 12:25:01","fd252370c17a9971d68c1d4354a03c2e","","Mozilla/5.0 (Windows NT 10.0; Win64; x64; rv:107.0) Gecko/20100101 Firefox/107.0","","Firefox","107.0","Windows","10.0","null","null","","<p style=""font-size: 48px;"">+</p>","2","Filler","",""
"","","","","","sentence","10420","html-keyboard-response","36","109866","0.0-6.0-1.0","72","2","2022-11-17 12:25:01","fd252370c17a9971d68c1d4354a03c2e","","Mozilla/5.0 (Windows NT 10.0; Win64; x64; rv:107.0) Gecko/20100101 Firefox/107.0","","Firefox","107.0","Windows","10.0","2743"," ","","A horse is chewing hay","2","Filler","",""
"","","","","","fixation","10420","html-keyboard-response","37","110379","0.0-6.0-2.0","72","2","2022-11-17 12:25:01","fd252370c17a9971d68c1d4354a03c2e","","Mozilla/5.0 (Windows NT 10.0; Win64; x64; rv:107.0) Gecko/20100101 Firefox/107.0","","Firefox","107.0","Windows","10.0","null","null","","<p style=""font-size: 48px;"">+</p>","2","Filler","",""
"","","","","","picture","10420","image-keyboard-response","38","111388","0.0-6.0-3.0","72","2","2022-11-17 12:25:01","fd252370c17a9971d68c1d4354a03c2e","","Mozilla/5.0 (Windows NT 10.0; Win64; x64; rv:107.0) Gecko/20100101 Firefox/107.0","","Firefox","107.0","Windows","10.0","1002","n","","purse.jpg","2","Filler","true",""
"","","","","","fixation","10420","html-keyboard-response","39","112397","0.0-6.0-0.1","72","2","2022-11-17 12:25:01","fd252370c17a9971d68c1d4354a03c2e","","Mozilla/5.0 (Windows NT 10.0; Win64; x64; rv:107.0) Gecko/20100101 Firefox/107.0","","Firefox","107.0","Windows","10.0","null","null","","<p style=""font-size: 48px;"">+</p>","2","Heavy_Contradictory","",""
"","","","","","sentence","10420","html-keyboard-response","40","115898","0.0-6.0-1.1","72","2","2022-11-17 12:25:01","fd252370c17a9971d68c1d4354a03c2e","","Mozilla/5.0 (Windows NT 10.0; Win64; x64; rv:107.0) Gecko/20100101 Firefox/107.0","","Firefox","107.0","Windows","10.0","3498"," ","","A bowling ball dropped and touched a light bulb","2","Heavy_Contradictory","",""
"","","","","","fixation","10420","html-keyboard-response","41","116408","0.0-6.0-2.1","72","2","2022-11-17 12:25:01","fd252370c17a9971d68c1d4354a03c2e","","Mozilla/5.0 (Windows NT 10.0; Win64; x64; rv:107.0) Gecko/20100101 Firefox/107.0","","Firefox","107.0","Windows","10.0","null","null","","<p style=""font-size: 48px;"">+</p>","2","Heavy_Contradictory","",""
"","","","","","picture","10420","image-keyboard-response","42","116964","0.0-6.0-3.1","72","2","2022-11-17 12:25:01","fd252370c17a9971d68c1d4354a03c2e","","Mozilla/5.0 (Windows NT 10.0; Win64; x64; rv:107.0) Gecko/20100101 Firefox/107.0","","Firefox","107.0","Windows","10.0","551","s","","lampS.jpg","2","Heavy_Contradictory","true",""
"","","","","","fixation","10420","html-keyboard-response","43","117983","0.0-6.0-0.2","72","2","2022-11-17 12:25:01","fd252370c17a9971d68c1d4354a03c2e","","Mozilla/5.0 (Windows NT 10.0; Win64; x64; rv:107.0) Gecko/20100101 Firefox/107.0","","Firefox","107.0","Windows","10.0","null","null","","<p style=""font-size: 48px;"">+</p>","2","Filler","",""
"","","","","","sentence","10420","html-keyboard-response","44","120588","0.0-6.0-1.2","72","2","2022-11-17 12:25:01","fd252370c17a9971d68c1d4354a03c2e","","Mozilla/5.0 (Windows NT 10.0; Win64; x64; rv:107.0) Gecko/20100101 Firefox/107.0","","Firefox","107.0","Windows","10.0","2601"," ","","A needle was placed on the mouse pad","2","Filler","",""
"","","","","","fixation","10420","html-keyboard-response","45","121107","0.0-6.0-2.2","72","2","2022-11-17 12:25:01","fd252370c17a9971d68c1d4354a03c2e","","Mozilla/5.0 (Windows NT 10.0; Win64; x64; rv:107.0) Gecko/20100101 Firefox/107.0","","Firefox","107.0","Windows","10.0","null","null","","<p style=""font-size: 48px;"">+</p>","2","Filler","",""
"","","","","","picture","10420","image-keyboard-response","46","121871","0.0-6.0-3.2","72","2","2022-11-17 12:25:01","fd252370c17a9971d68c1d4354a03c2e","","Mozilla/5.0 (Windows NT 10.0; Win64; x64; rv:107.0) Gecko/20100101 Firefox/107.0","","Firefox","107.0","Windows","10.0","755","n","","chocolate.jpg","2","Filler","true",""
"","","","","","fixation","10420","html-keyboard-response","47","122888","0.0-6.0-0.3","72","2","2022-11-17 12:25:01","fd252370c17a9971d68c1d4354a03c2e","","Mozilla/5.0 (Windows NT 10.0; Win64; x64; rv:107.0) Gecko/20100101 Firefox/107.0","","Firefox","107.0","Windows","10.0","null","null","","<p style=""font-size: 48px;"">+</p>","2","Filler","",""
"","","","","","sentence","10420","html-keyboard-response","48","125709","0.0-6.0-1.3","72","2","2022-11-17 12:25:01","fd252370c17a9971d68c1d4354a03c2e","","Mozilla/5.0 (Windows NT 10.0; Win64; x64; rv:107.0) Gecko/20100101 Firefox/107.0","","Firefox","107.0","Windows","10.0","2816"," ","","A remote was placed on the rug","2","Filler","",""
"","","","","","fixation","10420","html-keyboard-response","49","126218","0.0-6.0-2.3","72","2","2022-11-17 12:25:01","fd252370c17a9971d68c1d4354a03c2e","","Mozilla/5.0 (Windows NT 10.0; Win64; x64; rv:107.0) Gecko/20100101 Firefox/107.0","","Firefox","107.0","Windows","10.0","null","null","","<p style=""font-size: 48px;"">+</p>","2","Filler","",""
"","","","","","picture","10420","image-keyboard-response","50","127389","0.0-6.0-3.3","72","2","2022-11-17 12:25:01","fd252370c17a9971d68c1d4354a03c2e","","Mozilla/5.0 (Windows NT 10.0; Win64; x64; rv:107.0) Gecko/20100101 Firefox/107.0","","Firefox","107.0","Windows","10.0","1166","n","","CD.jpg","2","Filler","true",""
"","","","","","fixation","10420","html-keyboard-response","51","128394","0.0-6.0-0.4","72","2","2022-11-17 12:25:01","fd252370c17a9971d68c1d4354a03c2e","","Mozilla/5.0 (Windows NT 10.0; Win64; x64; rv:107.0) Gecko/20100101 Firefox/107.0","","Firefox","107.0","Windows","10.0","null","null","","<p style=""font-size: 48px;"">+</p>","2","Filler","",""
"","","","","","sentence","10420","html-keyboard-response","52","130898","0.0-6.0-1.4","72","2","2022-11-17 12:25:01","fd252370c17a9971d68c1d4354a03c2e","","Mozilla/5.0 (Windows NT 10.0; Win64; x64; rv:107.0) Gecko/20100101 Firefox/107.0","","Firefox","107.0","Windows","10.0","2499"," ","","A student is writing on a board","2","Filler","",""
"","","","","","fixation","10420","html-keyboard-response","53","131413","0.0-6.0-2.4","72","2","2022-11-17 12:25:01","fd252370c17a9971d68c1d4354a03c2e","","Mozilla/5.0 (Windows NT 10.0; Win64; x64; rv:107.0) Gecko/20100101 Firefox/107.0","","Firefox","107.0","Windows","10.0","null","null","","<p style=""font-size: 48px;"">+</p>","2","Filler","",""
"","","","","","picture","10420","image-keyboard-response","54","132005","0.0-6.0-3.4","72","2","2022-11-17 12:25:01","fd252370c17a9971d68c1d4354a03c2e","","Mozilla/5.0 (Windows NT 10.0; Win64; x64; rv:107.0) Gecko/20100101 Firefox/107.0","","Firefox","107.0","Windows","10.0","580","n","","owl.jpg","2","Filler","true",""
"","","","","","fixation","10420","html-keyboard-response","55","133020","0.0-6.0-0.5","72","2","2022-11-17 12:25:01","fd252370c17a9971d68c1d4354a03c2e","","Mozilla/5.0 (Windows NT 10.0; Win64; x64; rv:107.0) Gecko/20100101 Firefox/107.0","","Firefox","107.0","Windows","10.0","null","null","","<p style=""font-size: 48px;"">+</p>","2","Filler","",""
"","","","","","sentence","10420","html-keyboard-response","56","136013","0.0-6.0-1.5","72","2","2022-11-17 12:25:01","fd252370c17a9971d68c1d4354a03c2e","","Mozilla/5.0 (Windows NT 10.0; Win64; x64; rv:107.0) Gecko/20100101 Firefox/107.0","","Firefox","107.0","Windows","10.0","2990"," ","","A photographer is taking a photo of a lion","2","Filler","",""
"","","","","","fixation","10420","html-keyboard-response","57","136528","0.0-6.0-2.5","72","2","2022-11-17 12:25:01","fd252370c17a9971d68c1d4354a03c2e","","Mozilla/5.0 (Windows NT 10.0; Win64; x64; rv:107.0) Gecko/20100101 Firefox/107.0","","Firefox","107.0","Windows","10.0","null","null","","<p style=""font-size: 48px;"">+</p>","2","Filler","",""
"","","","","","picture","10420","image-keyboard-response","58","137108","0.0-6.0-3.5","72","2","2022-11-17 12:25:01","fd252370c17a9971d68c1d4354a03c2e","","Mozilla/5.0 (Windows NT 10.0; Win64; x64; rv:107.0) Gecko/20100101 Firefox/107.0","","Firefox","107.0","Windows","10.0","569","s","","lion.jpg","2","Filler","true",""
"","","","","","fixation","10420","html-keyboard-response","59","138117","0.0-6.0-0.6","72","2","2022-11-17 12:25:01","fd252370c17a9971d68c1d4354a03c2e","","Mozilla/5.0 (Windows NT 10.0; Win64; x64; rv:107.0) Gecko/20100101 Firefox/107.0","","Firefox","107.0","Windows","10.0","null","null","","<p style=""font-size: 48px;"">+</p>","2","Filler","",""
"","","","","","sentence","10420","html-keyboard-response","60","139219","0.0-6.0-1.6","72","2","2022-11-17 12:25:01","fd252370c17a9971d68c1d4354a03c2e","","Mozilla/5.0 (Windows NT 10.0; Win64; x64; rv:107.0) Gecko/20100101 Firefox/107.0","","Firefox","107.0","Windows","10.0","1099"," ","","A boy is wearing a hat","2","Filler","",""
"","","","","","fixation","10420","html-keyboard-response","61","139734","0.0-6.0-2.6","72","2","2022-11-17 12:25:01","fd252370c17a9971d68c1d4354a03c2e","","Mozilla/5.0 (Windows NT 10.0; Win64; x64; rv:107.0) Gecko/20100101 Firefox/107.0","","Firefox","107.0","Windows","10.0","null","null","","<p style=""font-size: 48px;"">+</p>","2","Filler","",""
"","","","","","picture","10420","image-keyboard-response","62","140275","0.0-6.0-3.6","72","2","2022-11-17 12:25:01","fd252370c17a9971d68c1d4354a03c2e","","Mozilla/5.0 (Windows NT 10.0; Win64; x64; rv:107.0) Gecko/20100101 Firefox/107.0","","Firefox","107.0","Windows","10.0","534","s","","hat.jpg","2","Filler","true",""
"","","","","","fixation","10420","html-keyboard-response","63","141292","0.0-6.0-0.7","72","2","2022-11-17 12:25:01","fd252370c17a9971d68c1d4354a03c2e","","Mozilla/5.0 (Windows NT 10.0; Win64; x64; rv:107.0) Gecko/20100101 Firefox/107.0","","Firefox","107.0","Windows","10.0","null","null","","<p style=""font-size: 48px;"">+</p>","2","Filler","",""
"","","","","","sentence","10420","html-keyboard-response","64","143074","0.0-6.0-1.7","72","2","2022-11-17 12:25:01","fd252370c17a9971d68c1d4354a03c2e","","Mozilla/5.0 (Windows NT 10.0; Win64; x64; rv:107.0) Gecko/20100101 Firefox/107.0","","Firefox","107.0","Windows","10.0","1777"," ","","A fork was placed on the plate","2","Filler","",""
"","","","","","fixation","10420","html-keyboard-response","65","143589","0.0-6.0-2.7","72","2","2022-11-17 12:25:01","fd252370c17a9971d68c1d4354a03c2e","","Mozilla/5.0 (Windows NT 10.0; Win64; x64; rv:107.0) Gecko/20100101 Firefox/107.0","","Firefox","107.0","Windows","10.0","null","null","","<p style=""font-size: 48px;"">+</p>","2","Filler","",""
"","","","","","picture","10420","image-keyboard-response","66","144338","0.0-6.0-3.7","72","2","2022-11-17 12:25:01","fd252370c17a9971d68c1d4354a03c2e","","Mozilla/5.0 (Windows NT 10.0; Win64; x64; rv:107.0) Gecko/20100101 Firefox/107.0","","Firefox","107.0","Windows","10.0","742","s","","plate.jpg","2","Filler","true",""
"","","","","","fixation","10420","html-keyboard-response","67","145353","0.0-6.0-0.8","72","2","2022-11-17 12:25:01","fd252370c17a9971d68c1d4354a03c2e","","Mozilla/5.0 (Windows NT 10.0; Win64; x64; rv:107.0) Gecko/20100101 Firefox/107.0","","Firefox","107.0","Windows","10.0","null","null","","<p style=""font-size: 48px;"">+</p>","2","Heavy_Contradictory","",""
"","","","","","sentence","10420","html-keyboard-response","68","146922","0.0-6.0-1.8","72","2","2022-11-17 12:25:01","fd252370c17a9971d68c1d4354a03c2e","","Mozilla/5.0 (Windows NT 10.0; Win64; x64; rv:107.0) Gecko/20100101 Firefox/107.0","","Firefox","107.0","Windows","10.0","1566"," ","","A bowling ball dropped and touched a donut","2","Heavy_Contradictory","",""
"","","","","","fixation","10420","html-keyboard-response","69","147437","0.0-6.0-2.8","72","2","2022-11-17 12:25:01","fd252370c17a9971d68c1d4354a03c2e","","Mozilla/5.0 (Windows NT 10.0; Win64; x64; rv:107.0) Gecko/20100101 Firefox/107.0","","Firefox","107.0","Windows","10.0","null","null","","<p style=""font-size: 48px;"">+</p>","2","Heavy_Contradictory","",""
"","","","","","picture","10420","image-keyboard-response","70","148038","0.0-6.0-3.8","72","2","2022-11-17 12:25:01","fd252370c17a9971d68c1d4354a03c2e","","Mozilla/5.0 (Windows NT 10.0; Win64; x64; rv:107.0) Gecko/20100101 Firefox/107.0","","Firefox","107.0","Windows","10.0","596","s","","donutS.jpg","2","Heavy_Contradictory","true",""
"","","","","","fixation","10420","html-keyboard-response","71","149042","0.0-6.0-0.9","72","2","2022-11-17 12:25:01","fd252370c17a9971d68c1d4354a03c2e","","Mozilla/5.0 (Windows NT 10.0; Win64; x64; rv:107.0) Gecko/20100101 Firefox/107.0","","Firefox","107.0","Windows","10.0","null","null","","<p style=""font-size: 48px;"">+</p>","2","Filler","",""
"","","","","","sentence","10420","html-keyboard-response","72","150649","0.0-6.0-1.9","72","2","2022-11-17 12:25:01","fd252370c17a9971d68c1d4354a03c2e","","Mozilla/5.0 (Windows NT 10.0; Win64; x64; rv:107.0) Gecko/20100101 Firefox/107.0","","Firefox","107.0","Windows","10.0","1603"," ","","An old man is hammering a nail","2","Filler","",""
"","","","","","fixation","10420","html-keyboard-response","73","151160","0.0-6.0-2.9","72","2","2022-11-17 12:25:01","fd252370c17a9971d68c1d4354a03c2e","","Mozilla/5.0 (Windows NT 10.0; Win64; x64; rv:107.0) Gecko/20100101 Firefox/107.0","","Firefox","107.0","Windows","10.0","null","null","","<p style=""font-size: 48px;"">+</p>","2","Filler","",""
"","","","","","picture","10420","image-keyboard-response","74","152001","0.0-6.0-3.9","72","2","2022-11-17 12:25:01","fd252370c17a9971d68c1d4354a03c2e","","Mozilla/5.0 (Windows NT 10.0; Win64; x64; rv:107.0) Gecko/20100101 Firefox/107.0","","Firefox","107.0","Windows","10.0","829","s","","nail.jpg","2","Filler","true",""
"","","","","","fixation","10420","html-keyboard-response","75","153022","0.0-6.0-0.10","72","2","2022-11-17 12:25:01","fd252370c17a9971d68c1d4354a03c2e","","Mozilla/5.0 (Windows NT 10.0; Win64; x64; rv:107.0) Gecko/20100101 Firefox/107.0","","Firefox","107.0","Windows","10.0","null","null","","<p style=""font-size: 48px;"">+</p>","2","Light_Contradictory","",""
"","","","","","sentence","10420","html-keyboard-response","76","154849","0.0-6.0-1.10","72","2","2022-11-17 12:25:01","fd252370c17a9971d68c1d4354a03c2e","","Mozilla/5.0 (Windows NT 10.0; Win64; x64; rv:107.0) Gecko/20100101 Firefox/107.0","","Firefox","107.0","Windows","10.0","1822"," ","","A balloon dropped and smashed a cracker","2","Light_Contradictory","",""
"","","","","","fixation","10420","html-keyboard-response","77","155367","0.0-6.0-2.10","72","2","2022-11-17 12:25:01","fd252370c17a9971d68c1d4354a03c2e","","Mozilla/5.0 (Windows NT 10.0; Win64; x64; rv:107.0) Gecko/20100101 Firefox/107.0","","Firefox","107.0","Windows","10.0","null","null","","<p style=""font-size: 48px;"">+</p>","2","Light_Contradictory","",""
"","","","","","picture","10420","image-keyboard-response","78","155930","0.0-6.0-3.10","72","2","2022-11-17 12:25:01","fd252370c17a9971d68c1d4354a03c2e","","Mozilla/5.0 (Windows NT 10.0; Win64; x64; rv:107.0) Gecko/20100101 Firefox/107.0","","Firefox","107.0","Windows","10.0","548","s","","crackerS.jpg","2","Light_Contradictory","true",""
"","","","","","fixation","10420","html-keyboard-response","79","156939","0.0-6.0-0.11","72","2","2022-11-17 12:25:01","fd252370c17a9971d68c1d4354a03c2e","","Mozilla/5.0 (Windows NT 10.0; Win64; x64; rv:107.0) Gecko/20100101 Firefox/107.0","","Firefox","107.0","Windows","10.0","null","null","","<p style=""font-size: 48px;"">+</p>","2","Filler","",""
"","","","","","sentence","10420","html-keyboard-response","80","158474","0.0-6.0-1.11","72","2","2022-11-17 12:25:01","fd252370c17a9971d68c1d4354a03c2e","","Mozilla/5.0 (Windows NT 10.0; Win64; x64; rv:107.0) Gecko/20100101 Firefox/107.0","","Firefox","107.0","Windows","10.0","1530"," ","","A mouse is eating cheese","2","Filler","",""
"","","","","","fixation","10420","html-keyboard-response","81","158981","0.0-6.0-2.11","72","2","2022-11-17 12:25:01","fd252370c17a9971d68c1d4354a03c2e","","Mozilla/5.0 (Windows NT 10.0; Win64; x64; rv:107.0) Gecko/20100101 Firefox/107.0","","Firefox","107.0","Windows","10.0","null","null","","<p style=""font-size: 48px;"">+</p>","2","Filler","",""
"","","","","","picture","10420","image-keyboard-response","82","159908","0.0-6.0-3.11","72","2","2022-11-17 12:25:01","fd252370c17a9971d68c1d4354a03c2e","","Mozilla/5.0 (Windows NT 10.0; Win64; x64; rv:107.0) Gecko/20100101 Firefox/107.0","","Firefox","107.0","Windows","10.0","918","n","","ring.jpg","2","Filler","true",""
"","","","","","fixation","10420","html-keyboard-response","83","160917","0.0-6.0-0.12","72","2","2022-11-17 12:25:01","fd252370c17a9971d68c1d4354a03c2e","","Mozilla/5.0 (Windows NT 10.0; Win64; x64; rv:107.0) Gecko/20100101 Firefox/107.0","","Firefox","107.0","Windows","10.0","null","null","","<p style=""font-size: 48px;"">+</p>","2","Heavy_Matched","",""
"","","","","","sentence","10420","html-keyboard-response","84","162647","0.0-6.0-1.12","72","2","2022-11-17 12:25:01","fd252370c17a9971d68c1d4354a03c2e","","Mozilla/5.0 (Windows NT 10.0; Win64; x64; rv:107.0) Gecko/20100101 Firefox/107.0","","Firefox","107.0","Windows","10.0","1725"," ","","A bowling ball dropped and smashed glasses","2","Heavy_Matched","",""
"","","","","","fixation","10420","html-keyboard-response","85","163155","0.0-6.0-2.12","72","2","2022-11-17 12:25:01","fd252370c17a9971d68c1d4354a03c2e","","Mozilla/5.0 (Windows NT 10.0; Win64; x64; rv:107.0) Gecko/20100101 Firefox/107.0","","Firefox","107.0","Windows","10.0","null","null","","<p style=""font-size: 48px;"">+</p>","2","Heavy_Matched","",""
"","","","","","picture","10420","image-keyboard-response","86","163705","0.0-6.0-3.12","72","2","2022-11-17 12:25:01","fd252370c17a9971d68c1d4354a03c2e","","Mozilla/5.0 (Windows NT 10.0; Win64; x64; rv:107.0) Gecko/20100101 Firefox/107.0","","Firefox","107.0","Windows","10.0","547","s","","glassesS.jpg","2","Heavy_Matched","true",""
"","","","","","fixation","10420","html-keyboard-response","87","164716","0.0-6.0-0.13","72","2","2022-11-17 12:25:01","fd252370c17a9971d68c1d4354a03c2e","","Mozilla/5.0 (Windows NT 10.0; Win64; x64; rv:107.0) Gecko/20100101 Firefox/107.0","","Firefox","107.0","Windows","10.0","null","null","","<p style=""font-size: 48px;"">+</p>","2","Filler","",""
"","","","","","sentence","10420","html-keyboard-response","88","167884","0.0-6.0-1.13","72","2","2022-11-17 12:25:01","fd252370c17a9971d68c1d4354a03c2e","","Mozilla/5.0 (Windows NT 10.0; Win64; x64; rv:107.0) Gecko/20100101 Firefox/107.0","","Firefox","107.0","Windows","10.0","3164"," ","","A cushion was placed on the magazine","2","Filler","",""
"","","","","","fixation","10420","html-keyboard-response","89","168397","0.0-6.0-2.13","72","2","2022-11-17 12:25:01","fd252370c17a9971d68c1d4354a03c2e","","Mozilla/5.0 (Windows NT 10.0; Win64; x64; rv:107.0) Gecko/20100101 Firefox/107.0","","Firefox","107.0","Windows","10.0","null","null","","<p style=""font-size: 48px;"">+</p>","2","Filler","",""
"","","","","","picture","10420","image-keyboard-response","90","169274","0.0-6.0-3.13","72","2","2022-11-17 12:25:01","fd252370c17a9971d68c1d4354a03c2e","","Mozilla/5.0 (Windows NT 10.0; Win64; x64; rv:107.0) Gecko/20100101 Firefox/107.0","","Firefox","107.0","Windows","10.0","870","n","","box.jpg","2","Filler","true",""
"","","","","","fixation","10420","html-keyboard-response","91","170290","0.0-6.0-0.14","72","2","2022-11-17 12:25:01","fd252370c17a9971d68c1d4354a03c2e","","Mozilla/5.0 (Windows NT 10.0; Win64; x64; rv:107.0) Gecko/20100101 Firefox/107.0","","Firefox","107.0","Windows","10.0","null","null","","<p style=""font-size: 48px;"">+</p>","2","Heavy_Matched","",""
"","","","","","sentence","10420","html-keyboard-response","92","174200","0.0-6.0-1.14","72","2","2022-11-17 12:25:01","fd252370c17a9971d68c1d4354a03c2e","","Mozilla/5.0 (Windows NT 10.0; Win64; x64; rv:107.0) Gecko/20100101 Firefox/107.0","","Firefox","107.0","Windows","10.0","3903"," ","","A bowling ball dropped and smashed an egg flan","2","Heavy_Matched","",""
"","","","","","fixation","10420","html-keyboard-response","93","174704","0.0-6.0-2.14","72","2","2022-11-17 12:25:01","fd252370c17a9971d68c1d4354a03c2e","","Mozilla/5.0 (Windows NT 10.0; Win64; x64; rv:107.0) Gecko/20100101 Firefox/107.0","","Firefox","107.0","Windows","10.0","null","null","","<p style=""font-size: 48px;"">+</p>","2","Heavy_Matched","",""
"","","","","","picture","10420","image-keyboard-response","94","180274","0.0-6.0-3.14","72","2","2022-11-17 12:25:01","fd252370c17a9971d68c1d4354a03c2e","","Mozilla/5.0 (Windows NT 10.0; Win64; x64; rv:107.0) Gecko/20100101 Firefox/107.0","","Firefox","107.0","Windows","10.0","5556","n","","eggflanS.jpg","2","Heavy_Matched","false",""
"","","","","","fixation","10420","html-keyboard-response","95","181277","0.0-6.0-0.15","72","2","2022-11-17 12:25:01","fd252370c17a9971d68c1d4354a03c2e","","Mozilla/5.0 (Windows NT 10.0; Win64; x64; rv:107.0) Gecko/20100101 Firefox/107.0","","Firefox","107.0","Windows","10.0","null","null","","<p style=""font-size: 48px;"">+</p>","2","Light_Matched","",""
"","","","","","sentence","10420","html-keyboard-response","96","185103","0.0-6.0-1.15","72","2","2022-11-17 12:25:01","fd252370c17a9971d68c1d4354a03c2e","","Mozilla/5.0 (Windows NT 10.0; Win64; x64; rv:107.0) Gecko/20100101 Firefox/107.0","","Firefox","107.0","Windows","10.0","3815"," ","","A balloon dropped and touched a tomato","2","Light_Matched","",""
"","","","","","fixation","10420","html-keyboard-response","97","185615","0.0-6.0-2.15","72","2","2022-11-17 12:25:01","fd252370c17a9971d68c1d4354a03c2e","","Mozilla/5.0 (Windows NT 10.0; Win64; x64; rv:107.0) Gecko/20100101 Firefox/107.0","","Firefox","107.0","Windows","10.0","null","null","","<p style=""font-size: 48px;"">+</p>","2","Light_Matched","",""
"","","","","","picture","10420","image-keyboard-response","98","186290","0.0-6.0-3.15","72","2","2022-11-17 12:25:01","fd252370c17a9971d68c1d4354a03c2e","","Mozilla/5.0 (Windows NT 10.0; Win64; x64; rv:107.0) Gecko/20100101 Firefox/107.0","","Firefox","107.0","Windows","10.0","658","s","","tomatoS.jpg","2","Light_Matched","true",""
"","","","","","fixation","10420","html-keyboard-response","99","187303","0.0-6.0-0.16","72","2","2022-11-17 12:25:01","fd252370c17a9971d68c1d4354a03c2e","","Mozilla/5.0 (Windows NT 10.0; Win64; x64; rv:107.0) Gecko/20100101 Firefox/107.0","","Firefox","107.0","Windows","10.0","null","null","","<p style=""font-size: 48px;"">+</p>","2","Filler","",""
"","","","","","sentence","10420","html-keyboard-response","100","189036","0.0-6.0-1.16","72","2","2022-11-17 12:25:01","fd252370c17a9971d68c1d4354a03c2e","","Mozilla/5.0 (Windows NT 10.0; Win64; x64; rv:107.0) Gecko/20100101 Firefox/107.0","","Firefox","107.0","Windows","10.0","1730"," ","","A woman is paying with a debit card","2","Filler","",""
"","","","","","fixation","10420","html-keyboard-response","101","189546","0.0-6.0-2.16","72","2","2022-11-17 12:25:01","fd252370c17a9971d68c1d4354a03c2e","","Mozilla/5.0 (Windows NT 10.0; Win64; x64; rv:107.0) Gecko/20100101 Firefox/107.0","","Firefox","107.0","Windows","10.0","null","null","","<p style=""font-size: 48px;"">+</p>","2","Filler","",""
"","","","","","picture","10420","image-keyboard-response","102","190228","0.0-6.0-3.16","72","2","2022-11-17 12:25:01","fd252370c17a9971d68c1d4354a03c2e","","Mozilla/5.0 (Windows NT 10.0; Win64; x64; rv:107.0) Gecko/20100101 Firefox/107.0","","Firefox","107.0","Windows","10.0","669","n","","papercup.jpg","2","Filler","true",""
"","","","","","fixation","10420","html-keyboard-response","103","191242","0.0-6.0-0.17","72","2","2022-11-17 12:25:01","fd252370c17a9971d68c1d4354a03c2e","","Mozilla/5.0 (Windows NT 10.0; Win64; x64; rv:107.0) Gecko/20100101 Firefox/107.0","","Firefox","107.0","Windows","10.0","null","null","","<p style=""font-size: 48px;"">+</p>","2","Filler","",""
"","","","","","sentence","10420","html-keyboard-response","104","193122","0.0-6.0-1.17","72","2","2022-11-17 12:25:01","fd252370c17a9971d68c1d4354a03c2e","","Mozilla/5.0 (Windows NT 10.0; Win64; x64; rv:107.0) Gecko/20100101 Firefox/107.0","","Firefox","107.0","Windows","10.0","1875"," ","","An astronaut is putting on a space suit","2","Filler","",""
"","","","","","fixation","10420","html-keyboard-response","105","193639","0.0-6.0-2.17","72","2","2022-11-17 12:25:01","fd252370c17a9971d68c1d4354a03c2e","","Mozilla/5.0 (Windows NT 10.0; Win64; x64; rv:107.0) Gecko/20100101 Firefox/107.0","","Firefox","107.0","Windows","10.0","null","null","","<p style=""font-size: 48px;"">+</p>","2","Filler","",""
"","","","","","picture","10420","image-keyboard-response","106","194207","0.0-6.0-3.17","72","2","2022-11-17 12:25:01","fd252370c17a9971d68c1d4354a03c2e","","Mozilla/5.0 (Windows NT 10.0; Win64; x64; rv:107.0) Gecko/20100101 Firefox/107.0","","Firefox","107.0","Windows","10.0","555","s","","spacesuit.jpg","2","Filler","true",""
"","","","","","fixation","10420","html-keyboard-response","107","195213","0.0-6.0-0.18","72","2","2022-11-17 12:25:01","fd252370c17a9971d68c1d4354a03c2e","","Mozilla/5.0 (Windows NT 10.0; Win64; x64; rv:107.0) Gecko/20100101 Firefox/107.0","","Firefox","107.0","Windows","10.0","null","null","","<p style=""font-size: 48px;"">+</p>","2","Filler","",""
"","","","","","sentence","10420","html-keyboard-response","108","196533","0.0-6.0-1.18","72","2","2022-11-17 12:25:01","fd252370c17a9971d68c1d4354a03c2e","","Mozilla/5.0 (Windows NT 10.0; Win64; x64; rv:107.0) Gecko/20100101 Firefox/107.0","","Firefox","107.0","Windows","10.0","1314"," ","","An actress is taking a microphone","2","Filler","",""
"","","","","","fixation","10420","html-keyboard-response","109","197047","0.0-6.0-2.18","72","2","2022-11-17 12:25:01","fd252370c17a9971d68c1d4354a03c2e","","Mozilla/5.0 (Windows NT 10.0; Win64; x64; rv:107.0) Gecko/20100101 Firefox/107.0","","Firefox","107.0","Windows","10.0","null","null","","<p style=""font-size: 48px;"">+</p>","2","Filler","",""
"","","","","","picture","10420","image-keyboard-response","110","197638","0.0-6.0-3.18","72","2","2022-11-17 12:25:01","fd252370c17a9971d68c1d4354a03c2e","","Mozilla/5.0 (Windows NT 10.0; Win64; x64; rv:107.0) Gecko/20100101 Firefox/107.0","","Firefox","107.0","Windows","10.0","575","n","","pants.jpg","2","Filler","true",""
"","","","","","fixation","10420","html-keyboard-response","111","198655","0.0-6.0-0.19","72","2","2022-11-17 12:25:01","fd252370c17a9971d68c1d4354a03c2e","","Mozilla/5.0 (Windows NT 10.0; Win64; x64; rv:107.0) Gecko/20100101 Firefox/107.0","","Firefox","107.0","Windows","10.0","null","null","","<p style=""font-size: 48px;"">+</p>","2","Filler","",""
"","","","","","sentence","10420","html-keyboard-response","112","200267","0.0-6.0-1.19","72","2","2022-11-17 12:25:01","fd252370c17a9971d68c1d4354a03c2e","","Mozilla/5.0 (Windows NT 10.0; Win64; x64; rv:107.0) Gecko/20100101 Firefox/107.0","","Firefox","107.0","Windows","10.0","1606"," ","","A thermometer was placed on the box","2","Filler","",""
"","","","","","fixation","10420","html-keyboard-response","113","200775","0.0-6.0-2.19","72","2","2022-11-17 12:25:01","fd252370c17a9971d68c1d4354a03c2e","","Mozilla/5.0 (Windows NT 10.0; Win64; x64; rv:107.0) Gecko/20100101 Firefox/107.0","","Firefox","107.0","Windows","10.0","null","null","","<p style=""font-size: 48px;"">+</p>","2","Filler","",""
"","","","","","picture","10420","image-keyboard-response","114","201341","0.0-6.0-3.19","72","2","2022-11-17 12:25:01","fd252370c17a9971d68c1d4354a03c2e","","Mozilla/5.0 (Windows NT 10.0; Win64; x64; rv:107.0) Gecko/20100101 Firefox/107.0","","Firefox","107.0","Windows","10.0","558","n","","button.jpg","2","Filler","true",""
"","","","","","fixation","10420","html-keyboard-response","115","202358","0.0-6.0-0.20","72","2","2022-11-17 12:25:01","fd252370c17a9971d68c1d4354a03c2e","","Mozilla/5.0 (Windows NT 10.0; Win64; x64; rv:107.0) Gecko/20100101 Firefox/107.0","","Firefox","107.0","Windows","10.0","null","null","","<p style=""font-size: 48px;"">+</p>","2","Filler","",""
"","","","","","sentence","10420","html-keyboard-response","116","203849","0.0-6.0-1.20","72","2","2022-11-17 12:25:01","fd252370c17a9971d68c1d4354a03c2e","","Mozilla/5.0 (Windows NT 10.0; Win64; x64; rv:107.0) Gecko/20100101 Firefox/107.0","","Firefox","107.0","Windows","10.0","1484"," ","","A teenage girl is playing the piano","2","Filler","",""
"","","","","","fixation","10420","html-keyboard-response","117","204363","0.0-6.0-2.20","72","2","2022-11-17 12:25:01","fd252370c17a9971d68c1d4354a03c2e","","Mozilla/5.0 (Windows NT 10.0; Win64; x64; rv:107.0) Gecko/20100101 Firefox/107.0","","Firefox","107.0","Windows","10.0","null","null","","<p style=""font-size: 48px;"">+</p>","2","Filler","",""
"","","","","","picture","10420","image-keyboard-response","118","205031","0.0-6.0-3.20","72","2","2022-11-17 12:25:01","fd252370c17a9971d68c1d4354a03c2e","","Mozilla/5.0 (Windows NT 10.0; Win64; x64; rv:107.0) Gecko/20100101 Firefox/107.0","","Firefox","107.0","Windows","10.0","653","n","","pillow.jpg","2","Filler","true",""
"","","","","","fixation","10420","html-keyboard-response","119","206047","0.0-6.0-0.21","72","2","2022-11-17 12:25:01","fd252370c17a9971d68c1d4354a03c2e","","Mozilla/5.0 (Windows NT 10.0; Win64; x64; rv:107.0) Gecko/20100101 Firefox/107.0","","Firefox","107.0","Windows","10.0","null","null","","<p style=""font-size: 48px;"">+</p>","2","Heavy_Contradictory","",""
"","","","","","sentence","10420","html-keyboard-response","120","208266","0.0-6.0-1.21","72","2","2022-11-17 12:25:01","fd252370c17a9971d68c1d4354a03c2e","","Mozilla/5.0 (Windows NT 10.0; Win64; x64; rv:107.0) Gecko/20100101 Firefox/107.0","","Firefox","107.0","Windows","10.0","2213"," ","","A bowling ball dropped and touched a chocolate muffin","2","Heavy_Contradictory","",""
"","","","","","fixation","10420","html-keyboard-response","121","208782","0.0-6.0-2.21","72","2","2022-11-17 12:25:01","fd252370c17a9971d68c1d4354a03c2e","","Mozilla/5.0 (Windows NT 10.0; Win64; x64; rv:107.0) Gecko/20100101 Firefox/107.0","","Firefox","107.0","Windows","10.0","null","null","","<p style=""font-size: 48px;"">+</p>","2","Heavy_Contradictory","",""
"","","","","","picture","10420","image-keyboard-response","122","209308","0.0-6.0-3.21","72","2","2022-11-17 12:25:01","fd252370c17a9971d68c1d4354a03c2e","","Mozilla/5.0 (Windows NT 10.0; Win64; x64; rv:107.0) Gecko/20100101 Firefox/107.0","","Firefox","107.0","Windows","10.0","515","s","","muffinS.jpg","2","Heavy_Contradictory","true",""
"","","","","","fixation","10420","html-keyboard-response","123","210323","0.0-6.0-0.22","72","2","2022-11-17 12:25:01","fd252370c17a9971d68c1d4354a03c2e","","Mozilla/5.0 (Windows NT 10.0; Win64; x64; rv:107.0) Gecko/20100101 Firefox/107.0","","Firefox","107.0","Windows","10.0","null","null","","<p style=""font-size: 48px;"">+</p>","2","Filler","",""
"","","","","","sentence","10420","html-keyboard-response","124","211471","0.0-6.0-1.22","72","2","2022-11-17 12:25:01","fd252370c17a9971d68c1d4354a03c2e","","Mozilla/5.0 (Windows NT 10.0; Win64; x64; rv:107.0) Gecko/20100101 Firefox/107.0","","Firefox","107.0","Windows","10.0","1142"," ","","A thief is stealing a wallet","2","Filler","",""
"","","","","","fixation","10420","html-keyboard-response","125","211992","0.0-6.0-2.22","72","2","2022-11-17 12:25:01","fd252370c17a9971d68c1d4354a03c2e","","Mozilla/5.0 (Windows NT 10.0; Win64; x64; rv:107.0) Gecko/20100101 Firefox/107.0","","Firefox","107.0","Windows","10.0","null","null","","<p style=""font-size: 48px;"">+</p>","2","Filler","",""
"","","","","","picture","10420","image-keyboard-response","126","212587","0.0-6.0-3.22","72","2","2022-11-17 12:25:01","fd252370c17a9971d68c1d4354a03c2e","","Mozilla/5.0 (Windows NT 10.0; Win64; x64; rv:107.0) Gecko/20100101 Firefox/107.0","","Firefox","107.0","Windows","10.0","592","n","","teddybear.jpg","2","Filler","true",""
"","","","","","fixation","10420","html-keyboard-response","127","213594","0.0-6.0-0.23","72","2","2022-11-17 12:25:01","fd252370c17a9971d68c1d4354a03c2e","","Mozilla/5.0 (Windows NT 10.0; Win64; x64; rv:107.0) Gecko/20100101 Firefox/107.0","","Firefox","107.0","Windows","10.0","null","null","","<p style=""font-size: 48px;"">+</p>","2","Filler","",""
"","","","","","sentence","10420","html-keyboard-response","128","215079","0.0-6.0-1.23","72","2","2022-11-17 12:25:01","fd252370c17a9971d68c1d4354a03c2e","","Mozilla/5.0 (Windows NT 10.0; Win64; x64; rv:107.0) Gecko/20100101 Firefox/107.0","","Firefox","107.0","Windows","10.0","1479"," ","","A panda is resting on a tree","2","Filler","",""
"","","","","","fixation","10420","html-keyboard-response","129","215587","0.0-6.0-2.23","72","2","2022-11-17 12:25:01","fd252370c17a9971d68c1d4354a03c2e","","Mozilla/5.0 (Windows NT 10.0; Win64; x64; rv:107.0) Gecko/20100101 Firefox/107.0","","Firefox","107.0","Windows","10.0","null","null","","<p style=""font-size: 48px;"">+</p>","2","Filler","",""
"","","","","","picture","10420","image-keyboard-response","130","216153","0.0-6.0-3.23","72","2","2022-11-17 12:25:01","fd252370c17a9971d68c1d4354a03c2e","","Mozilla/5.0 (Windows NT 10.0; Win64; x64; rv:107.0) Gecko/20100101 Firefox/107.0","","Firefox","107.0","Windows","10.0","552","n","","dollar.jpg","2","Filler","true",""
"","","","","","fixation","10420","html-keyboard-response","131","217155","0.0-6.0-0.24","72","2","2022-11-17 12:25:01","fd252370c17a9971d68c1d4354a03c2e","","Mozilla/5.0 (Windows NT 10.0; Win64; x64; rv:107.0) Gecko/20100101 Firefox/107.0","","Firefox","107.0","Windows","10.0","null","null","","<p style=""font-size: 48px;"">+</p>","2","Light_Contradictory","",""
"","","","","","sentence","10420","html-keyboard-response","132","219007","0.0-6.0-1.24","72","2","2022-11-17 12:25:01","fd252370c17a9971d68c1d4354a03c2e","","Mozilla/5.0 (Windows NT 10.0; Win64; x64; rv:107.0) Gecko/20100101 Firefox/107.0","","Firefox","107.0","Windows","10.0","1845"," ","","A balloon dropped and smashed a porcelain figure","2","Light_Contradictory","",""
"","","","","","fixation","10420","html-keyboard-response","133","219521","0.0-6.0-2.24","72","2","2022-11-17 12:25:01","fd252370c17a9971d68c1d4354a03c2e","","Mozilla/5.0 (Windows NT 10.0; Win64; x64; rv:107.0) Gecko/20100101 Firefox/107.0","","Firefox","107.0","Windows","10.0","null","null","","<p style=""font-size: 48px;"">+</p>","2","Light_Contradictory","",""
"","","","","","picture","10420","image-keyboard-response","134","219911","0.0-6.0-3.24","72","2","2022-11-17 12:25:01","fd252370c17a9971d68c1d4354a03c2e","","Mozilla/5.0 (Windows NT 10.0; Win64; x64; rv:107.0) Gecko/20100101 Firefox/107.0","","Firefox","107.0","Windows","10.0","378","s","","figureS.jpg","2","Light_Contradictory","true",""
"","","","","","fixation","10420","html-keyboard-response","135","220920","0.0-6.0-0.25","72","2","2022-11-17 12:25:01","fd252370c17a9971d68c1d4354a03c2e","","Mozilla/5.0 (Windows NT 10.0; Win64; x64; rv:107.0) Gecko/20100101 Firefox/107.0","","Firefox","107.0","Windows","10.0","null","null","","<p style=""font-size: 48px;"">+</p>","2","Filler","",""
"","","","","","sentence","10420","html-keyboard-response","136","221840","0.0-6.0-1.25","72","2","2022-11-17 12:25:01","fd252370c17a9971d68c1d4354a03c2e","","Mozilla/5.0 (Windows NT 10.0; Win64; x64; rv:107.0) Gecko/20100101 Firefox/107.0","","Firefox","107.0","Windows","10.0","913"," ","","A pencil was placed on the shoe","2","Filler","",""
"","","","","","fixation","10420","html-keyboard-response","137","222354","0.0-6.0-2.25","72","2","2022-11-17 12:25:01","fd252370c17a9971d68c1d4354a03c2e","","Mozilla/5.0 (Windows NT 10.0; Win64; x64; rv:107.0) Gecko/20100101 Firefox/107.0","","Firefox","107.0","Windows","10.0","null","null","","<p style=""font-size: 48px;"">+</p>","2","Filler","",""
"","","","","","picture","10420","image-keyboard-response","138","223139","0.0-6.0-3.25","72","2","2022-11-17 12:25:01","fd252370c17a9971d68c1d4354a03c2e","","Mozilla/5.0 (Windows NT 10.0; Win64; x64; rv:107.0) Gecko/20100101 Firefox/107.0","","Firefox","107.0","Windows","10.0","771","n","","perfume.jpg","2","Filler","true",""
"","","","","","fixation","10420","html-keyboard-response","139","224158","0.0-6.0-0.26","72","2","2022-11-17 12:25:01","fd252370c17a9971d68c1d4354a03c2e","","Mozilla/5.0 (Windows NT 10.0; Win64; x64; rv:107.0) Gecko/20100101 Firefox/107.0","","Firefox","107.0","Windows","10.0","null","null","","<p style=""font-size: 48px;"">+</p>","2","Filler","",""
"","","","","","sentence","10420","html-keyboard-response","140","225985","0.0-6.0-1.26","72","2","2022-11-17 12:25:01","fd252370c17a9971d68c1d4354a03c2e","","Mozilla/5.0 (Windows NT 10.0; Win64; x64; rv:107.0) Gecko/20100101 Firefox/107.0","","Firefox","107.0","Windows","10.0","1822"," ","","A giraffe is playing with a zebra","2","Filler","",""
"","","","","","fixation","10420","html-keyboard-response","141","226504","0.0-6.0-2.26","72","2","2022-11-17 12:25:01","fd252370c17a9971d68c1d4354a03c2e","","Mozilla/5.0 (Windows NT 10.0; Win64; x64; rv:107.0) Gecko/20100101 Firefox/107.0","","Firefox","107.0","Windows","10.0","null","null","","<p style=""font-size: 48px;"">+</p>","2","Filler","",""
"","","","","","picture","10420","image-keyboard-response","142","227271","0.0-6.0-3.26","72","2","2022-11-17 12:25:01","fd252370c17a9971d68c1d4354a03c2e","","Mozilla/5.0 (Windows NT 10.0; Win64; x64; rv:107.0) Gecko/20100101 Firefox/107.0","","Firefox","107.0","Windows","10.0","757","n","","wallet.jpg","2","Filler","true",""
"","","","","","fixation","10420","html-keyboard-response","143","228282","0.0-6.0-0.27","72","2","2022-11-17 12:25:01","fd252370c17a9971d68c1d4354a03c2e","","Mozilla/5.0 (Windows NT 10.0; Win64; x64; rv:107.0) Gecko/20100101 Firefox/107.0","","Firefox","107.0","Windows","10.0","null","null","","<p style=""font-size: 48px;"">+</p>","2","Filler","",""
"","","","","","sentence","10420","html-keyboard-response","144","229584","0.0-6.0-1.27","72","2","2022-11-17 12:25:01","fd252370c17a9971d68c1d4354a03c2e","","Mozilla/5.0 (Windows NT 10.0; Win64; x64; rv:107.0) Gecko/20100101 Firefox/107.0","","Firefox","107.0","Windows","10.0","1296"," ","","A cabbage was placed on the table","2","Filler","",""
"","","","","","fixation","10420","html-keyboard-response","145","230103","0.0-6.0-2.27","72","2","2022-11-17 12:25:01","fd252370c17a9971d68c1d4354a03c2e","","Mozilla/5.0 (Windows NT 10.0; Win64; x64; rv:107.0) Gecko/20100101 Firefox/107.0","","Firefox","107.0","Windows","10.0","null","null","","<p style=""font-size: 48px;"">+</p>","2","Filler","",""
"","","","","","picture","10420","image-keyboard-response","146","231596","0.0-6.0-3.27","72","2","2022-11-17 12:25:01","fd252370c17a9971d68c1d4354a03c2e","","Mozilla/5.0 (Windows NT 10.0; Win64; x64; rv:107.0) Gecko/20100101 Firefox/107.0","","Firefox","107.0","Windows","10.0","1479","n","","ladder.jpg","2","Filler","true",""
"","","","","","fixation","10420","html-keyboard-response","147","232611","0.0-6.0-0.28","72","2","2022-11-17 12:25:01","fd252370c17a9971d68c1d4354a03c2e","","Mozilla/5.0 (Windows NT 10.0; Win64; x64; rv:107.0) Gecko/20100101 Firefox/107.0","","Firefox","107.0","Windows","10.0","null","null","","<p style=""font-size: 48px;"">+</p>","2","Light_Matched","",""
"","","","","","sentence","10420","html-keyboard-response","148","235985","0.0-6.0-1.28","72","2","2022-11-17 12:25:01","fd252370c17a9971d68c1d4354a03c2e","","Mozilla/5.0 (Windows NT 10.0; Win64; x64; rv:107.0) Gecko/20100101 Firefox/107.0","","Firefox","107.0","Windows","10.0","3369"," ","","A balloon dropped and touched a ceramic plate","2","Light_Matched","",""
"","","","","","fixation","10420","html-keyboard-response","149","236506","0.0-6.0-2.28","72","2","2022-11-17 12:25:01","fd252370c17a9971d68c1d4354a03c2e","","Mozilla/5.0 (Windows NT 10.0; Win64; x64; rv:107.0) Gecko/20100101 Firefox/107.0","","Firefox","107.0","Windows","10.0","null","null","","<p style=""font-size: 48px;"">+</p>","2","Light_Matched","",""
"","","","","","picture","10420","image-keyboard-response","150","237001","0.0-6.0-3.28","72","2","2022-11-17 12:25:01","fd252370c17a9971d68c1d4354a03c2e","","Mozilla/5.0 (Windows NT 10.0; Win64; x64; rv:107.0) Gecko/20100101 Firefox/107.0","","Firefox","107.0","Windows","10.0","475","s","","plateS.jpg","2","Light_Matched","true",""
"","","","","","fixation","10420","html-keyboard-response","151","238015","0.0-6.0-0.29","72","2","2022-11-17 12:25:01","fd252370c17a9971d68c1d4354a03c2e","","Mozilla/5.0 (Windows NT 10.0; Win64; x64; rv:107.0) Gecko/20100101 Firefox/107.0","","Firefox","107.0","Windows","10.0","null","null","","<p style=""font-size: 48px;"">+</p>","2","Filler","",""
"","","","","","sentence","10420","html-keyboard-response","152","241458","0.0-6.0-1.29","72","2","2022-11-17 12:25:01","fd252370c17a9971d68c1d4354a03c2e","","Mozilla/5.0 (Windows NT 10.0; Win64; x64; rv:107.0) Gecko/20100101 Firefox/107.0","","Firefox","107.0","Windows","10.0","3437"," ","","A watch was placed on the laptop","2","Filler","",""
"","","","","","fixation","10420","html-keyboard-response","153","241975","0.0-6.0-2.29","72","2","2022-11-17 12:25:01","fd252370c17a9971d68c1d4354a03c2e","","Mozilla/5.0 (Windows NT 10.0; Win64; x64; rv:107.0) Gecko/20100101 Firefox/107.0","","Firefox","107.0","Windows","10.0","null","null","","<p style=""font-size: 48px;"">+</p>","2","Filler","",""
"","","","","","picture","10420","image-keyboard-response","154","242611","0.0-6.0-3.29","72","2","2022-11-17 12:25:01","fd252370c17a9971d68c1d4354a03c2e","","Mozilla/5.0 (Windows NT 10.0; Win64; x64; rv:107.0) Gecko/20100101 Firefox/107.0","","Firefox","107.0","Windows","10.0","627","n","","bow.jpg","2","Filler","true",""
"","","","","","fixation","10420","html-keyboard-response","155","243623","0.0-6.0-0.30","72","2","2022-11-17 12:25:01","fd252370c17a9971d68c1d4354a03c2e","","Mozilla/5.0 (Windows NT 10.0; Win64; x64; rv:107.0) Gecko/20100101 Firefox/107.0","","Firefox","107.0","Windows","10.0","null","null","","<p style=""font-size: 48px;"">+</p>","2","Filler","",""
"","","","","","sentence","10420","html-keyboard-response","156","245706","0.0-6.0-1.30","72","2","2022-11-17 12:25:01","fd252370c17a9971d68c1d4354a03c2e","","Mozilla/5.0 (Windows NT 10.0; Win64; x64; rv:107.0) Gecko/20100101 Firefox/107.0","","Firefox","107.0","Windows","10.0","2073"," ","","A cook is taking a knife","2","Filler","",""
"","","","","","fixation","10420","html-keyboard-response","157","246232","0.0-6.0-2.30","72","2","2022-11-17 12:25:01","fd252370c17a9971d68c1d4354a03c2e","","Mozilla/5.0 (Windows NT 10.0; Win64; x64; rv:107.0) Gecko/20100101 Firefox/107.0","","Firefox","107.0","Windows","10.0","null","null","","<p style=""font-size: 48px;"">+</p>","2","Filler","",""
"","","","","","picture","10420","image-keyboard-response","158","246753","0.0-6.0-3.30","72","2","2022-11-17 12:25:01","fd252370c17a9971d68c1d4354a03c2e","","Mozilla/5.0 (Windows NT 10.0; Win64; x64; rv:107.0) Gecko/20100101 Firefox/107.0","","Firefox","107.0","Windows","10.0","512","s","","knife.jpg","2","Filler","true",""
"","","","","","fixation","10420","html-keyboard-response","159","247781","0.0-6.0-0.31","72","2","2022-11-17 12:25:01","fd252370c17a9971d68c1d4354a03c2e","","Mozilla/5.0 (Windows NT 10.0; Win64; x64; rv:107.0) Gecko/20100101 Firefox/107.0","","Firefox","107.0","Windows","10.0","null","null","","<p style=""font-size: 48px;"">+</p>","2","Heavy_Contradictory","",""
"","","","","","sentence","10420","html-keyboard-response","160","249650","0.0-6.0-1.31","72","2","2022-11-17 12:25:01","fd252370c17a9971d68c1d4354a03c2e","","Mozilla/5.0 (Windows NT 10.0; Win64; x64; rv:107.0) Gecko/20100101 Firefox/107.0","","Firefox","107.0","Windows","10.0","1858"," ","","A bowling ball dropped and touched an iPhone","2","Heavy_Contradictory","",""
"","","","","","fixation","10420","html-keyboard-response","161","250173","0.0-6.0-2.31","72","2","2022-11-17 12:25:01","fd252370c17a9971d68c1d4354a03c2e","","Mozilla/5.0 (Windows NT 10.0; Win64; x64; rv:107.0) Gecko/20100101 Firefox/107.0","","Firefox","107.0","Windows","10.0","null","null","","<p style=""font-size: 48px;"">+</p>","2","Heavy_Contradictory","",""
"","","","","","picture","10420","image-keyboard-response","162","250795","0.0-6.0-3.31","72","2","2022-11-17 12:25:01","fd252370c17a9971d68c1d4354a03c2e","","Mozilla/5.0 (Windows NT 10.0; Win64; x64; rv:107.0) Gecko/20100101 Firefox/107.0","","Firefox","107.0","Windows","10.0","607","s","","iphoneS.png","2","Heavy_Contradictory","true",""
"","","","","","fixation","10420","html-keyboard-response","163","251810","0.0-6.0-0.32","72","2","2022-11-17 12:25:01","fd252370c17a9971d68c1d4354a03c2e","","Mozilla/5.0 (Windows NT 10.0; Win64; x64; rv:107.0) Gecko/20100101 Firefox/107.0","","Firefox","107.0","Windows","10.0","null","null","","<p style=""font-size: 48px;"">+</p>","2","Filler","",""
"","","","","","sentence","10420","html-keyboard-response","164","253752","0.0-6.0-1.32","72","2","2022-11-17 12:25:01","fd252370c17a9971d68c1d4354a03c2e","","Mozilla/5.0 (Windows NT 10.0; Win64; x64; rv:107.0) Gecko/20100101 Firefox/107.0","","Firefox","107.0","Windows","10.0","1940"," ","","A toothbrush was placed on the sponge","2","Filler","",""
"","","","","","fixation","10420","html-keyboard-response","165","254262","0.0-6.0-2.32","72","2","2022-11-17 12:25:01","fd252370c17a9971d68c1d4354a03c2e","","Mozilla/5.0 (Windows NT 10.0; Win64; x64; rv:107.0) Gecko/20100101 Firefox/107.0","","Firefox","107.0","Windows","10.0","null","null","","<p style=""font-size: 48px;"">+</p>","2","Filler","",""
"","","","","","picture","10420","image-keyboard-response","166","254919","0.0-6.0-3.32","72","2","2022-11-17 12:25:01","fd252370c17a9971d68c1d4354a03c2e","","Mozilla/5.0 (Windows NT 10.0; Win64; x64; rv:107.0) Gecko/20100101 Firefox/107.0","","Firefox","107.0","Windows","10.0","651","s","","sponge.jpg","2","Filler","true",""
"","","","","","fixation","10420","html-keyboard-response","167","255929","0.0-6.0-0.33","72","2","2022-11-17 12:25:01","fd252370c17a9971d68c1d4354a03c2e","","Mozilla/5.0 (Windows NT 10.0; Win64; x64; rv:107.0) Gecko/20100101 Firefox/107.0","","Firefox","107.0","Windows","10.0","null","null","","<p style=""font-size: 48px;"">+</p>","2","Filler","",""
"","","","","","sentence","10420","html-keyboard-response","168","256958","0.0-6.0-1.33","72","2","2022-11-17 12:25:01","fd252370c17a9971d68c1d4354a03c2e","","Mozilla/5.0 (Windows NT 10.0; Win64; x64; rv:107.0) Gecko/20100101 Firefox/107.0","","Firefox","107.0","Windows","10.0","1017"," ","","A musician is playing a guitar","2","Filler","",""
"","","","","","fixation","10420","html-keyboard-response","169","257467","0.0-6.0-2.33","72","2","2022-11-17 12:25:01","fd252370c17a9971d68c1d4354a03c2e","","Mozilla/5.0 (Windows NT 10.0; Win64; x64; rv:107.0) Gecko/20100101 Firefox/107.0","","Firefox","107.0","Windows","10.0","null","null","","<p style=""font-size: 48px;"">+</p>","2","Filler","",""
"","","","","","picture","10420","image-keyboard-response","170","258053","0.0-6.0-3.33","72","2","2022-11-17 12:25:01","fd252370c17a9971d68c1d4354a03c2e","","Mozilla/5.0 (Windows NT 10.0; Win64; x64; rv:107.0) Gecko/20100101 Firefox/107.0","","Firefox","107.0","Windows","10.0","575","s","","guitar.jpg","2","Filler","true",""
"","","","","","fixation","10420","html-keyboard-response","171","259071","0.0-6.0-0.34","72","2","2022-11-17 12:25:01","fd252370c17a9971d68c1d4354a03c2e","","Mozilla/5.0 (Windows NT 10.0; Win64; x64; rv:107.0) Gecko/20100101 Firefox/107.0","","Firefox","107.0","Windows","10.0","null","null","","<p style=""font-size: 48px;"">+</p>","2","Light_Matched","",""
"","","","","","sentence","10420","html-keyboard-response","172","260725","0.0-6.0-1.34","72","2","2022-11-17 12:25:01","fd252370c17a9971d68c1d4354a03c2e","","Mozilla/5.0 (Windows NT 10.0; Win64; x64; rv:107.0) Gecko/20100101 Firefox/107.0","","Firefox","107.0","Windows","10.0","1647"," ","","A balloon dropped and touched a strawberry","2","Light_Matched","",""
"","","","","","fixation","10420","html-keyboard-response","173","261247","0.0-6.0-2.34","72","2","2022-11-17 12:25:01","fd252370c17a9971d68c1d4354a03c2e","","Mozilla/5.0 (Windows NT 10.0; Win64; x64; rv:107.0) Gecko/20100101 Firefox/107.0","","Firefox","107.0","Windows","10.0","null","null","","<p style=""font-size: 48px;"">+</p>","2","Light_Matched","",""
"","","","","","picture","10420","image-keyboard-response","174","261925","0.0-6.0-3.34","72","2","2022-11-17 12:25:01","fd252370c17a9971d68c1d4354a03c2e","","Mozilla/5.0 (Windows NT 10.0; Win64; x64; rv:107.0) Gecko/20100101 Firefox/107.0","","Firefox","107.0","Windows","10.0","669","s","","strawberryS.jpg","2","Light_Matched","true",""
"","","","","","fixation","10420","html-keyboard-response","175","262947","0.0-6.0-0.35","72","2","2022-11-17 12:25:01","fd252370c17a9971d68c1d4354a03c2e","","Mozilla/5.0 (Windows NT 10.0; Win64; x64; rv:107.0) Gecko/20100101 Firefox/107.0","","Firefox","107.0","Windows","10.0","null","null","","<p style=""font-size: 48px;"">+</p>","2","Filler","",""
"","","","","","sentence","10420","html-keyboard-response","176","265248","0.0-6.0-1.35","72","2","2022-11-17 12:25:01","fd252370c17a9971d68c1d4354a03c2e","","Mozilla/5.0 (Windows NT 10.0; Win64; x64; rv:107.0) Gecko/20100101 Firefox/107.0","","Firefox","107.0","Windows","10.0","2295"," ","","A man is shaving his beard","2","Filler","",""
"","","","","","fixation","10420","html-keyboard-response","177","265762","0.0-6.0-2.35","72","2","2022-11-17 12:25:01","fd252370c17a9971d68c1d4354a03c2e","","Mozilla/5.0 (Windows NT 10.0; Win64; x64; rv:107.0) Gecko/20100101 Firefox/107.0","","Firefox","107.0","Windows","10.0","null","null","","<p style=""font-size: 48px;"">+</p>","2","Filler","",""
"","","","","","picture","10420","image-keyboard-response","178","266317","0.0-6.0-3.35","72","2","2022-11-17 12:25:01","fd252370c17a9971d68c1d4354a03c2e","","Mozilla/5.0 (Windows NT 10.0; Win64; x64; rv:107.0) Gecko/20100101 Firefox/107.0","","Firefox","107.0","Windows","10.0","535","n","","clock.jpg","2","Filler","true",""
"","","","","","fixation","10420","html-keyboard-response","179","267329","0.0-6.0-0.36","72","2","2022-11-17 12:25:01","fd252370c17a9971d68c1d4354a03c2e","","Mozilla/5.0 (Windows NT 10.0; Win64; x64; rv:107.0) Gecko/20100101 Firefox/107.0","","Firefox","107.0","Windows","10.0","null","null","","<p style=""font-size: 48px;"">+</p>","2","Filler","",""
"","","","","","sentence","10420","html-keyboard-response","180","268759","0.0-6.0-1.36","72","2","2022-11-17 12:25:01","fd252370c17a9971d68c1d4354a03c2e","","Mozilla/5.0 (Windows NT 10.0; Win64; x64; rv:107.0) Gecko/20100101 Firefox/107.0","","Firefox","107.0","Windows","10.0","1421"," ","","An owl is sitting on the branch","2","Filler","",""
"","","","","","fixation","10420","html-keyboard-response","181","269267","0.0-6.0-2.36","72","2","2022-11-17 12:25:01","fd252370c17a9971d68c1d4354a03c2e","","Mozilla/5.0 (Windows NT 10.0; Win64; x64; rv:107.0) Gecko/20100101 Firefox/107.0","","Firefox","107.0","Windows","10.0","null","null","","<p style=""font-size: 48px;"">+</p>","2","Filler","",""
"","","","","","picture","10420","image-keyboard-response","182","270393","0.0-6.0-3.36","72","2","2022-11-17 12:25:01","fd252370c17a9971d68c1d4354a03c2e","","Mozilla/5.0 (Windows NT 10.0; Win64; x64; rv:107.0) Gecko/20100101 Firefox/107.0","","Firefox","107.0","Windows","10.0","1113","n","","rubberduck.jpg","2","Filler","true",""
"","","","","","fixation","10420","html-keyboard-response","183","271417","0.0-6.0-0.37","72","2","2022-11-17 12:25:01","fd252370c17a9971d68c1d4354a03c2e","","Mozilla/5.0 (Windows NT 10.0; Win64; x64; rv:107.0) Gecko/20100101 Firefox/107.0","","Firefox","107.0","Windows","10.0","null","null","","<p style=""font-size: 48px;"">+</p>","2","Filler","",""
"","","","","","sentence","10420","html-keyboard-response","184","272719","0.0-6.0-1.37","72","2","2022-11-17 12:25:01","fd252370c17a9971d68c1d4354a03c2e","","Mozilla/5.0 (Windows NT 10.0; Win64; x64; rv:107.0) Gecko/20100101 Firefox/107.0","","Firefox","107.0","Windows","10.0","1292"," ","","A parrot is eating an apple","2","Filler","",""
"","","","","","fixation","10420","html-keyboard-response","185","273239","0.0-6.0-2.37","72","2","2022-11-17 12:25:01","fd252370c17a9971d68c1d4354a03c2e","","Mozilla/5.0 (Windows NT 10.0; Win64; x64; rv:107.0) Gecko/20100101 Firefox/107.0","","Firefox","107.0","Windows","10.0","null","null","","<p style=""font-size: 48px;"">+</p>","2","Filler","",""
"","","","","","picture","10420","image-keyboard-response","186","273859","0.0-6.0-3.37","72","2","2022-11-17 12:25:01","fd252370c17a9971d68c1d4354a03c2e","","Mozilla/5.0 (Windows NT 10.0; Win64; x64; rv:107.0) Gecko/20100101 Firefox/107.0","","Firefox","107.0","Windows","10.0","607","n","","shirt.jpg","2","Filler","true",""
"","","","","","fixation","10420","html-keyboard-response","187","274875","0.0-6.0-0.38","72","2","2022-11-17 12:25:01","fd252370c17a9971d68c1d4354a03c2e","","Mozilla/5.0 (Windows NT 10.0; Win64; x64; rv:107.0) Gecko/20100101 Firefox/107.0","","Firefox","107.0","Windows","10.0","null","null","","<p style=""font-size: 48px;"">+</p>","2","Heavy_Contradictory","",""
"","","","","","sentence","10420","html-keyboard-response","188","276726","0.0-6.0-1.38","72","2","2022-11-17 12:25:01","fd252370c17a9971d68c1d4354a03c2e","","Mozilla/5.0 (Windows NT 10.0; Win64; x64; rv:107.0) Gecko/20100101 Firefox/107.0","","Firefox","107.0","Windows","10.0","1840"," ","","A bowling ball dropped and touched a rice cake","2","Heavy_Contradictory","",""
"","","","","","fixation","10420","html-keyboard-response","189","277243","0.0-6.0-2.38","72","2","2022-11-17 12:25:01","fd252370c17a9971d68c1d4354a03c2e","","Mozilla/5.0 (Windows NT 10.0; Win64; x64; rv:107.0) Gecko/20100101 Firefox/107.0","","Firefox","107.0","Windows","10.0","null","null","","<p style=""font-size: 48px;"">+</p>","2","Heavy_Contradictory","",""
"","","","","","picture","10420","image-keyboard-response","190","277876","0.0-6.0-3.38","72","2","2022-11-17 12:25:01","fd252370c17a9971d68c1d4354a03c2e","","Mozilla/5.0 (Windows NT 10.0; Win64; x64; rv:107.0) Gecko/20100101 Firefox/107.0","","Firefox","107.0","Windows","10.0","625","s","","tortitaS.jpg","2","Heavy_Contradictory","true",""
"","","","","","fixation","10420","html-keyboard-response","191","278896","0.0-6.0-0.39","72","2","2022-11-17 12:25:01","fd252370c17a9971d68c1d4354a03c2e","","Mozilla/5.0 (Windows NT 10.0; Win64; x64; rv:107.0) Gecko/20100101 Firefox/107.0","","Firefox","107.0","Windows","10.0","null","null","","<p style=""font-size: 48px;"">+</p>","2","Filler","",""
"","","","","","sentence","10420","html-keyboard-response","192","280182","0.0-6.0-1.39","72","2","2022-11-17 12:25:01","fd252370c17a9971d68c1d4354a03c2e","","Mozilla/5.0 (Windows NT 10.0; Win64; x64; rv:107.0) Gecko/20100101 Firefox/107.0","","Firefox","107.0","Windows","10.0","1280"," ","","A nurse is taking a syringe","2","Filler","",""
"","","","","","fixation","10420","html-keyboard-response","193","280699","0.0-6.0-2.39","72","2","2022-11-17 12:25:01","fd252370c17a9971d68c1d4354a03c2e","","Mozilla/5.0 (Windows NT 10.0; Win64; x64; rv:107.0) Gecko/20100101 Firefox/107.0","","Firefox","107.0","Windows","10.0","null","null","","<p style=""font-size: 48px;"">+</p>","2","Filler","",""
"","","","","","picture","10420","image-keyboard-response","194","281358","0.0-6.0-3.39","72","2","2022-11-17 12:25:01","fd252370c17a9971d68c1d4354a03c2e","","Mozilla/5.0 (Windows NT 10.0; Win64; x64; rv:107.0) Gecko/20100101 Firefox/107.0","","Firefox","107.0","Windows","10.0","642","n","","headphones.jpg","2","Filler","true",""
"","","","","","fixation","10420","html-keyboard-response","195","282368","0.0-6.0-0.40","72","2","2022-11-17 12:25:01","fd252370c17a9971d68c1d4354a03c2e","","Mozilla/5.0 (Windows NT 10.0; Win64; x64; rv:107.0) Gecko/20100101 Firefox/107.0","","Firefox","107.0","Windows","10.0","null","null","","<p style=""font-size: 48px;"">+</p>","2","Filler","",""
"","","","","","sentence","10420","html-keyboard-response","196","283842","0.0-6.0-1.40","72","2","2022-11-17 12:25:01","fd252370c17a9971d68c1d4354a03c2e","","Mozilla/5.0 (Windows NT 10.0; Win64; x64; rv:107.0) Gecko/20100101 Firefox/107.0","","Firefox","107.0","Windows","10.0","1466"," ","","A zebra is playing with a horse","2","Filler","",""
"","","","","","fixation","10420","html-keyboard-response","197","284355","0.0-6.0-2.40","72","2","2022-11-17 12:25:01","fd252370c17a9971d68c1d4354a03c2e","","Mozilla/5.0 (Windows NT 10.0; Win64; x64; rv:107.0) Gecko/20100101 Firefox/107.0","","Firefox","107.0","Windows","10.0","null","null","","<p style=""font-size: 48px;"">+</p>","2","Filler","",""
"","","","","","picture","10420","image-keyboard-response","198","285158","0.0-6.0-3.40","72","2","2022-11-17 12:25:01","fd252370c17a9971d68c1d4354a03c2e","","Mozilla/5.0 (Windows NT 10.0; Win64; x64; rv:107.0) Gecko/20100101 Firefox/107.0","","Firefox","107.0","Windows","10.0","791","n","","watch.jpg","2","Filler","true",""
"","","","","","fixation","10420","html-keyboard-response","199","286181","0.0-6.0-0.41","72","2","2022-11-17 12:25:01","fd252370c17a9971d68c1d4354a03c2e","","Mozilla/5.0 (Windows NT 10.0; Win64; x64; rv:107.0) Gecko/20100101 Firefox/107.0","","Firefox","107.0","Windows","10.0","null","null","","<p style=""font-size: 48px;"">+</p>","2","Filler","",""
"","","","","","sentence","10420","html-keyboard-response","200","288725","0.0-6.0-1.41","72","2","2022-11-17 12:25:01","fd252370c17a9971d68c1d4354a03c2e","","Mozilla/5.0 (Windows NT 10.0; Win64; x64; rv:107.0) Gecko/20100101 Firefox/107.0","","Firefox","107.0","Windows","10.0","2533"," ","","A towel was placed on the TV","2","Filler","",""
"","","","","","fixation","10420","html-keyboard-response","201","289250","0.0-6.0-2.41","72","2","2022-11-17 12:25:01","fd252370c17a9971d68c1d4354a03c2e","","Mozilla/5.0 (Windows NT 10.0; Win64; x64; rv:107.0) Gecko/20100101 Firefox/107.0","","Firefox","107.0","Windows","10.0","null","null","","<p style=""font-size: 48px;"">+</p>","2","Filler","",""
"","","","","","picture","10420","image-keyboard-response","202","289994","0.0-6.0-3.41","72","2","2022-11-17 12:25:01","fd252370c17a9971d68c1d4354a03c2e","","Mozilla/5.0 (Windows NT 10.0; Win64; x64; rv:107.0) Gecko/20100101 Firefox/107.0","","Firefox","107.0","Windows","10.0","727","n","","pencil.jpg","2","Filler","true",""
"","","","","","fixation","10420","html-keyboard-response","203","291001","0.0-6.0-0.42","72","2","2022-11-17 12:25:01","fd252370c17a9971d68c1d4354a03c2e","","Mozilla/5.0 (Windows NT 10.0; Win64; x64; rv:107.0) Gecko/20100101 Firefox/107.0","","Firefox","107.0","Windows","10.0","null","null","","<p style=""font-size: 48px;"">+</p>","2","Filler","",""
"","","","","","sentence","10420","html-keyboard-response","204","292239","0.0-6.0-1.42","72","2","2022-11-17 12:25:01","fd252370c17a9971d68c1d4354a03c2e","","Mozilla/5.0 (Windows NT 10.0; Win64; x64; rv:107.0) Gecko/20100101 Firefox/107.0","","Firefox","107.0","Windows","10.0","1226"," ","","A postman is driving a car","2","Filler","",""
"","","","","","fixation","10420","html-keyboard-response","205","292750","0.0-6.0-2.42","72","2","2022-11-17 12:25:01","fd252370c17a9971d68c1d4354a03c2e","","Mozilla/5.0 (Windows NT 10.0; Win64; x64; rv:107.0) Gecko/20100101 Firefox/107.0","","Firefox","107.0","Windows","10.0","null","null","","<p style=""font-size: 48px;"">+</p>","2","Filler","",""
"","","","","","picture","10420","image-keyboard-response","206","293397","0.0-6.0-3.42","72","2","2022-11-17 12:25:01","fd252370c17a9971d68c1d4354a03c2e","","Mozilla/5.0 (Windows NT 10.0; Win64; x64; rv:107.0) Gecko/20100101 Firefox/107.0","","Firefox","107.0","Windows","10.0","631","s","","car.jpg","2","Filler","true",""
"","","","","","fixation","10420","html-keyboard-response","207","294418","0.0-6.0-0.43","72","2","2022-11-17 12:25:01","fd252370c17a9971d68c1d4354a03c2e","","Mozilla/5.0 (Windows NT 10.0; Win64; x64; rv:107.0) Gecko/20100101 Firefox/107.0","","Firefox","107.0","Windows","10.0","null","null","","<p style=""font-size: 48px;"">+</p>","2","Heavy_Matched","",""
"","","","","","sentence","10420","html-keyboard-response","208","296082","0.0-6.0-1.43","72","2","2022-11-17 12:25:01","fd252370c17a9971d68c1d4354a03c2e","","Mozilla/5.0 (Windows NT 10.0; Win64; x64; rv:107.0) Gecko/20100101 Firefox/107.0","","Firefox","107.0","Windows","10.0","1658"," ","","A bowling ball dropped and smashed a banana","2","Heavy_Matched","",""
"","","","","","fixation","10420","html-keyboard-response","209","296595","0.0-6.0-2.43","72","2","2022-11-17 12:25:01","fd252370c17a9971d68c1d4354a03c2e","","Mozilla/5.0 (Windows NT 10.0; Win64; x64; rv:107.0) Gecko/20100101 Firefox/107.0","","Firefox","107.0","Windows","10.0","null","null","","<p style=""font-size: 48px;"">+</p>","2","Heavy_Matched","",""
"","","","","","picture","10420","image-keyboard-response","210","297173","0.0-6.0-3.43","72","2","2022-11-17 12:25:01","fd252370c17a9971d68c1d4354a03c2e","","Mozilla/5.0 (Windows NT 10.0; Win64; x64; rv:107.0) Gecko/20100101 Firefox/107.0","","Firefox","107.0","Windows","10.0","569","s","","bananaS.jpg","2","Heavy_Matched","true",""
"","","","","","fixation","10420","html-keyboard-response","211","298186","0.0-6.0-0.44","72","2","2022-11-17 12:25:01","fd252370c17a9971d68c1d4354a03c2e","","Mozilla/5.0 (Windows NT 10.0; Win64; x64; rv:107.0) Gecko/20100101 Firefox/107.0","","Firefox","107.0","Windows","10.0","null","null","","<p style=""font-size: 48px;"">+</p>","2","Filler","",""
"","","","","","sentence","10420","html-keyboard-response","212","299983","0.0-6.0-1.44","72","2","2022-11-17 12:25:01","fd252370c17a9971d68c1d4354a03c2e","","Mozilla/5.0 (Windows NT 10.0; Win64; x64; rv:107.0) Gecko/20100101 Firefox/107.0","","Firefox","107.0","Windows","10.0","1786"," ","","A ring was placed on the newspaper","2","Filler","",""
"","","","","","fixation","10420","html-keyboard-response","213","300499","0.0-6.0-2.44","72","2","2022-11-17 12:25:01","fd252370c17a9971d68c1d4354a03c2e","","Mozilla/5.0 (Windows NT 10.0; Win64; x64; rv:107.0) Gecko/20100101 Firefox/107.0","","Firefox","107.0","Windows","10.0","null","null","","<p style=""font-size: 48px;"">+</p>","2","Filler","",""
"","","","","","picture","10420","image-keyboard-response","214","301217","0.0-6.0-3.44","72","2","2022-11-17 12:25:01","fd252370c17a9971d68c1d4354a03c2e","","Mozilla/5.0 (Windows NT 10.0; Win64; x64; rv:107.0) Gecko/20100101 Firefox/107.0","","Firefox","107.0","Windows","10.0","702","n","","cat.jpg","2","Filler","true",""
"","","","","","fixation","10420","html-keyboard-response","215","302229","0.0-6.0-0.45","72","2","2022-11-17 12:25:01","fd252370c17a9971d68c1d4354a03c2e","","Mozilla/5.0 (Windows NT 10.0; Win64; x64; rv:107.0) Gecko/20100101 Firefox/107.0","","Firefox","107.0","Windows","10.0","null","null","","<p style=""font-size: 48px;"">+</p>","2","Filler","",""
"","","","","","sentence","10420","html-keyboard-response","216","303677","0.0-6.0-1.45","72","2","2022-11-17 12:25:01","fd252370c17a9971d68c1d4354a03c2e","","Mozilla/5.0 (Windows NT 10.0; Win64; x64; rv:107.0) Gecko/20100101 Firefox/107.0","","Firefox","107.0","Windows","10.0","1439"," ","","A keyboard was placed on the bed","2","Filler","",""
"","","","","","fixation","10420","html-keyboard-response","217","304201","0.0-6.0-2.45","72","2","2022-11-17 12:25:01","fd252370c17a9971d68c1d4354a03c2e","","Mozilla/5.0 (Windows NT 10.0; Win64; x64; rv:107.0) Gecko/20100101 Firefox/107.0","","Firefox","107.0","Windows","10.0","null","null","","<p style=""font-size: 48px;"">+</p>","2","Filler","",""
"","","","","","picture","10420","image-keyboard-response","218","305218","0.0-6.0-3.45","72","2","2022-11-17 12:25:01","fd252370c17a9971d68c1d4354a03c2e","","Mozilla/5.0 (Windows NT 10.0; Win64; x64; rv:107.0) Gecko/20100101 Firefox/107.0","","Firefox","107.0","Windows","10.0","1007","n","","bottlecap.jpg","2","Filler","true",""
"","","","","","fixation","10420","html-keyboard-response","219","306229","0.0-6.0-0.46","72","2","2022-11-17 12:25:01","fd252370c17a9971d68c1d4354a03c2e","","Mozilla/5.0 (Windows NT 10.0; Win64; x64; rv:107.0) Gecko/20100101 Firefox/107.0","","Firefox","107.0","Windows","10.0","null","null","","<p style=""font-size: 48px;"">+</p>","2","Filler","",""
"","","","","","sentence","10420","html-keyboard-response","220","307728","0.0-6.0-1.46","72","2","2022-11-17 12:25:01","fd252370c17a9971d68c1d4354a03c2e","","Mozilla/5.0 (Windows NT 10.0; Win64; x64; rv:107.0) Gecko/20100101 Firefox/107.0","","Firefox","107.0","Windows","10.0","1490"," ","","A woman is taking money out of a wallet","2","Filler","",""
"","","","","","fixation","10420","html-keyboard-response","221","308258","0.0-6.0-2.46","72","2","2022-11-17 12:25:01","fd252370c17a9971d68c1d4354a03c2e","","Mozilla/5.0 (Windows NT 10.0; Win64; x64; rv:107.0) Gecko/20100101 Firefox/107.0","","Firefox","107.0","Windows","10.0","null","null","","<p style=""font-size: 48px;"">+</p>","2","Filler","",""
"","","","","","picture","10420","image-keyboard-response","222","308873","0.0-6.0-3.46","72","2","2022-11-17 12:25:01","fd252370c17a9971d68c1d4354a03c2e","","Mozilla/5.0 (Windows NT 10.0; Win64; x64; rv:107.0) Gecko/20100101 Firefox/107.0","","Firefox","107.0","Windows","10.0","586","n","","coconut.jpg","2","Filler","true",""
"","","","","","fixation","10420","html-keyboard-response","223","309890","0.0-6.0-0.47","72","2","2022-11-17 12:25:01","fd252370c17a9971d68c1d4354a03c2e","","Mozilla/5.0 (Windows NT 10.0; Win64; x64; rv:107.0) Gecko/20100101 Firefox/107.0","","Firefox","107.0","Windows","10.0","null","null","","<p style=""font-size: 48px;"">+</p>","2","Filler","",""
"","","","","","sentence","10420","html-keyboard-response","224","311279","0.0-6.0-1.47","72","2","2022-11-17 12:25:01","fd252370c17a9971d68c1d4354a03c2e","","Mozilla/5.0 (Windows NT 10.0; Win64; x64; rv:107.0) Gecko/20100101 Firefox/107.0","","Firefox","107.0","Windows","10.0","1376"," ","","A dentist is drinking a can of cola","2","Filler","",""
"","","","","","fixation","10420","html-keyboard-response","225","311793","0.0-6.0-2.47","72","2","2022-11-17 12:25:01","fd252370c17a9971d68c1d4354a03c2e","","Mozilla/5.0 (Windows NT 10.0; Win64; x64; rv:107.0) Gecko/20100101 Firefox/107.0","","Firefox","107.0","Windows","10.0","null","null","","<p style=""font-size: 48px;"">+</p>","2","Filler","",""
"","","","","","picture","10420","image-keyboard-response","226","312438","0.0-6.0-3.47","72","2","2022-11-17 12:25:01","fd252370c17a9971d68c1d4354a03c2e","","Mozilla/5.0 (Windows NT 10.0; Win64; x64; rv:107.0) Gecko/20100101 Firefox/107.0","","Firefox","107.0","Windows","10.0","635","n","","doll.jpg","2","Filler","true",""
"","","","","","fixation","10420","html-keyboard-response","227","313453","0.0-6.0-0.48","72","2","2022-11-17 12:25:01","fd252370c17a9971d68c1d4354a03c2e","","Mozilla/5.0 (Windows NT 10.0; Win64; x64; rv:107.0) Gecko/20100101 Firefox/107.0","","Firefox","107.0","Windows","10.0","null","null","","<p style=""font-size: 48px;"">+</p>","2","Filler","",""
"","","","","","sentence","10420","html-keyboard-response","228","314733","0.0-6.0-1.48","72","2","2022-11-17 12:25:01","fd252370c17a9971d68c1d4354a03c2e","","Mozilla/5.0 (Windows NT 10.0; Win64; x64; rv:107.0) Gecko/20100101 Firefox/107.0","","Firefox","107.0","Windows","10.0","1272"," ","","An elephant is eating a watermelon","2","Filler","",""
"","","","","","fixation","10420","html-keyboard-response","229","315247","0.0-6.0-2.48","72","2","2022-11-17 12:25:01","fd252370c17a9971d68c1d4354a03c2e","","Mozilla/5.0 (Windows NT 10.0; Win64; x64; rv:107.0) Gecko/20100101 Firefox/107.0","","Firefox","107.0","Windows","10.0","null","null","","<p style=""font-size: 48px;"">+</p>","2","Filler","",""
"","","","","","picture","10420","image-keyboard-response","230","315719","0.0-6.0-3.48","72","2","2022-11-17 12:25:01","fd252370c17a9971d68c1d4354a03c2e","","Mozilla/5.0 (Windows NT 10.0; Win64; x64; rv:107.0) Gecko/20100101 Firefox/107.0","","Firefox","107.0","Windows","10.0","457","s","","watermelon.jpg","2","Filler","true",""
"","","","","","fixation","10420","html-keyboard-response","231","316738","0.0-6.0-0.49","72","2","2022-11-17 12:25:01","fd252370c17a9971d68c1d4354a03c2e","","Mozilla/5.0 (Windows NT 10.0; Win64; x64; rv:107.0) Gecko/20100101 Firefox/107.0","","Firefox","107.0","Windows","10.0","null","null","","<p style=""font-size: 48px;"">+</p>","2","Light_Contradictory","",""
"","","","","","sentence","10420","html-keyboard-response","232","318318","0.0-6.0-1.49","72","2","2022-11-17 12:25:01","fd252370c17a9971d68c1d4354a03c2e","","Mozilla/5.0 (Windows NT 10.0; Win64; x64; rv:107.0) Gecko/20100101 Firefox/107.0","","Firefox","107.0","Windows","10.0","1575"," ","","A balloon dropped and smashed an egg","2","Light_Contradictory","",""
"","","","","","fixation","10420","html-keyboard-response","233","318829","0.0-6.0-2.49","72","2","2022-11-17 12:25:01","fd252370c17a9971d68c1d4354a03c2e","","Mozilla/5.0 (Windows NT 10.0; Win64; x64; rv:107.0) Gecko/20100101 Firefox/107.0","","Firefox","107.0","Windows","10.0","null","null","","<p style=""font-size: 48px;"">+</p>","2","Light_Contradictory","",""
"","","","","","picture","10420","image-keyboard-response","234","319557","0.0-6.0-3.49","72","2","2022-11-17 12:25:01","fd252370c17a9971d68c1d4354a03c2e","","Mozilla/5.0 (Windows NT 10.0; Win64; x64; rv:107.0) Gecko/20100101 Firefox/107.0","","Firefox","107.0","Windows","10.0","710","s","","eggS.jpg","2","Light_Contradictory","true",""
"","","","","","fixation","10420","html-keyboard-response","235","320573","0.0-6.0-0.50","72","2","2022-11-17 12:25:01","fd252370c17a9971d68c1d4354a03c2e","","Mozilla/5.0 (Windows NT 10.0; Win64; x64; rv:107.0) Gecko/20100101 Firefox/107.0","","Firefox","107.0","Windows","10.0","null","null","","<p style=""font-size: 48px;"">+</p>","2","Filler","",""
"","","","","","sentence","10420","html-keyboard-response","236","322024","0.0-6.0-1.50","72","2","2022-11-17 12:25:01","fd252370c17a9971d68c1d4354a03c2e","","Mozilla/5.0 (Windows NT 10.0; Win64; x64; rv:107.0) Gecko/20100101 Firefox/107.0","","Firefox","107.0","Windows","10.0","1440"," ","","A man is playing with a cat","2","Filler","",""
"","","","","","fixation","10420","html-keyboard-response","237","322550","0.0-6.0-2.50","72","2","2022-11-17 12:25:01","fd252370c17a9971d68c1d4354a03c2e","","Mozilla/5.0 (Windows NT 10.0; Win64; x64; rv:107.0) Gecko/20100101 Firefox/107.0","","Firefox","107.0","Windows","10.0","null","null","","<p style=""font-size: 48px;"">+</p>","2","Filler","",""
"","","","","","picture","10420","image-keyboard-response","238","323264","0.0-6.0-3.50","72","2","2022-11-17 12:25:01","fd252370c17a9971d68c1d4354a03c2e","","Mozilla/5.0 (Windows NT 10.0; Win64; x64; rv:107.0) Gecko/20100101 Firefox/107.0","","Firefox","107.0","Windows","10.0","697","n","","ceramicplate.jpg","2","Filler","true",""
"","","","","","fixation","10420","html-keyboard-response","239","324276","0.0-6.0-0.51","72","2","2022-11-17 12:25:01","fd252370c17a9971d68c1d4354a03c2e","","Mozilla/5.0 (Windows NT 10.0; Win64; x64; rv:107.0) Gecko/20100101 Firefox/107.0","","Firefox","107.0","Windows","10.0","null","null","","<p style=""font-size: 48px;"">+</p>","2","Light_Matched","",""
"","","","","","sentence","10420","html-keyboard-response","240","325835","0.0-6.0-1.51","72","2","2022-11-17 12:25:01","fd252370c17a9971d68c1d4354a03c2e","","Mozilla/5.0 (Windows NT 10.0; Win64; x64; rv:107.0) Gecko/20100101 Firefox/107.0","","Firefox","107.0","Windows","10.0","1551"," ","","A balloon dropped and touched a tile","2","Light_Matched","",""
"","","","","","fixation","10420","html-keyboard-response","241","326354","0.0-6.0-2.51","72","2","2022-11-17 12:25:01","fd252370c17a9971d68c1d4354a03c2e","","Mozilla/5.0 (Windows NT 10.0; Win64; x64; rv:107.0) Gecko/20100101 Firefox/107.0","","Firefox","107.0","Windows","10.0","null","null","","<p style=""font-size: 48px;"">+</p>","2","Light_Matched","",""
"","","","","","picture","10420","image-keyboard-response","242","327097","0.0-6.0-3.51","72","2","2022-11-17 12:25:01","fd252370c17a9971d68c1d4354a03c2e","","Mozilla/5.0 (Windows NT 10.0; Win64; x64; rv:107.0) Gecko/20100101 Firefox/107.0","","Firefox","107.0","Windows","10.0","727","s","","tileS.jpg","2","Light_Matched","true",""
"","","","","","fixation","10420","html-keyboard-response","243","328111","0.0-6.0-0.52","72","2","2022-11-17 12:25:01","fd252370c17a9971d68c1d4354a03c2e","","Mozilla/5.0 (Windows NT 10.0; Win64; x64; rv:107.0) Gecko/20100101 Firefox/107.0","","Firefox","107.0","Windows","10.0","null","null","","<p style=""font-size: 48px;"">+</p>","2","Filler","",""
"","","","","","sentence","10420","html-keyboard-response","244","329213","0.0-6.0-1.52","72","2","2022-11-17 12:25:01","fd252370c17a9971d68c1d4354a03c2e","","Mozilla/5.0 (Windows NT 10.0; Win64; x64; rv:107.0) Gecko/20100101 Firefox/107.0","","Firefox","107.0","Windows","10.0","1094"," ","","A donkey is drinking water.","2","Filler","",""
"","","","","","fixation","10420","html-keyboard-response","245","329728","0.0-6.0-2.52","72","2","2022-11-17 12:25:01","fd252370c17a9971d68c1d4354a03c2e","","Mozilla/5.0 (Windows NT 10.0; Win64; x64; rv:107.0) Gecko/20100101 Firefox/107.0","","Firefox","107.0","Windows","10.0","null","null","","<p style=""font-size: 48px;"">+</p>","2","Filler","",""
"","","","","","picture","10420","image-keyboard-response","246","330388","0.0-6.0-3.52","72","2","2022-11-17 12:25:01","fd252370c17a9971d68c1d4354a03c2e","","Mozilla/5.0 (Windows NT 10.0; Win64; x64; rv:107.0) Gecko/20100101 Firefox/107.0","","Firefox","107.0","Windows","10.0","647","n","","couch.jpg","2","Filler","true",""
"","","","","","fixation","10420","html-keyboard-response","247","331407","0.0-6.0-0.53","72","2","2022-11-17 12:25:01","fd252370c17a9971d68c1d4354a03c2e","","Mozilla/5.0 (Windows NT 10.0; Win64; x64; rv:107.0) Gecko/20100101 Firefox/107.0","","Firefox","107.0","Windows","10.0","null","null","","<p style=""font-size: 48px;"">+</p>","2","Light_Contradictory","",""
"","","","","","sentence","10420","html-keyboard-response","248","332759","0.0-6.0-1.53","72","2","2022-11-17 12:25:01","fd252370c17a9971d68c1d4354a03c2e","","Mozilla/5.0 (Windows NT 10.0; Win64; x64; rv:107.0) Gecko/20100101 Firefox/107.0","","Firefox","107.0","Windows","10.0","1341"," ","","A balloon dropped and smashed a TV","2","Light_Contradictory","",""
"","","","","","fixation","10420","html-keyboard-response","249","333277","0.0-6.0-2.53","72","2","2022-11-17 12:25:01","fd252370c17a9971d68c1d4354a03c2e","","Mozilla/5.0 (Windows NT 10.0; Win64; x64; rv:107.0) Gecko/20100101 Firefox/107.0","","Firefox","107.0","Windows","10.0","null","null","","<p style=""font-size: 48px;"">+</p>","2","Light_Contradictory","",""
"","","","","","picture","10420","image-keyboard-response","250","334274","0.0-6.0-3.53","72","2","2022-11-17 12:25:01","fd252370c17a9971d68c1d4354a03c2e","","Mozilla/5.0 (Windows NT 10.0; Win64; x64; rv:107.0) Gecko/20100101 Firefox/107.0","","Firefox","107.0","Windows","10.0","988","s","","tvS.jpg","2","Light_Contradictory","true",""
"","","","","","fixation","10420","html-keyboard-response","251","335294","0.0-6.0-0.54","72","2","2022-11-17 12:25:01","fd252370c17a9971d68c1d4354a03c2e","","Mozilla/5.0 (Windows NT 10.0; Win64; x64; rv:107.0) Gecko/20100101 Firefox/107.0","","Firefox","107.0","Windows","10.0","null","null","","<p style=""font-size: 48px;"">+</p>","2","Filler","",""
"","","","","","sentence","10420","html-keyboard-response","252","336888","0.0-6.0-1.54","72","2","2022-11-17 12:25:01","fd252370c17a9971d68c1d4354a03c2e","","Mozilla/5.0 (Windows NT 10.0; Win64; x64; rv:107.0) Gecko/20100101 Firefox/107.0","","Firefox","107.0","Windows","10.0","1586"," ","","A police officer is talking on the phone","2","Filler","",""
"","","","","","fixation","10420","html-keyboard-response","253","337401","0.0-6.0-2.54","72","2","2022-11-17 12:25:01","fd252370c17a9971d68c1d4354a03c2e","","Mozilla/5.0 (Windows NT 10.0; Win64; x64; rv:107.0) Gecko/20100101 Firefox/107.0","","Firefox","107.0","Windows","10.0","null","null","","<p style=""font-size: 48px;"">+</p>","2","Filler","",""
"","","","","","picture","10420","image-keyboard-response","254","338137","0.0-6.0-3.54","72","2","2022-11-17 12:25:01","fd252370c17a9971d68c1d4354a03c2e","","Mozilla/5.0 (Windows NT 10.0; Win64; x64; rv:107.0) Gecko/20100101 Firefox/107.0","","Firefox","107.0","Windows","10.0","728","n","","tissuebox.jpg","2","Filler","true",""
"","","","","","fixation","10420","html-keyboard-response","255","339150","0.0-6.0-0.55","72","2","2022-11-17 12:25:01","fd252370c17a9971d68c1d4354a03c2e","","Mozilla/5.0 (Windows NT 10.0; Win64; x64; rv:107.0) Gecko/20100101 Firefox/107.0","","Firefox","107.0","Windows","10.0","null","null","","<p style=""font-size: 48px;"">+</p>","2","Filler","",""
"","","","","","sentence","10420","html-keyboard-response","256","340242","0.0-6.0-1.55","72","2","2022-11-17 12:25:01","fd252370c17a9971d68c1d4354a03c2e","","Mozilla/5.0 (Windows NT 10.0; Win64; x64; rv:107.0) Gecko/20100101 Firefox/107.0","","Firefox","107.0","Windows","10.0","1085"," ","","A puppy is playing with a ball","2","Filler","",""
"","","","","","fixation","10420","html-keyboard-response","257","340756","0.0-6.0-2.55","72","2","2022-11-17 12:25:01","fd252370c17a9971d68c1d4354a03c2e","","Mozilla/5.0 (Windows NT 10.0; Win64; x64; rv:107.0) Gecko/20100101 Firefox/107.0","","Firefox","107.0","Windows","10.0","null","null","","<p style=""font-size: 48px;"">+</p>","2","Filler","",""
"","","","","","picture","10420","image-keyboard-response","258","341398","0.0-6.0-3.55","72","2","2022-11-17 12:25:01","fd252370c17a9971d68c1d4354a03c2e","","Mozilla/5.0 (Windows NT 10.0; Win64; x64; rv:107.0) Gecko/20100101 Firefox/107.0","","Firefox","107.0","Windows","10.0","629","s","","tennisball.jpg","2","Filler","true",""
"","","","","","fixation","10420","html-keyboard-response","259","342421","0.0-6.0-0.56","72","2","2022-11-17 12:25:01","fd252370c17a9971d68c1d4354a03c2e","","Mozilla/5.0 (Windows NT 10.0; Win64; x64; rv:107.0) Gecko/20100101 Firefox/107.0","","Firefox","107.0","Windows","10.0","null","null","","<p style=""font-size: 48px;"">+</p>","2","Light_Matched","",""
"","","","","","sentence","10420","html-keyboard-response","260","344028","0.0-6.0-1.56","72","2","2022-11-17 12:25:01","fd252370c17a9971d68c1d4354a03c2e","","Mozilla/5.0 (Windows NT 10.0; Win64; x64; rv:107.0) Gecko/20100101 Firefox/107.0","","Firefox","107.0","Windows","10.0","1599"," ","","A balloon dropped and touched a piece of sushi","2","Light_Matched","",""
"","","","","","fixation","10420","html-keyboard-response","261","344551","0.0-6.0-2.56","72","2","2022-11-17 12:25:01","fd252370c17a9971d68c1d4354a03c2e","","Mozilla/5.0 (Windows NT 10.0; Win64; x64; rv:107.0) Gecko/20100101 Firefox/107.0","","Firefox","107.0","Windows","10.0","null","null","","<p style=""font-size: 48px;"">+</p>","2","Light_Matched","",""
"","","","","","picture","10420","image-keyboard-response","262","345048","0.0-6.0-3.56","72","2","2022-11-17 12:25:01","fd252370c17a9971d68c1d4354a03c2e","","Mozilla/5.0 (Windows NT 10.0; Win64; x64; rv:107.0) Gecko/20100101 Firefox/107.0","","Firefox","107.0","Windows","10.0","479","s","","sushiS.jpg","2","Light_Matched","true",""
"","","","","","fixation","10420","html-keyboard-response","263","346076","0.0-6.0-0.57","72","2","2022-11-17 12:25:01","fd252370c17a9971d68c1d4354a03c2e","","Mozilla/5.0 (Windows NT 10.0; Win64; x64; rv:107.0) Gecko/20100101 Firefox/107.0","","Firefox","107.0","Windows","10.0","null","null","","<p style=""font-size: 48px;"">+</p>","2","Filler","",""
"","","","","","sentence","10420","html-keyboard-response","264","347905","0.0-6.0-1.57","72","2","2022-11-17 12:25:01","fd252370c17a9971d68c1d4354a03c2e","","Mozilla/5.0 (Windows NT 10.0; Win64; x64; rv:107.0) Gecko/20100101 Firefox/107.0","","Firefox","107.0","Windows","10.0","1820"," ","","A kitten is playing in the sandbox","2","Filler","",""
"","","","","","fixation","10420","html-keyboard-response","265","348423","0.0-6.0-2.57","72","2","2022-11-17 12:25:01","fd252370c17a9971d68c1d4354a03c2e","","Mozilla/5.0 (Windows NT 10.0; Win64; x64; rv:107.0) Gecko/20100101 Firefox/107.0","","Firefox","107.0","Windows","10.0","null","null","","<p style=""font-size: 48px;"">+</p>","2","Filler","",""
"","","","","","picture","10420","image-keyboard-response","266","349227","0.0-6.0-3.57","72","2","2022-11-17 12:25:01","fd252370c17a9971d68c1d4354a03c2e","","Mozilla/5.0 (Windows NT 10.0; Win64; x64; rv:107.0) Gecko/20100101 Firefox/107.0","","Firefox","107.0","Windows","10.0","785","n","","dustbin.jpg","2","Filler","true",""
"","","","","","fixation","10420","html-keyboard-response","267","350243","0.0-6.0-0.58","72","2","2022-11-17 12:25:01","fd252370c17a9971d68c1d4354a03c2e","","Mozilla/5.0 (Windows NT 10.0; Win64; x64; rv:107.0) Gecko/20100101 Firefox/107.0","","Firefox","107.0","Windows","10.0","null","null","","<p style=""font-size: 48px;"">+</p>","2","Filler","",""
"","","","","","sentence","10420","html-keyboard-response","268","351396","0.0-6.0-1.58","72","2","2022-11-17 12:25:01","fd252370c17a9971d68c1d4354a03c2e","","Mozilla/5.0 (Windows NT 10.0; Win64; x64; rv:107.0) Gecko/20100101 Firefox/107.0","","Firefox","107.0","Windows","10.0","1140"," ","","A president is writing in the notebook","2","Filler","",""
"","","","","","fixation","10420","html-keyboard-response","269","351915","0.0-6.0-2.58","72","2","2022-11-17 12:25:01","fd252370c17a9971d68c1d4354a03c2e","","Mozilla/5.0 (Windows NT 10.0; Win64; x64; rv:107.0) Gecko/20100101 Firefox/107.0","","Firefox","107.0","Windows","10.0","null","null","","<p style=""font-size: 48px;"">+</p>","2","Filler","",""
"","","","","","picture","10420","image-keyboard-response","270","352673","0.0-6.0-3.58","72","2","2022-11-17 12:25:01","fd252370c17a9971d68c1d4354a03c2e","","Mozilla/5.0 (Windows NT 10.0; Win64; x64; rv:107.0) Gecko/20100101 Firefox/107.0","","Firefox","107.0","Windows","10.0","748","n","","can.jpg","2","Filler","true",""
"","","","","","fixation","10420","html-keyboard-response","271","353697","0.0-6.0-0.59","72","2","2022-11-17 12:25:01","fd252370c17a9971d68c1d4354a03c2e","","Mozilla/5.0 (Windows NT 10.0; Win64; x64; rv:107.0) Gecko/20100101 Firefox/107.0","","Firefox","107.0","Windows","10.0","null","null","","<p style=""font-size: 48px;"">+</p>","2","Heavy_Matched","",""
"","","","","","sentence","10420","html-keyboard-response","272","355890","0.0-6.0-1.59","72","2","2022-11-17 12:25:01","fd252370c17a9971d68c1d4354a03c2e","","Mozilla/5.0 (Windows NT 10.0; Win64; x64; rv:107.0) Gecko/20100101 Firefox/107.0","","Firefox","107.0","Windows","10.0","2181"," ","","A bowling ball dropped and smashed an iPAD","2","Heavy_Matched","",""
"","","","","","fixation","10420","html-keyboard-response","273","356405","0.0-6.0-2.59","72","2","2022-11-17 12:25:01","fd252370c17a9971d68c1d4354a03c2e","","Mozilla/5.0 (Windows NT 10.0; Win64; x64; rv:107.0) Gecko/20100101 Firefox/107.0","","Firefox","107.0","Windows","10.0","null","null","","<p style=""font-size: 48px;"">+</p>","2","Heavy_Matched","",""
"","","","","","picture","10420","image-keyboard-response","274","357016","0.0-6.0-3.59","72","2","2022-11-17 12:25:01","fd252370c17a9971d68c1d4354a03c2e","","Mozilla/5.0 (Windows NT 10.0; Win64; x64; rv:107.0) Gecko/20100101 Firefox/107.0","","Firefox","107.0","Windows","10.0","593","s","","iPadS.jpg","2","Heavy_Matched","true",""
"","","","","","fixation","10420","html-keyboard-response","275","358042","0.0-6.0-0.60","72","2","2022-11-17 12:25:01","fd252370c17a9971d68c1d4354a03c2e","","Mozilla/5.0 (Windows NT 10.0; Win64; x64; rv:107.0) Gecko/20100101 Firefox/107.0","","Firefox","107.0","Windows","10.0","null","null","","<p style=""font-size: 48px;"">+</p>","2","Filler","",""
"","","","","","sentence","10420","html-keyboard-response","276","359058","0.0-6.0-1.60","72","2","2022-11-17 12:25:01","fd252370c17a9971d68c1d4354a03c2e","","Mozilla/5.0 (Windows NT 10.0; Win64; x64; rv:107.0) Gecko/20100101 Firefox/107.0","","Firefox","107.0","Windows","10.0","1004"," ","","A pilot is reading a book","2","Filler","",""
"","","","","","fixation","10420","html-keyboard-response","277","359579","0.0-6.0-2.60","72","2","2022-11-17 12:25:01","fd252370c17a9971d68c1d4354a03c2e","","Mozilla/5.0 (Windows NT 10.0; Win64; x64; rv:107.0) Gecko/20100101 Firefox/107.0","","Firefox","107.0","Windows","10.0","null","null","","<p style=""font-size: 48px;"">+</p>","2","Filler","",""
