"success","timeout","failed_images","failed_audio","failed_video","typeoftrial","subject","trial_type","trial_index","time_elapsed","internal_node_id","run_id","condition","recorded_at","source_code_version","ip","user_agent","device","browser","browser_version","platform","platform_version","rt","response","Experiment","stimulus","list_number","trialcondition","correct","question_order"
"true","false","[]","[]","[]","preload","43965","preload","0","2310","0.0-0.0","48","4","2022-11-17 12:19:31","fd252370c17a9971d68c1d4354a03c2e","","Mozilla/5.0 (Windows NT 10.0; Win64; x64) AppleWebKit/537.36 (KHTML, like Gecko) Chrome/107.0.0.0 Safari/537.36 Edg/107.0.1418.35","WebKit","Edge","107.0.1418.35","Windows","10.0","","","","","","","",""
"","","","","","ID","43965","survey-text","1","6667","0.0-1.0","48","4","2022-11-17 12:19:31","fd252370c17a9971d68c1d4354a03c2e","","Mozilla/5.0 (Windows NT 10.0; Win64; x64) AppleWebKit/537.36 (KHTML, like Gecko) Chrome/107.0.0.0 Safari/537.36 Edg/107.0.1418.35","WebKit","Edge","107.0.1418.35","Windows","10.0","4336","{""ID"":""5d0bde99db71b30001d3b348""}","","","","","",""
"","","","","","instructions","43965","html-button-response","2","27492","0.0-2.0","48","4","2022-11-17 12:19:31","fd252370c17a9971d68c1d4354a03c2e","","Mozilla/5.0 (Windows NT 10.0; Win64; x64) AppleWebKit/537.36 (KHTML, like Gecko) Chrome/107.0.0.0 Safari/537.36 Edg/107.0.1418.35","WebKit","Edge","107.0.1418.35","Windows","10.0","20822","0","","
                    <p style=""font-size:20px;""> Welcome to the experiment! </p>
                    <p style=""font-size:20px;""> In this experiment, you will be asked to make judgments about the content of different sentences.</p>
                    <p style=""font-size:20px;""> On each trial, you will read a sentence, and will be shown a picture immediately following the sentence. </p>
                    <p style=""font-size:20px;""> Your task is to decide whether the object displayed in the picture was mentioned in the sentence or not </p>
                    <p style=""font-size:20px;""> and respond as quickly as possible by pressing <strong>S</strong> for yes or <strong>N</strong> for no. </p>
                    <p style=""font-size:20px;""> You will now do a practice session with feedback and instructions. </p>
                    <p style=""font-size:20px;""> Click the button below to continue.</p>
                    ","","","",""
"","","","","","instructions","43965","html-button-response","3","48851","0.0-3.0","48","4","2022-11-17 12:19:31","fd252370c17a9971d68c1d4354a03c2e","","Mozilla/5.0 (Windows NT 10.0; Win64; x64) AppleWebKit/537.36 (KHTML, like Gecko) Chrome/107.0.0.0 Safari/537.36 Edg/107.0.1418.35","WebKit","Edge","107.0.1418.35","Windows","10.0","21358","0","","
                    <p style=""font-size:20px;""> You are about to begin the practice test. </p>
                    <p style=""font-size:20px;""> On each trial, a sentence will appear on the screen. You should press SPACEBAR when you have read and understood the sentence.</p>
                    <p style=""font-size:20px;""> After you press SPACEBAR, a picture will appear on the screen. </p>
                    <p style=""font-size:20px;""> You need to indicate whether or not the pictured object was mentioned in the sentence. </p>
                    <p style=""font-size:20px;""> If the object WAS mentioned in the preceding sentence, you should press <strong>S</strong> </p>
                    <p style=""font-size:20px;""> If the object was NOT mentioned in the preceding sentence, you should press <strong>N</strong>. </p>
                    <p style=""font-size:20px;""> Click the button below to continue to the practice session.</p>
                    ","","","",""
"","","","","","fixation","43965","html-keyboard-response","4","49858","0.0-4.0-0.0","48","4","2022-11-17 12:19:31","fd252370c17a9971d68c1d4354a03c2e","","Mozilla/5.0 (Windows NT 10.0; Win64; x64) AppleWebKit/537.36 (KHTML, like Gecko) Chrome/107.0.0.0 Safari/537.36 Edg/107.0.1418.35","WebKit","Edge","107.0.1418.35","Windows","10.0","null","null","","<p style=""font-size: 48px;"">+</p>","practice","practice_s","",""
"","","","","","sentence","43965","html-keyboard-response","5","55370","0.0-4.0-1.0","48","4","2022-11-17 12:19:31","fd252370c17a9971d68c1d4354a03c2e","","Mozilla/5.0 (Windows NT 10.0; Win64; x64) AppleWebKit/537.36 (KHTML, like Gecko) Chrome/107.0.0.0 Safari/537.36 Edg/107.0.1418.35","WebKit","Edge","107.0.1418.35","Windows","10.0","5511"," ","","A knife was placed on a hammer","practice","practice_s","",""
"","","","","","fixation","43965","html-keyboard-response","6","55875","0.0-4.0-2.0","48","4","2022-11-17 12:19:31","fd252370c17a9971d68c1d4354a03c2e","","Mozilla/5.0 (Windows NT 10.0; Win64; x64) AppleWebKit/537.36 (KHTML, like Gecko) Chrome/107.0.0.0 Safari/537.36 Edg/107.0.1418.35","WebKit","Edge","107.0.1418.35","Windows","10.0","null","null","","<p style=""font-size: 48px;"">+</p>","practice","practice_s","",""
"","","","","","picture","43965","image-keyboard-response","7","61417","0.0-4.0-3.0","48","4","2022-11-17 12:19:31","fd252370c17a9971d68c1d4354a03c2e","","Mozilla/5.0 (Windows NT 10.0; Win64; x64) AppleWebKit/537.36 (KHTML, like Gecko) Chrome/107.0.0.0 Safari/537.36 Edg/107.0.1418.35","WebKit","Edge","107.0.1418.35","Windows","10.0","5532","s","","hammerB.jpg","practice","practice_s","true",""
"","","","","","","","html-keyboard-response","8","63433","0.0-4.0-4.0","48","4","2022-11-17 12:19:31","fd252370c17a9971d68c1d4354a03c2e","","Mozilla/5.0 (Windows NT 10.0; Win64; x64) AppleWebKit/537.36 (KHTML, like Gecko) Chrome/107.0.0.0 Safari/537.36 Edg/107.0.1418.35","WebKit","Edge","107.0.1418.35","Windows","10.0","null","null","","CORRECT!","","","",""
"","","","","","fixation","43965","html-keyboard-response","9","64441","0.0-4.0-0.1","48","4","2022-11-17 12:19:31","fd252370c17a9971d68c1d4354a03c2e","","Mozilla/5.0 (Windows NT 10.0; Win64; x64) AppleWebKit/537.36 (KHTML, like Gecko) Chrome/107.0.0.0 Safari/537.36 Edg/107.0.1418.35","WebKit","Edge","107.0.1418.35","Windows","10.0","null","null","","<p style=""font-size: 48px;"">+</p>","practice","practice_n","",""
"","","","","","sentence","43965","html-keyboard-response","10","67278","0.0-4.0-1.1","48","4","2022-11-17 12:19:31","fd252370c17a9971d68c1d4354a03c2e","","Mozilla/5.0 (Windows NT 10.0; Win64; x64) AppleWebKit/537.36 (KHTML, like Gecko) Chrome/107.0.0.0 Safari/537.36 Edg/107.0.1418.35","WebKit","Edge","107.0.1418.35","Windows","10.0","2836"," ","","A bowling ball dropped and touched a bottle","practice","practice_n","",""
"","","","","","fixation","43965","html-keyboard-response","11","67791","0.0-4.0-2.1","48","4","2022-11-17 12:19:31","fd252370c17a9971d68c1d4354a03c2e","","Mozilla/5.0 (Windows NT 10.0; Win64; x64) AppleWebKit/537.36 (KHTML, like Gecko) Chrome/107.0.0.0 Safari/537.36 Edg/107.0.1418.35","WebKit","Edge","107.0.1418.35","Windows","10.0","null","null","","<p style=""font-size: 48px;"">+</p>","practice","practice_n","",""
"","","","","","picture","43965","image-keyboard-response","12","69331","0.0-4.0-3.1","48","4","2022-11-17 12:19:31","fd252370c17a9971d68c1d4354a03c2e","","Mozilla/5.0 (Windows NT 10.0; Win64; x64) AppleWebKit/537.36 (KHTML, like Gecko) Chrome/107.0.0.0 Safari/537.36 Edg/107.0.1418.35","WebKit","Edge","107.0.1418.35","Windows","10.0","1538","n","","bookB.jpg","practice","practice_n","true",""
"","","","","","","","html-keyboard-response","13","71337","0.0-4.0-4.1","48","4","2022-11-17 12:19:31","fd252370c17a9971d68c1d4354a03c2e","","Mozilla/5.0 (Windows NT 10.0; Win64; x64) AppleWebKit/537.36 (KHTML, like Gecko) Chrome/107.0.0.0 Safari/537.36 Edg/107.0.1418.35","WebKit","Edge","107.0.1418.35","Windows","10.0","null","null","","CORRECT!","","","",""
"","","","","","fixation","43965","html-keyboard-response","14","72345","0.0-4.0-0.2","48","4","2022-11-17 12:19:31","fd252370c17a9971d68c1d4354a03c2e","","Mozilla/5.0 (Windows NT 10.0; Win64; x64) AppleWebKit/537.36 (KHTML, like Gecko) Chrome/107.0.0.0 Safari/537.36 Edg/107.0.1418.35","WebKit","Edge","107.0.1418.35","Windows","10.0","null","null","","<p style=""font-size: 48px;"">+</p>","practice","practice_n","",""
"","","","","","sentence","43965","html-keyboard-response","15","75135","0.0-4.0-1.2","48","4","2022-11-17 12:19:31","fd252370c17a9971d68c1d4354a03c2e","","Mozilla/5.0 (Windows NT 10.0; Win64; x64) AppleWebKit/537.36 (KHTML, like Gecko) Chrome/107.0.0.0 Safari/537.36 Edg/107.0.1418.35","WebKit","Edge","107.0.1418.35","Windows","10.0","2788"," ","","A fork was placed on a stool","practice","practice_n","",""
"","","","","","fixation","43965","html-keyboard-response","16","75642","0.0-4.0-2.2","48","4","2022-11-17 12:19:31","fd252370c17a9971d68c1d4354a03c2e","","Mozilla/5.0 (Windows NT 10.0; Win64; x64) AppleWebKit/537.36 (KHTML, like Gecko) Chrome/107.0.0.0 Safari/537.36 Edg/107.0.1418.35","WebKit","Edge","107.0.1418.35","Windows","10.0","null","null","","<p style=""font-size: 48px;"">+</p>","practice","practice_n","",""
"","","","","","picture","43965","image-keyboard-response","17","78949","0.0-4.0-3.2","48","4","2022-11-17 12:19:31","fd252370c17a9971d68c1d4354a03c2e","","Mozilla/5.0 (Windows NT 10.0; Win64; x64) AppleWebKit/537.36 (KHTML, like Gecko) Chrome/107.0.0.0 Safari/537.36 Edg/107.0.1418.35","WebKit","Edge","107.0.1418.35","Windows","10.0","3305","s","","tableB.jpg","practice","practice_n","false",""
"","","","","","","","html-keyboard-response","18","80955","0.0-4.0-4.2","48","4","2022-11-17 12:19:31","fd252370c17a9971d68c1d4354a03c2e","","Mozilla/5.0 (Windows NT 10.0; Win64; x64) AppleWebKit/537.36 (KHTML, like Gecko) Chrome/107.0.0.0 Safari/537.36 Edg/107.0.1418.35","WebKit","Edge","107.0.1418.35","Windows","10.0","null","null","","WRONG!","","","",""
"","","","","","fixation","43965","html-keyboard-response","19","81962","0.0-4.0-0.3","48","4","2022-11-17 12:19:31","fd252370c17a9971d68c1d4354a03c2e","","Mozilla/5.0 (Windows NT 10.0; Win64; x64) AppleWebKit/537.36 (KHTML, like Gecko) Chrome/107.0.0.0 Safari/537.36 Edg/107.0.1418.35","WebKit","Edge","107.0.1418.35","Windows","10.0","null","null","","<p style=""font-size: 48px;"">+</p>","practice","practice_n","",""
"","","","","","sentence","43965","html-keyboard-response","20","86103","0.0-4.0-1.3","48","4","2022-11-17 12:19:31","fd252370c17a9971d68c1d4354a03c2e","","Mozilla/5.0 (Windows NT 10.0; Win64; x64) AppleWebKit/537.36 (KHTML, like Gecko) Chrome/107.0.0.0 Safari/537.36 Edg/107.0.1418.35","WebKit","Edge","107.0.1418.35","Windows","10.0","4140"," ","","A balloon dropped and smashed a cup","practice","practice_n","",""
"","","","","","fixation","43965","html-keyboard-response","21","86610","0.0-4.0-2.3","48","4","2022-11-17 12:19:31","fd252370c17a9971d68c1d4354a03c2e","","Mozilla/5.0 (Windows NT 10.0; Win64; x64) AppleWebKit/537.36 (KHTML, like Gecko) Chrome/107.0.0.0 Safari/537.36 Edg/107.0.1418.35","WebKit","Edge","107.0.1418.35","Windows","10.0","null","null","","<p style=""font-size: 48px;"">+</p>","practice","practice_n","",""
"","","","","","picture","43965","image-keyboard-response","22","88232","0.0-4.0-3.3","48","4","2022-11-17 12:19:31","fd252370c17a9971d68c1d4354a03c2e","","Mozilla/5.0 (Windows NT 10.0; Win64; x64) AppleWebKit/537.36 (KHTML, like Gecko) Chrome/107.0.0.0 Safari/537.36 Edg/107.0.1418.35","WebKit","Edge","107.0.1418.35","Windows","10.0","1620","n","","bananaB.jpg","practice","practice_n","true",""
"","","","","","","","html-keyboard-response","23","90242","0.0-4.0-4.3","48","4","2022-11-17 12:19:31","fd252370c17a9971d68c1d4354a03c2e","","Mozilla/5.0 (Windows NT 10.0; Win64; x64) AppleWebKit/537.36 (KHTML, like Gecko) Chrome/107.0.0.0 Safari/537.36 Edg/107.0.1418.35","WebKit","Edge","107.0.1418.35","Windows","10.0","null","null","","CORRECT!","","","",""
"","","","","","fixation","43965","html-keyboard-response","24","91249","0.0-4.0-0.4","48","4","2022-11-17 12:19:31","fd252370c17a9971d68c1d4354a03c2e","","Mozilla/5.0 (Windows NT 10.0; Win64; x64) AppleWebKit/537.36 (KHTML, like Gecko) Chrome/107.0.0.0 Safari/537.36 Edg/107.0.1418.35","WebKit","Edge","107.0.1418.35","Windows","10.0","null","null","","<p style=""font-size: 48px;"">+</p>","practice","practice_s","",""
"","","","","","sentence","43965","html-keyboard-response","25","94513","0.0-4.0-1.4","48","4","2022-11-17 12:19:31","fd252370c17a9971d68c1d4354a03c2e","","Mozilla/5.0 (Windows NT 10.0; Win64; x64) AppleWebKit/537.36 (KHTML, like Gecko) Chrome/107.0.0.0 Safari/537.36 Edg/107.0.1418.35","WebKit","Edge","107.0.1418.35","Windows","10.0","3263"," ","","A bowling ball dropped and smashed a teacup","practice","practice_s","",""
"","","","","","fixation","43965","html-keyboard-response","26","95017","0.0-4.0-2.4","48","4","2022-11-17 12:19:31","fd252370c17a9971d68c1d4354a03c2e","","Mozilla/5.0 (Windows NT 10.0; Win64; x64) AppleWebKit/537.36 (KHTML, like Gecko) Chrome/107.0.0.0 Safari/537.36 Edg/107.0.1418.35","WebKit","Edge","107.0.1418.35","Windows","10.0","null","null","","<p style=""font-size: 48px;"">+</p>","practice","practice_s","",""
"","","","","","picture","43965","image-keyboard-response","27","97546","0.0-4.0-3.4","48","4","2022-11-17 12:19:31","fd252370c17a9971d68c1d4354a03c2e","","Mozilla/5.0 (Windows NT 10.0; Win64; x64) AppleWebKit/537.36 (KHTML, like Gecko) Chrome/107.0.0.0 Safari/537.36 Edg/107.0.1418.35","WebKit","Edge","107.0.1418.35","Windows","10.0","2526","s","","cupB.jpg","practice","practice_s","true",""
"","","","","","","","html-keyboard-response","28","99553","0.0-4.0-4.4","48","4","2022-11-17 12:19:31","fd252370c17a9971d68c1d4354a03c2e","","Mozilla/5.0 (Windows NT 10.0; Win64; x64) AppleWebKit/537.36 (KHTML, like Gecko) Chrome/107.0.0.0 Safari/537.36 Edg/107.0.1418.35","WebKit","Edge","107.0.1418.35","Windows","10.0","null","null","","CORRECT!","","","",""
"","","","","","fixation","43965","html-keyboard-response","29","100566","0.0-4.0-0.5","48","4","2022-11-17 12:19:31","fd252370c17a9971d68c1d4354a03c2e","","Mozilla/5.0 (Windows NT 10.0; Win64; x64) AppleWebKit/537.36 (KHTML, like Gecko) Chrome/107.0.0.0 Safari/537.36 Edg/107.0.1418.35","WebKit","Edge","107.0.1418.35","Windows","10.0","null","null","","<p style=""font-size: 48px;"">+</p>","practice","practice_s","",""
"","","","","","sentence","43965","html-keyboard-response","30","102240","0.0-4.0-1.5","48","4","2022-11-17 12:19:31","fd252370c17a9971d68c1d4354a03c2e","","Mozilla/5.0 (Windows NT 10.0; Win64; x64) AppleWebKit/537.36 (KHTML, like Gecko) Chrome/107.0.0.0 Safari/537.36 Edg/107.0.1418.35","WebKit","Edge","107.0.1418.35","Windows","10.0","1672"," ","","A balloon dropped and touched a cigarette","practice","practice_s","",""
"","","","","","fixation","43965","html-keyboard-response","31","102747","0.0-4.0-2.5","48","4","2022-11-17 12:19:31","fd252370c17a9971d68c1d4354a03c2e","","Mozilla/5.0 (Windows NT 10.0; Win64; x64) AppleWebKit/537.36 (KHTML, like Gecko) Chrome/107.0.0.0 Safari/537.36 Edg/107.0.1418.35","WebKit","Edge","107.0.1418.35","Windows","10.0","null","null","","<p style=""font-size: 48px;"">+</p>","practice","practice_s","",""
"","","","","","picture","43965","image-keyboard-response","32","105065","0.0-4.0-3.5","48","4","2022-11-17 12:19:31","fd252370c17a9971d68c1d4354a03c2e","","Mozilla/5.0 (Windows NT 10.0; Win64; x64) AppleWebKit/537.36 (KHTML, like Gecko) Chrome/107.0.0.0 Safari/537.36 Edg/107.0.1418.35","WebKit","Edge","107.0.1418.35","Windows","10.0","2317","s","","cigaretteB.jpg","practice","practice_s","true",""
"","","","","","","","html-keyboard-response","33","107074","0.0-4.0-4.5","48","4","2022-11-17 12:19:31","fd252370c17a9971d68c1d4354a03c2e","","Mozilla/5.0 (Windows NT 10.0; Win64; x64) AppleWebKit/537.36 (KHTML, like Gecko) Chrome/107.0.0.0 Safari/537.36 Edg/107.0.1418.35","WebKit","Edge","107.0.1418.35","Windows","10.0","null","null","","CORRECT!","","","",""
"","","","","","movetoexp","43965","html-button-response","34","120483","0.0-5.0","48","4","2022-11-17 12:19:31","fd252370c17a9971d68c1d4354a03c2e","","Mozilla/5.0 (Windows NT 10.0; Win64; x64) AppleWebKit/537.36 (KHTML, like Gecko) Chrome/107.0.0.0 Safari/537.36 Edg/107.0.1418.35","WebKit","Edge","107.0.1418.35","Windows","10.0","13406","0","","<p style=""font-size:20px;"">You have now completed the practice session! </p>
                    <p style=""font-size:20px;"">You will now move on to the main experiment, where you will not be provided any feedback. </p>
                    <p style=""font-size:20px;"">Remember, you should press <strong>S</strong> if the pictured object was mentioned in the preceding sentence<br> and <strong>N</strong> if the pictured object was not mentioned in the preceding sentence.</p>
                    <p style=""font-size:20px;"">Please click the button below to continue to the main experiment. </p>","","","",""
"","","","","","fixation","43965","html-keyboard-response","35","121489","0.0-6.0-0.0","48","4","2022-11-17 12:19:31","fd252370c17a9971d68c1d4354a03c2e","","Mozilla/5.0 (Windows NT 10.0; Win64; x64) AppleWebKit/537.36 (KHTML, like Gecko) Chrome/107.0.0.0 Safari/537.36 Edg/107.0.1418.35","WebKit","Edge","107.0.1418.35","Windows","10.0","null","null","","<p style=""font-size: 48px;"">+</p>","4","Light-Matched","",""
"","","","","","sentence","43965","html-keyboard-response","36","126170","0.0-6.0-1.0","48","4","2022-11-17 12:19:31","fd252370c17a9971d68c1d4354a03c2e","","Mozilla/5.0 (Windows NT 10.0; Win64; x64) AppleWebKit/537.36 (KHTML, like Gecko) Chrome/107.0.0.0 Safari/537.36 Edg/107.0.1418.35","WebKit","Edge","107.0.1418.35","Windows","10.0","4679"," ","","A balloon dropped and touched glasses","4","Light-Matched","",""
"","","","","","fixation","43965","html-keyboard-response","37","126673","0.0-6.0-2.0","48","4","2022-11-17 12:19:31","fd252370c17a9971d68c1d4354a03c2e","","Mozilla/5.0 (Windows NT 10.0; Win64; x64) AppleWebKit/537.36 (KHTML, like Gecko) Chrome/107.0.0.0 Safari/537.36 Edg/107.0.1418.35","WebKit","Edge","107.0.1418.35","Windows","10.0","null","null","","<p style=""font-size: 48px;"">+</p>","4","Light-Matched","",""
"","","","","","picture","43965","image-keyboard-response","38","128908","0.0-6.0-3.0","48","4","2022-11-17 12:19:31","fd252370c17a9971d68c1d4354a03c2e","","Mozilla/5.0 (Windows NT 10.0; Win64; x64) AppleWebKit/537.36 (KHTML, like Gecko) Chrome/107.0.0.0 Safari/537.36 Edg/107.0.1418.35","WebKit","Edge","107.0.1418.35","Windows","10.0","2233","s","","glassesS.jpg","4","Light-Matched","true",""
"","","","","","fixation","43965","html-keyboard-response","39","129913","0.0-6.0-0.1","48","4","2022-11-17 12:19:31","fd252370c17a9971d68c1d4354a03c2e","","Mozilla/5.0 (Windows NT 10.0; Win64; x64) AppleWebKit/537.36 (KHTML, like Gecko) Chrome/107.0.0.0 Safari/537.36 Edg/107.0.1418.35","WebKit","Edge","107.0.1418.35","Windows","10.0","null","null","","<p style=""font-size: 48px;"">+</p>","4","Heavy-Matched","",""
"","","","","","sentence","43965","html-keyboard-response","40","132337","0.0-6.0-1.1","48","4","2022-11-17 12:19:31","fd252370c17a9971d68c1d4354a03c2e","","Mozilla/5.0 (Windows NT 10.0; Win64; x64) AppleWebKit/537.36 (KHTML, like Gecko) Chrome/107.0.0.0 Safari/537.36 Edg/107.0.1418.35","WebKit","Edge","107.0.1418.35","Windows","10.0","2422"," ","","A bowling ball  dropped and smashed a ceramic plate","4","Heavy-Matched","",""
"","","","","","fixation","43965","html-keyboard-response","41","132841","0.0-6.0-2.1","48","4","2022-11-17 12:19:31","fd252370c17a9971d68c1d4354a03c2e","","Mozilla/5.0 (Windows NT 10.0; Win64; x64) AppleWebKit/537.36 (KHTML, like Gecko) Chrome/107.0.0.0 Safari/537.36 Edg/107.0.1418.35","WebKit","Edge","107.0.1418.35","Windows","10.0","null","null","","<p style=""font-size: 48px;"">+</p>","4","Heavy-Matched","",""
"","","","","","picture","43965","image-keyboard-response","42","134609","0.0-6.0-3.1","48","4","2022-11-17 12:19:31","fd252370c17a9971d68c1d4354a03c2e","","Mozilla/5.0 (Windows NT 10.0; Win64; x64) AppleWebKit/537.36 (KHTML, like Gecko) Chrome/107.0.0.0 Safari/537.36 Edg/107.0.1418.35","WebKit","Edge","107.0.1418.35","Windows","10.0","1765","s","","plateS.jpg","4","Heavy-Matched","true",""
"","","","","","fixation","43965","html-keyboard-response","43","135618","0.0-6.0-0.2","48","4","2022-11-17 12:19:31","fd252370c17a9971d68c1d4354a03c2e","","Mozilla/5.0 (Windows NT 10.0; Win64; x64) AppleWebKit/537.36 (KHTML, like Gecko) Chrome/107.0.0.0 Safari/537.36 Edg/107.0.1418.35","WebKit","Edge","107.0.1418.35","Windows","10.0","null","null","","<p style=""font-size: 48px;"">+</p>","4","Heavy-Contradictory","",""
"","","","","","sentence","43965","html-keyboard-response","44","139192","0.0-6.0-1.2","48","4","2022-11-17 12:19:31","fd252370c17a9971d68c1d4354a03c2e","","Mozilla/5.0 (Windows NT 10.0; Win64; x64) AppleWebKit/537.36 (KHTML, like Gecko) Chrome/107.0.0.0 Safari/537.36 Edg/107.0.1418.35","WebKit","Edge","107.0.1418.35","Windows","10.0","3573"," ","","A bowling ball dropped and touched a porcelain figure","4","Heavy-Contradictory","",""
"","","","","","fixation","43965","html-keyboard-response","45","139697","0.0-6.0-2.2","48","4","2022-11-17 12:19:31","fd252370c17a9971d68c1d4354a03c2e","","Mozilla/5.0 (Windows NT 10.0; Win64; x64) AppleWebKit/537.36 (KHTML, like Gecko) Chrome/107.0.0.0 Safari/537.36 Edg/107.0.1418.35","WebKit","Edge","107.0.1418.35","Windows","10.0","null","null","","<p style=""font-size: 48px;"">+</p>","4","Heavy-Contradictory","",""
"","","","","","picture","43965","image-keyboard-response","46","141864","0.0-6.0-3.2","48","4","2022-11-17 12:19:31","fd252370c17a9971d68c1d4354a03c2e","","Mozilla/5.0 (Windows NT 10.0; Win64; x64) AppleWebKit/537.36 (KHTML, like Gecko) Chrome/107.0.0.0 Safari/537.36 Edg/107.0.1418.35","WebKit","Edge","107.0.1418.35","Windows","10.0","2164","s","","figureS.jpg","4","Heavy-Contradictory","true",""
"","","","","","fixation","43965","html-keyboard-response","47","142873","0.0-6.0-0.3","48","4","2022-11-17 12:19:31","fd252370c17a9971d68c1d4354a03c2e","","Mozilla/5.0 (Windows NT 10.0; Win64; x64) AppleWebKit/537.36 (KHTML, like Gecko) Chrome/107.0.0.0 Safari/537.36 Edg/107.0.1418.35","WebKit","Edge","107.0.1418.35","Windows","10.0","null","null","","<p style=""font-size: 48px;"">+</p>","4","Heavy-Contradictory","",""
"","","","","","sentence","43965","html-keyboard-response","48","145138","0.0-6.0-1.3","48","4","2022-11-17 12:19:31","fd252370c17a9971d68c1d4354a03c2e","","Mozilla/5.0 (Windows NT 10.0; Win64; x64) AppleWebKit/537.36 (KHTML, like Gecko) Chrome/107.0.0.0 Safari/537.36 Edg/107.0.1418.35","WebKit","Edge","107.0.1418.35","Windows","10.0","2263"," ","","A bowling ball dropped and touched a piece of cake","4","Heavy-Contradictory","",""
"","","","","","fixation","43965","html-keyboard-response","49","145642","0.0-6.0-2.3","48","4","2022-11-17 12:19:31","fd252370c17a9971d68c1d4354a03c2e","","Mozilla/5.0 (Windows NT 10.0; Win64; x64) AppleWebKit/537.36 (KHTML, like Gecko) Chrome/107.0.0.0 Safari/537.36 Edg/107.0.1418.35","WebKit","Edge","107.0.1418.35","Windows","10.0","null","null","","<p style=""font-size: 48px;"">+</p>","4","Heavy-Contradictory","",""
"","","","","","picture","43965","image-keyboard-response","50","147418","0.0-6.0-3.3","48","4","2022-11-17 12:19:31","fd252370c17a9971d68c1d4354a03c2e","","Mozilla/5.0 (Windows NT 10.0; Win64; x64) AppleWebKit/537.36 (KHTML, like Gecko) Chrome/107.0.0.0 Safari/537.36 Edg/107.0.1418.35","WebKit","Edge","107.0.1418.35","Windows","10.0","1773","s","","cakeS.jpg","4","Heavy-Contradictory","true",""
"","","","","","fixation","43965","html-keyboard-response","51","148425","0.0-6.0-0.4","48","4","2022-11-17 12:19:31","fd252370c17a9971d68c1d4354a03c2e","","Mozilla/5.0 (Windows NT 10.0; Win64; x64) AppleWebKit/537.36 (KHTML, like Gecko) Chrome/107.0.0.0 Safari/537.36 Edg/107.0.1418.35","WebKit","Edge","107.0.1418.35","Windows","10.0","null","null","","<p style=""font-size: 48px;"">+</p>","4","Filler","",""
"","","","","","sentence","43965","html-keyboard-response","52","150602","0.0-6.0-1.4","48","4","2022-11-17 12:19:31","fd252370c17a9971d68c1d4354a03c2e","","Mozilla/5.0 (Windows NT 10.0; Win64; x64) AppleWebKit/537.36 (KHTML, like Gecko) Chrome/107.0.0.0 Safari/537.36 Edg/107.0.1418.35","WebKit","Edge","107.0.1418.35","Windows","10.0","2175"," ","","A giraffe is playing with a zebra","4","Filler","",""
"","","","","","fixation","43965","html-keyboard-response","53","151107","0.0-6.0-2.4","48","4","2022-11-17 12:19:31","fd252370c17a9971d68c1d4354a03c2e","","Mozilla/5.0 (Windows NT 10.0; Win64; x64) AppleWebKit/537.36 (KHTML, like Gecko) Chrome/107.0.0.0 Safari/537.36 Edg/107.0.1418.35","WebKit","Edge","107.0.1418.35","Windows","10.0","null","null","","<p style=""font-size: 48px;"">+</p>","4","Filler","",""
"","","","","","picture","43965","image-keyboard-response","54","152441","0.0-6.0-3.4","48","4","2022-11-17 12:19:31","fd252370c17a9971d68c1d4354a03c2e","","Mozilla/5.0 (Windows NT 10.0; Win64; x64) AppleWebKit/537.36 (KHTML, like Gecko) Chrome/107.0.0.0 Safari/537.36 Edg/107.0.1418.35","WebKit","Edge","107.0.1418.35","Windows","10.0","1332","n","","wallet.jpg","4","Filler","true",""
"","","","","","fixation","43965","html-keyboard-response","55","153450","0.0-6.0-0.5","48","4","2022-11-17 12:19:31","fd252370c17a9971d68c1d4354a03c2e","","Mozilla/5.0 (Windows NT 10.0; Win64; x64) AppleWebKit/537.36 (KHTML, like Gecko) Chrome/107.0.0.0 Safari/537.36 Edg/107.0.1418.35","WebKit","Edge","107.0.1418.35","Windows","10.0","null","null","","<p style=""font-size: 48px;"">+</p>","4","Filler","",""
"","","","","","sentence","43965","html-keyboard-response","56","156111","0.0-6.0-1.5","48","4","2022-11-17 12:19:31","fd252370c17a9971d68c1d4354a03c2e","","Mozilla/5.0 (Windows NT 10.0; Win64; x64) AppleWebKit/537.36 (KHTML, like Gecko) Chrome/107.0.0.0 Safari/537.36 Edg/107.0.1418.35","WebKit","Edge","107.0.1418.35","Windows","10.0","2659"," ","","A woman is taking money out of a wallet","4","Filler","",""
"","","","","","fixation","43965","html-keyboard-response","57","156623","0.0-6.0-2.5","48","4","2022-11-17 12:19:31","fd252370c17a9971d68c1d4354a03c2e","","Mozilla/5.0 (Windows NT 10.0; Win64; x64) AppleWebKit/537.36 (KHTML, like Gecko) Chrome/107.0.0.0 Safari/537.36 Edg/107.0.1418.35","WebKit","Edge","107.0.1418.35","Windows","10.0","null","null","","<p style=""font-size: 48px;"">+</p>","4","Filler","",""
"","","","","","picture","43965","image-keyboard-response","58","157786","0.0-6.0-3.5","48","4","2022-11-17 12:19:31","fd252370c17a9971d68c1d4354a03c2e","","Mozilla/5.0 (Windows NT 10.0; Win64; x64) AppleWebKit/537.36 (KHTML, like Gecko) Chrome/107.0.0.0 Safari/537.36 Edg/107.0.1418.35","WebKit","Edge","107.0.1418.35","Windows","10.0","1161","n","","coconut.jpg","4","Filler","true",""
"","","","","","fixation","43965","html-keyboard-response","59","158795","0.0-6.0-0.6","48","4","2022-11-17 12:19:31","fd252370c17a9971d68c1d4354a03c2e","","Mozilla/5.0 (Windows NT 10.0; Win64; x64) AppleWebKit/537.36 (KHTML, like Gecko) Chrome/107.0.0.0 Safari/537.36 Edg/107.0.1418.35","WebKit","Edge","107.0.1418.35","Windows","10.0","null","null","","<p style=""font-size: 48px;"">+</p>","4","Filler","",""
"","","","","","sentence","43965","html-keyboard-response","60","160306","0.0-6.0-1.6","48","4","2022-11-17 12:19:31","fd252370c17a9971d68c1d4354a03c2e","","Mozilla/5.0 (Windows NT 10.0; Win64; x64) AppleWebKit/537.36 (KHTML, like Gecko) Chrome/107.0.0.0 Safari/537.36 Edg/107.0.1418.35","WebKit","Edge","107.0.1418.35","Windows","10.0","1510"," ","","An old man is hammering a nail","4","Filler","",""
"","","","","","fixation","43965","html-keyboard-response","61","160809","0.0-6.0-2.6","48","4","2022-11-17 12:19:31","fd252370c17a9971d68c1d4354a03c2e","","Mozilla/5.0 (Windows NT 10.0; Win64; x64) AppleWebKit/537.36 (KHTML, like Gecko) Chrome/107.0.0.0 Safari/537.36 Edg/107.0.1418.35","WebKit","Edge","107.0.1418.35","Windows","10.0","null","null","","<p style=""font-size: 48px;"">+</p>","4","Filler","",""
"","","","","","picture","43965","image-keyboard-response","62","162948","0.0-6.0-3.6","48","4","2022-11-17 12:19:31","fd252370c17a9971d68c1d4354a03c2e","","Mozilla/5.0 (Windows NT 10.0; Win64; x64) AppleWebKit/537.36 (KHTML, like Gecko) Chrome/107.0.0.0 Safari/537.36 Edg/107.0.1418.35","WebKit","Edge","107.0.1418.35","Windows","10.0","2137","s","","nail.jpg","4","Filler","true",""
"","","","","","fixation","43965","html-keyboard-response","63","163954","0.0-6.0-0.7","48","4","2022-11-17 12:19:31","fd252370c17a9971d68c1d4354a03c2e","","Mozilla/5.0 (Windows NT 10.0; Win64; x64) AppleWebKit/537.36 (KHTML, like Gecko) Chrome/107.0.0.0 Safari/537.36 Edg/107.0.1418.35","WebKit","Edge","107.0.1418.35","Windows","10.0","null","null","","<p style=""font-size: 48px;"">+</p>","4","Heavy-Contradictory","",""
"","","","","","sentence","43965","html-keyboard-response","64","167417","0.0-6.0-1.7","48","4","2022-11-17 12:19:31","fd252370c17a9971d68c1d4354a03c2e","","Mozilla/5.0 (Windows NT 10.0; Win64; x64) AppleWebKit/537.36 (KHTML, like Gecko) Chrome/107.0.0.0 Safari/537.36 Edg/107.0.1418.35","WebKit","Edge","107.0.1418.35","Windows","10.0","3461"," ","","A bowling ball dropped and touched a wineglass","4","Heavy-Contradictory","",""
"","","","","","fixation","43965","html-keyboard-response","65","167924","0.0-6.0-2.7","48","4","2022-11-17 12:19:31","fd252370c17a9971d68c1d4354a03c2e","","Mozilla/5.0 (Windows NT 10.0; Win64; x64) AppleWebKit/537.36 (KHTML, like Gecko) Chrome/107.0.0.0 Safari/537.36 Edg/107.0.1418.35","WebKit","Edge","107.0.1418.35","Windows","10.0","null","null","","<p style=""font-size: 48px;"">+</p>","4","Heavy-Contradictory","",""
"","","","","","picture","43965","image-keyboard-response","66","169486","0.0-6.0-3.7","48","4","2022-11-17 12:19:31","fd252370c17a9971d68c1d4354a03c2e","","Mozilla/5.0 (Windows NT 10.0; Win64; x64) AppleWebKit/537.36 (KHTML, like Gecko) Chrome/107.0.0.0 Safari/537.36 Edg/107.0.1418.35","WebKit","Edge","107.0.1418.35","Windows","10.0","1560","s","","wineglassS.jpg","4","Heavy-Contradictory","true",""
"","","","","","fixation","43965","html-keyboard-response","67","170489","0.0-6.0-0.8","48","4","2022-11-17 12:19:31","fd252370c17a9971d68c1d4354a03c2e","","Mozilla/5.0 (Windows NT 10.0; Win64; x64) AppleWebKit/537.36 (KHTML, like Gecko) Chrome/107.0.0.0 Safari/537.36 Edg/107.0.1418.35","WebKit","Edge","107.0.1418.35","Windows","10.0","null","null","","<p style=""font-size: 48px;"">+</p>","4","Light-Matched","",""
"","","","","","sentence","43965","html-keyboard-response","68","173052","0.0-6.0-1.8","48","4","2022-11-17 12:19:31","fd252370c17a9971d68c1d4354a03c2e","","Mozilla/5.0 (Windows NT 10.0; Win64; x64) AppleWebKit/537.36 (KHTML, like Gecko) Chrome/107.0.0.0 Safari/537.36 Edg/107.0.1418.35","WebKit","Edge","107.0.1418.35","Windows","10.0","2561"," ","","A balloon dropped and touched an iPAD","4","Light-Matched","",""
"","","","","","fixation","43965","html-keyboard-response","69","173556","0.0-6.0-2.8","48","4","2022-11-17 12:19:31","fd252370c17a9971d68c1d4354a03c2e","","Mozilla/5.0 (Windows NT 10.0; Win64; x64) AppleWebKit/537.36 (KHTML, like Gecko) Chrome/107.0.0.0 Safari/537.36 Edg/107.0.1418.35","WebKit","Edge","107.0.1418.35","Windows","10.0","null","null","","<p style=""font-size: 48px;"">+</p>","4","Light-Matched","",""
"","","","","","picture","43965","image-keyboard-response","70","175146","0.0-6.0-3.8","48","4","2022-11-17 12:19:31","fd252370c17a9971d68c1d4354a03c2e","","Mozilla/5.0 (Windows NT 10.0; Win64; x64) AppleWebKit/537.36 (KHTML, like Gecko) Chrome/107.0.0.0 Safari/537.36 Edg/107.0.1418.35","WebKit","Edge","107.0.1418.35","Windows","10.0","1587","s","","iPadS.jpg","4","Light-Matched","true",""
"","","","","","fixation","43965","html-keyboard-response","71","176153","0.0-6.0-0.9","48","4","2022-11-17 12:19:31","fd252370c17a9971d68c1d4354a03c2e","","Mozilla/5.0 (Windows NT 10.0; Win64; x64) AppleWebKit/537.36 (KHTML, like Gecko) Chrome/107.0.0.0 Safari/537.36 Edg/107.0.1418.35","WebKit","Edge","107.0.1418.35","Windows","10.0","null","null","","<p style=""font-size: 48px;"">+</p>","4","Filler","",""
"","","","","","sentence","43965","html-keyboard-response","72","178925","0.0-6.0-1.9","48","4","2022-11-17 12:19:31","fd252370c17a9971d68c1d4354a03c2e","","Mozilla/5.0 (Windows NT 10.0; Win64; x64) AppleWebKit/537.36 (KHTML, like Gecko) Chrome/107.0.0.0 Safari/537.36 Edg/107.0.1418.35","WebKit","Edge","107.0.1418.35","Windows","10.0","2770"," ","","A dentist is drinking a can of cola","4","Filler","",""
"","","","","","fixation","43965","html-keyboard-response","73","179433","0.0-6.0-2.9","48","4","2022-11-17 12:19:31","fd252370c17a9971d68c1d4354a03c2e","","Mozilla/5.0 (Windows NT 10.0; Win64; x64) AppleWebKit/537.36 (KHTML, like Gecko) Chrome/107.0.0.0 Safari/537.36 Edg/107.0.1418.35","WebKit","Edge","107.0.1418.35","Windows","10.0","null","null","","<p style=""font-size: 48px;"">+</p>","4","Filler","",""
"","","","","","picture","43965","image-keyboard-response","74","180815","0.0-6.0-3.9","48","4","2022-11-17 12:19:31","fd252370c17a9971d68c1d4354a03c2e","","Mozilla/5.0 (Windows NT 10.0; Win64; x64) AppleWebKit/537.36 (KHTML, like Gecko) Chrome/107.0.0.0 Safari/537.36 Edg/107.0.1418.35","WebKit","Edge","107.0.1418.35","Windows","10.0","1379","n","","doll.jpg","4","Filler","true",""
"","","","","","fixation","43965","html-keyboard-response","75","181838","0.0-6.0-0.10","48","4","2022-11-17 12:19:31","fd252370c17a9971d68c1d4354a03c2e","","Mozilla/5.0 (Windows NT 10.0; Win64; x64) AppleWebKit/537.36 (KHTML, like Gecko) Chrome/107.0.0.0 Safari/537.36 Edg/107.0.1418.35","WebKit","Edge","107.0.1418.35","Windows","10.0","null","null","","<p style=""font-size: 48px;"">+</p>","4","Filler","",""
"","","","","","sentence","43965","html-keyboard-response","76","184371","0.0-6.0-1.10","48","4","2022-11-17 12:19:31","fd252370c17a9971d68c1d4354a03c2e","","Mozilla/5.0 (Windows NT 10.0; Win64; x64) AppleWebKit/537.36 (KHTML, like Gecko) Chrome/107.0.0.0 Safari/537.36 Edg/107.0.1418.35","WebKit","Edge","107.0.1418.35","Windows","10.0","2530"," ","","A thermometer was placed on the box","4","Filler","",""
"","","","","","fixation","43965","html-keyboard-response","77","184874","0.0-6.0-2.10","48","4","2022-11-17 12:19:31","fd252370c17a9971d68c1d4354a03c2e","","Mozilla/5.0 (Windows NT 10.0; Win64; x64) AppleWebKit/537.36 (KHTML, like Gecko) Chrome/107.0.0.0 Safari/537.36 Edg/107.0.1418.35","WebKit","Edge","107.0.1418.35","Windows","10.0","null","null","","<p style=""font-size: 48px;"">+</p>","4","Filler","",""
"","","","","","picture","43965","image-keyboard-response","78","186049","0.0-6.0-3.10","48","4","2022-11-17 12:19:31","fd252370c17a9971d68c1d4354a03c2e","","Mozilla/5.0 (Windows NT 10.0; Win64; x64) AppleWebKit/537.36 (KHTML, like Gecko) Chrome/107.0.0.0 Safari/537.36 Edg/107.0.1418.35","WebKit","Edge","107.0.1418.35","Windows","10.0","1171","n","","button.jpg","4","Filler","true",""
"","","","","","fixation","43965","html-keyboard-response","79","187057","0.0-6.0-0.11","48","4","2022-11-17 12:19:31","fd252370c17a9971d68c1d4354a03c2e","","Mozilla/5.0 (Windows NT 10.0; Win64; x64) AppleWebKit/537.36 (KHTML, like Gecko) Chrome/107.0.0.0 Safari/537.36 Edg/107.0.1418.35","WebKit","Edge","107.0.1418.35","Windows","10.0","null","null","","<p style=""font-size: 48px;"">+</p>","4","Filler","",""
"","","","","","sentence","43965","html-keyboard-response","80","188512","0.0-6.0-1.11","48","4","2022-11-17 12:19:31","fd252370c17a9971d68c1d4354a03c2e","","Mozilla/5.0 (Windows NT 10.0; Win64; x64) AppleWebKit/537.36 (KHTML, like Gecko) Chrome/107.0.0.0 Safari/537.36 Edg/107.0.1418.35","WebKit","Edge","107.0.1418.35","Windows","10.0","1452"," ","","A man is boiling potatoes.","4","Filler","",""
"","","","","","fixation","43965","html-keyboard-response","81","189018","0.0-6.0-2.11","48","4","2022-11-17 12:19:31","fd252370c17a9971d68c1d4354a03c2e","","Mozilla/5.0 (Windows NT 10.0; Win64; x64) AppleWebKit/537.36 (KHTML, like Gecko) Chrome/107.0.0.0 Safari/537.36 Edg/107.0.1418.35","WebKit","Edge","107.0.1418.35","Windows","10.0","null","null","","<p style=""font-size: 48px;"">+</p>","4","Filler","",""
"","","","","","picture","43965","image-keyboard-response","82","190149","0.0-6.0-3.11","48","4","2022-11-17 12:19:31","fd252370c17a9971d68c1d4354a03c2e","","Mozilla/5.0 (Windows NT 10.0; Win64; x64) AppleWebKit/537.36 (KHTML, like Gecko) Chrome/107.0.0.0 Safari/537.36 Edg/107.0.1418.35","WebKit","Edge","107.0.1418.35","Windows","10.0","1126","n","","cup.jpg","4","Filler","true",""
"","","","","","fixation","43965","html-keyboard-response","83","191165","0.0-6.0-0.12","48","4","2022-11-17 12:19:31","fd252370c17a9971d68c1d4354a03c2e","","Mozilla/5.0 (Windows NT 10.0; Win64; x64) AppleWebKit/537.36 (KHTML, like Gecko) Chrome/107.0.0.0 Safari/537.36 Edg/107.0.1418.35","WebKit","Edge","107.0.1418.35","Windows","10.0","null","null","","<p style=""font-size: 48px;"">+</p>","4","Filler","",""
"","","","","","sentence","43965","html-keyboard-response","84","192412","0.0-6.0-1.12","48","4","2022-11-17 12:19:31","fd252370c17a9971d68c1d4354a03c2e","","Mozilla/5.0 (Windows NT 10.0; Win64; x64) AppleWebKit/537.36 (KHTML, like Gecko) Chrome/107.0.0.0 Safari/537.36 Edg/107.0.1418.35","WebKit","Edge","107.0.1418.35","Windows","10.0","1246"," ","","A cabbage was placed on the table","4","Filler","",""
"","","","","","fixation","43965","html-keyboard-response","85","192927","0.0-6.0-2.12","48","4","2022-11-17 12:19:31","fd252370c17a9971d68c1d4354a03c2e","","Mozilla/5.0 (Windows NT 10.0; Win64; x64) AppleWebKit/537.36 (KHTML, like Gecko) Chrome/107.0.0.0 Safari/537.36 Edg/107.0.1418.35","WebKit","Edge","107.0.1418.35","Windows","10.0","null","null","","<p style=""font-size: 48px;"">+</p>","4","Filler","",""
"","","","","","picture","43965","image-keyboard-response","86","193880","0.0-6.0-3.12","48","4","2022-11-17 12:19:31","fd252370c17a9971d68c1d4354a03c2e","","Mozilla/5.0 (Windows NT 10.0; Win64; x64) AppleWebKit/537.36 (KHTML, like Gecko) Chrome/107.0.0.0 Safari/537.36 Edg/107.0.1418.35","WebKit","Edge","107.0.1418.35","Windows","10.0","950","n","","ladder.jpg","4","Filler","true",""
"","","","","","fixation","43965","html-keyboard-response","87","194889","0.0-6.0-0.13","48","4","2022-11-17 12:19:31","fd252370c17a9971d68c1d4354a03c2e","","Mozilla/5.0 (Windows NT 10.0; Win64; x64) AppleWebKit/537.36 (KHTML, like Gecko) Chrome/107.0.0.0 Safari/537.36 Edg/107.0.1418.35","WebKit","Edge","107.0.1418.35","Windows","10.0","null","null","","<p style=""font-size: 48px;"">+</p>","4","Filler","",""
"","","","","","sentence","43965","html-keyboard-response","88","196880","0.0-6.0-1.13","48","4","2022-11-17 12:19:31","fd252370c17a9971d68c1d4354a03c2e","","Mozilla/5.0 (Windows NT 10.0; Win64; x64) AppleWebKit/537.36 (KHTML, like Gecko) Chrome/107.0.0.0 Safari/537.36 Edg/107.0.1418.35","WebKit","Edge","107.0.1418.35","Windows","10.0","1988"," ","","A cook is taking a knife","4","Filler","",""
"","","","","","fixation","43965","html-keyboard-response","89","197391","0.0-6.0-2.13","48","4","2022-11-17 12:19:31","fd252370c17a9971d68c1d4354a03c2e","","Mozilla/5.0 (Windows NT 10.0; Win64; x64) AppleWebKit/537.36 (KHTML, like Gecko) Chrome/107.0.0.0 Safari/537.36 Edg/107.0.1418.35","WebKit","Edge","107.0.1418.35","Windows","10.0","null","null","","<p style=""font-size: 48px;"">+</p>","4","Filler","",""
"","","","","","picture","43965","image-keyboard-response","90","199342","0.0-6.0-3.13","48","4","2022-11-17 12:19:31","fd252370c17a9971d68c1d4354a03c2e","","Mozilla/5.0 (Windows NT 10.0; Win64; x64) AppleWebKit/537.36 (KHTML, like Gecko) Chrome/107.0.0.0 Safari/537.36 Edg/107.0.1418.35","WebKit","Edge","107.0.1418.35","Windows","10.0","1948","s","","knife.jpg","4","Filler","true",""
"","","","","","fixation","43965","html-keyboard-response","91","200353","0.0-6.0-0.14","48","4","2022-11-17 12:19:31","fd252370c17a9971d68c1d4354a03c2e","","Mozilla/5.0 (Windows NT 10.0; Win64; x64) AppleWebKit/537.36 (KHTML, like Gecko) Chrome/107.0.0.0 Safari/537.36 Edg/107.0.1418.35","WebKit","Edge","107.0.1418.35","Windows","10.0","null","null","","<p style=""font-size: 48px;"">+</p>","4","Filler","",""
"","","","","","sentence","43965","html-keyboard-response","92","202472","0.0-6.0-1.14","48","4","2022-11-17 12:19:31","fd252370c17a9971d68c1d4354a03c2e","","Mozilla/5.0 (Windows NT 10.0; Win64; x64) AppleWebKit/537.36 (KHTML, like Gecko) Chrome/107.0.0.0 Safari/537.36 Edg/107.0.1418.35","WebKit","Edge","107.0.1418.35","Windows","10.0","2116"," ","","A student is writing on a board","4","Filler","",""
"","","","","","fixation","43965","html-keyboard-response","93","202977","0.0-6.0-2.14","48","4","2022-11-17 12:19:31","fd252370c17a9971d68c1d4354a03c2e","","Mozilla/5.0 (Windows NT 10.0; Win64; x64) AppleWebKit/537.36 (KHTML, like Gecko) Chrome/107.0.0.0 Safari/537.36 Edg/107.0.1418.35","WebKit","Edge","107.0.1418.35","Windows","10.0","null","null","","<p style=""font-size: 48px;"">+</p>","4","Filler","",""
"","","","","","picture","43965","image-keyboard-response","94","204073","0.0-6.0-3.14","48","4","2022-11-17 12:19:31","fd252370c17a9971d68c1d4354a03c2e","","Mozilla/5.0 (Windows NT 10.0; Win64; x64) AppleWebKit/537.36 (KHTML, like Gecko) Chrome/107.0.0.0 Safari/537.36 Edg/107.0.1418.35","WebKit","Edge","107.0.1418.35","Windows","10.0","1092","n","","owl.jpg","4","Filler","true",""
"","","","","","fixation","43965","html-keyboard-response","95","205082","0.0-6.0-0.15","48","4","2022-11-17 12:19:31","fd252370c17a9971d68c1d4354a03c2e","","Mozilla/5.0 (Windows NT 10.0; Win64; x64) AppleWebKit/537.36 (KHTML, like Gecko) Chrome/107.0.0.0 Safari/537.36 Edg/107.0.1418.35","WebKit","Edge","107.0.1418.35","Windows","10.0","null","null","","<p style=""font-size: 48px;"">+</p>","4","Filler","",""
"","","","","","sentence","43965","html-keyboard-response","96","206748","0.0-6.0-1.15","48","4","2022-11-17 12:19:31","fd252370c17a9971d68c1d4354a03c2e","","Mozilla/5.0 (Windows NT 10.0; Win64; x64) AppleWebKit/537.36 (KHTML, like Gecko) Chrome/107.0.0.0 Safari/537.36 Edg/107.0.1418.35","WebKit","Edge","107.0.1418.35","Windows","10.0","1660"," ","","A teenage girl is playing the piano","4","Filler","",""
"","","","","","fixation","43965","html-keyboard-response","97","207258","0.0-6.0-2.15","48","4","2022-11-17 12:19:31","fd252370c17a9971d68c1d4354a03c2e","","Mozilla/5.0 (Windows NT 10.0; Win64; x64) AppleWebKit/537.36 (KHTML, like Gecko) Chrome/107.0.0.0 Safari/537.36 Edg/107.0.1418.35","WebKit","Edge","107.0.1418.35","Windows","10.0","null","null","","<p style=""font-size: 48px;"">+</p>","4","Filler","",""
"","","","","","picture","43965","image-keyboard-response","98","208186","0.0-6.0-3.15","48","4","2022-11-17 12:19:31","fd252370c17a9971d68c1d4354a03c2e","","Mozilla/5.0 (Windows NT 10.0; Win64; x64) AppleWebKit/537.36 (KHTML, like Gecko) Chrome/107.0.0.0 Safari/537.36 Edg/107.0.1418.35","WebKit","Edge","107.0.1418.35","Windows","10.0","924","n","","pillow.jpg","4","Filler","true",""
"","","","","","fixation","43965","html-keyboard-response","99","209194","0.0-6.0-0.16","48","4","2022-11-17 12:19:31","fd252370c17a9971d68c1d4354a03c2e","","Mozilla/5.0 (Windows NT 10.0; Win64; x64) AppleWebKit/537.36 (KHTML, like Gecko) Chrome/107.0.0.0 Safari/537.36 Edg/107.0.1418.35","WebKit","Edge","107.0.1418.35","Windows","10.0","null","null","","<p style=""font-size: 48px;"">+</p>","4","Filler","",""
"","","","","","sentence","43965","html-keyboard-response","100","211055","0.0-6.0-1.16","48","4","2022-11-17 12:19:31","fd252370c17a9971d68c1d4354a03c2e","","Mozilla/5.0 (Windows NT 10.0; Win64; x64) AppleWebKit/537.36 (KHTML, like Gecko) Chrome/107.0.0.0 Safari/537.36 Edg/107.0.1418.35","WebKit","Edge","107.0.1418.35","Windows","10.0","1858"," ","","A zebra is playing with a horse","4","Filler","",""
"","","","","","fixation","43965","html-keyboard-response","101","211564","0.0-6.0-2.16","48","4","2022-11-17 12:19:31","fd252370c17a9971d68c1d4354a03c2e","","Mozilla/5.0 (Windows NT 10.0; Win64; x64) AppleWebKit/537.36 (KHTML, like Gecko) Chrome/107.0.0.0 Safari/537.36 Edg/107.0.1418.35","WebKit","Edge","107.0.1418.35","Windows","10.0","null","null","","<p style=""font-size: 48px;"">+</p>","4","Filler","",""
"","","","","","picture","43965","image-keyboard-response","102","212778","0.0-6.0-3.16","48","4","2022-11-17 12:19:31","fd252370c17a9971d68c1d4354a03c2e","","Mozilla/5.0 (Windows NT 10.0; Win64; x64) AppleWebKit/537.36 (KHTML, like Gecko) Chrome/107.0.0.0 Safari/537.36 Edg/107.0.1418.35","WebKit","Edge","107.0.1418.35","Windows","10.0","1211","n","","watch.jpg","4","Filler","true",""
"","","","","","fixation","43965","html-keyboard-response","103","213786","0.0-6.0-0.17","48","4","2022-11-17 12:19:31","fd252370c17a9971d68c1d4354a03c2e","","Mozilla/5.0 (Windows NT 10.0; Win64; x64) AppleWebKit/537.36 (KHTML, like Gecko) Chrome/107.0.0.0 Safari/537.36 Edg/107.0.1418.35","WebKit","Edge","107.0.1418.35","Windows","10.0","null","null","","<p style=""font-size: 48px;"">+</p>","4","Filler","",""
"","","","","","sentence","43965","html-keyboard-response","104","216006","0.0-6.0-1.17","48","4","2022-11-17 12:19:31","fd252370c17a9971d68c1d4354a03c2e","","Mozilla/5.0 (Windows NT 10.0; Win64; x64) AppleWebKit/537.36 (KHTML, like Gecko) Chrome/107.0.0.0 Safari/537.36 Edg/107.0.1418.35","WebKit","Edge","107.0.1418.35","Windows","10.0","2218"," ","","A man is playing with a cat","4","Filler","",""
"","","","","","fixation","43965","html-keyboard-response","105","216513","0.0-6.0-2.17","48","4","2022-11-17 12:19:31","fd252370c17a9971d68c1d4354a03c2e","","Mozilla/5.0 (Windows NT 10.0; Win64; x64) AppleWebKit/537.36 (KHTML, like Gecko) Chrome/107.0.0.0 Safari/537.36 Edg/107.0.1418.35","WebKit","Edge","107.0.1418.35","Windows","10.0","null","null","","<p style=""font-size: 48px;"">+</p>","4","Filler","",""
"","","","","","picture","43965","image-keyboard-response","106","217507","0.0-6.0-3.17","48","4","2022-11-17 12:19:31","fd252370c17a9971d68c1d4354a03c2e","","Mozilla/5.0 (Windows NT 10.0; Win64; x64) AppleWebKit/537.36 (KHTML, like Gecko) Chrome/107.0.0.0 Safari/537.36 Edg/107.0.1418.35","WebKit","Edge","107.0.1418.35","Windows","10.0","990","n","","ceramicplate.jpg","4","Filler","true",""
"","","","","","fixation","43965","html-keyboard-response","107","218513","0.0-6.0-0.18","48","4","2022-11-17 12:19:31","fd252370c17a9971d68c1d4354a03c2e","","Mozilla/5.0 (Windows NT 10.0; Win64; x64) AppleWebKit/537.36 (KHTML, like Gecko) Chrome/107.0.0.0 Safari/537.36 Edg/107.0.1418.35","WebKit","Edge","107.0.1418.35","Windows","10.0","null","null","","<p style=""font-size: 48px;"">+</p>","4","Filler","",""
"","","","","","sentence","43965","html-keyboard-response","108","220205","0.0-6.0-1.18","48","4","2022-11-17 12:19:31","fd252370c17a9971d68c1d4354a03c2e","","Mozilla/5.0 (Windows NT 10.0; Win64; x64) AppleWebKit/537.36 (KHTML, like Gecko) Chrome/107.0.0.0 Safari/537.36 Edg/107.0.1418.35","WebKit","Edge","107.0.1418.35","Windows","10.0","1689"," ","","A doctor is taking a stethoscope","4","Filler","",""
"","","","","","fixation","43965","html-keyboard-response","109","220728","0.0-6.0-2.18","48","4","2022-11-17 12:19:31","fd252370c17a9971d68c1d4354a03c2e","","Mozilla/5.0 (Windows NT 10.0; Win64; x64) AppleWebKit/537.36 (KHTML, like Gecko) Chrome/107.0.0.0 Safari/537.36 Edg/107.0.1418.35","WebKit","Edge","107.0.1418.35","Windows","10.0","null","null","","<p style=""font-size: 48px;"">+</p>","4","Filler","",""
"","","","","","picture","43965","image-keyboard-response","110","221770","0.0-6.0-3.18","48","4","2022-11-17 12:19:31","fd252370c17a9971d68c1d4354a03c2e","","Mozilla/5.0 (Windows NT 10.0; Win64; x64) AppleWebKit/537.36 (KHTML, like Gecko) Chrome/107.0.0.0 Safari/537.36 Edg/107.0.1418.35","WebKit","Edge","107.0.1418.35","Windows","10.0","1039","n","","matchesbox.jpg","4","Filler","true",""
"","","","","","fixation","43965","html-keyboard-response","111","222777","0.0-6.0-0.19","48","4","2022-11-17 12:19:31","fd252370c17a9971d68c1d4354a03c2e","","Mozilla/5.0 (Windows NT 10.0; Win64; x64) AppleWebKit/537.36 (KHTML, like Gecko) Chrome/107.0.0.0 Safari/537.36 Edg/107.0.1418.35","WebKit","Edge","107.0.1418.35","Windows","10.0","null","null","","<p style=""font-size: 48px;"">+</p>","4","Filler","",""
"","","","","","sentence","43965","html-keyboard-response","112","224014","0.0-6.0-1.19","48","4","2022-11-17 12:19:31","fd252370c17a9971d68c1d4354a03c2e","","Mozilla/5.0 (Windows NT 10.0; Win64; x64) AppleWebKit/537.36 (KHTML, like Gecko) Chrome/107.0.0.0 Safari/537.36 Edg/107.0.1418.35","WebKit","Edge","107.0.1418.35","Windows","10.0","1233"," ","","A keyboard was placed on the bed","4","Filler","",""
"","","","","","fixation","43965","html-keyboard-response","113","224523","0.0-6.0-2.19","48","4","2022-11-17 12:19:31","fd252370c17a9971d68c1d4354a03c2e","","Mozilla/5.0 (Windows NT 10.0; Win64; x64) AppleWebKit/537.36 (KHTML, like Gecko) Chrome/107.0.0.0 Safari/537.36 Edg/107.0.1418.35","WebKit","Edge","107.0.1418.35","Windows","10.0","null","null","","<p style=""font-size: 48px;"">+</p>","4","Filler","",""
"","","","","","picture","43965","image-keyboard-response","114","225892","0.0-6.0-3.19","48","4","2022-11-17 12:19:31","fd252370c17a9971d68c1d4354a03c2e","","Mozilla/5.0 (Windows NT 10.0; Win64; x64) AppleWebKit/537.36 (KHTML, like Gecko) Chrome/107.0.0.0 Safari/537.36 Edg/107.0.1418.35","WebKit","Edge","107.0.1418.35","Windows","10.0","1366","n","","bottlecap.jpg","4","Filler","true",""
"","","","","","fixation","43965","html-keyboard-response","115","226913","0.0-6.0-0.20","48","4","2022-11-17 12:19:31","fd252370c17a9971d68c1d4354a03c2e","","Mozilla/5.0 (Windows NT 10.0; Win64; x64) AppleWebKit/537.36 (KHTML, like Gecko) Chrome/107.0.0.0 Safari/537.36 Edg/107.0.1418.35","WebKit","Edge","107.0.1418.35","Windows","10.0","null","null","","<p style=""font-size: 48px;"">+</p>","4","Filler","",""
"","","","","","sentence","43965","html-keyboard-response","116","227975","0.0-6.0-1.20","48","4","2022-11-17 12:19:31","fd252370c17a9971d68c1d4354a03c2e","","Mozilla/5.0 (Windows NT 10.0; Win64; x64) AppleWebKit/537.36 (KHTML, like Gecko) Chrome/107.0.0.0 Safari/537.36 Edg/107.0.1418.35","WebKit","Edge","107.0.1418.35","Windows","10.0","1059"," ","","A parrot is eating an apple","4","Filler","",""
"","","","","","fixation","43965","html-keyboard-response","117","228481","0.0-6.0-2.20","48","4","2022-11-17 12:19:31","fd252370c17a9971d68c1d4354a03c2e","","Mozilla/5.0 (Windows NT 10.0; Win64; x64) AppleWebKit/537.36 (KHTML, like Gecko) Chrome/107.0.0.0 Safari/537.36 Edg/107.0.1418.35","WebKit","Edge","107.0.1418.35","Windows","10.0","null","null","","<p style=""font-size: 48px;"">+</p>","4","Filler","",""
"","","","","","picture","43965","image-keyboard-response","118","229456","0.0-6.0-3.20","48","4","2022-11-17 12:19:31","fd252370c17a9971d68c1d4354a03c2e","","Mozilla/5.0 (Windows NT 10.0; Win64; x64) AppleWebKit/537.36 (KHTML, like Gecko) Chrome/107.0.0.0 Safari/537.36 Edg/107.0.1418.35","WebKit","Edge","107.0.1418.35","Windows","10.0","971","n","","shirt.jpg","4","Filler","true",""
"","","","","","fixation","43965","html-keyboard-response","119","230470","0.0-6.0-0.21","48","4","2022-11-17 12:19:31","fd252370c17a9971d68c1d4354a03c2e","","Mozilla/5.0 (Windows NT 10.0; Win64; x64) AppleWebKit/537.36 (KHTML, like Gecko) Chrome/107.0.0.0 Safari/537.36 Edg/107.0.1418.35","WebKit","Edge","107.0.1418.35","Windows","10.0","null","null","","<p style=""font-size: 48px;"">+</p>","4","Filler","",""
"","","","","","sentence","43965","html-keyboard-response","120","231862","0.0-6.0-1.21","48","4","2022-11-17 12:19:31","fd252370c17a9971d68c1d4354a03c2e","","Mozilla/5.0 (Windows NT 10.0; Win64; x64) AppleWebKit/537.36 (KHTML, like Gecko) Chrome/107.0.0.0 Safari/537.36 Edg/107.0.1418.35","WebKit","Edge","107.0.1418.35","Windows","10.0","1389"," ","","A remote was placed on the rug","4","Filler","",""
"","","","","","fixation","43965","html-keyboard-response","121","232370","0.0-6.0-2.21","48","4","2022-11-17 12:19:31","fd252370c17a9971d68c1d4354a03c2e","","Mozilla/5.0 (Windows NT 10.0; Win64; x64) AppleWebKit/537.36 (KHTML, like Gecko) Chrome/107.0.0.0 Safari/537.36 Edg/107.0.1418.35","WebKit","Edge","107.0.1418.35","Windows","10.0","null","null","","<p style=""font-size: 48px;"">+</p>","4","Filler","",""
"","","","","","picture","43965","image-keyboard-response","122","235363","0.0-6.0-3.21","48","4","2022-11-17 12:19:31","fd252370c17a9971d68c1d4354a03c2e","","Mozilla/5.0 (Windows NT 10.0; Win64; x64) AppleWebKit/537.36 (KHTML, like Gecko) Chrome/107.0.0.0 Safari/537.36 Edg/107.0.1418.35","WebKit","Edge","107.0.1418.35","Windows","10.0","2989","n","","CD.jpg","4","Filler","true",""
"","","","","","fixation","43965","html-keyboard-response","123","236370","0.0-6.0-0.22","48","4","2022-11-17 12:19:31","fd252370c17a9971d68c1d4354a03c2e","","Mozilla/5.0 (Windows NT 10.0; Win64; x64) AppleWebKit/537.36 (KHTML, like Gecko) Chrome/107.0.0.0 Safari/537.36 Edg/107.0.1418.35","WebKit","Edge","107.0.1418.35","Windows","10.0","null","null","","<p style=""font-size: 48px;"">+</p>","4","Filler","",""
"","","","","","sentence","43965","html-keyboard-response","124","238431","0.0-6.0-1.22","48","4","2022-11-17 12:19:31","fd252370c17a9971d68c1d4354a03c2e","","Mozilla/5.0 (Windows NT 10.0; Win64; x64) AppleWebKit/537.36 (KHTML, like Gecko) Chrome/107.0.0.0 Safari/537.36 Edg/107.0.1418.35","WebKit","Edge","107.0.1418.35","Windows","10.0","2058"," ","","A watch was placed on the laptop","4","Filler","",""
"","","","","","fixation","43965","html-keyboard-response","125","238952","0.0-6.0-2.22","48","4","2022-11-17 12:19:31","fd252370c17a9971d68c1d4354a03c2e","","Mozilla/5.0 (Windows NT 10.0; Win64; x64) AppleWebKit/537.36 (KHTML, like Gecko) Chrome/107.0.0.0 Safari/537.36 Edg/107.0.1418.35","WebKit","Edge","107.0.1418.35","Windows","10.0","null","null","","<p style=""font-size: 48px;"">+</p>","4","Filler","",""
"","","","","","picture","43965","image-keyboard-response","126","239875","0.0-6.0-3.22","48","4","2022-11-17 12:19:31","fd252370c17a9971d68c1d4354a03c2e","","Mozilla/5.0 (Windows NT 10.0; Win64; x64) AppleWebKit/537.36 (KHTML, like Gecko) Chrome/107.0.0.0 Safari/537.36 Edg/107.0.1418.35","WebKit","Edge","107.0.1418.35","Windows","10.0","919","n","","bow.jpg","4","Filler","true",""
"","","","","","fixation","43965","html-keyboard-response","127","240883","0.0-6.0-0.23","48","4","2022-11-17 12:19:31","fd252370c17a9971d68c1d4354a03c2e","","Mozilla/5.0 (Windows NT 10.0; Win64; x64) AppleWebKit/537.36 (KHTML, like Gecko) Chrome/107.0.0.0 Safari/537.36 Edg/107.0.1418.35","WebKit","Edge","107.0.1418.35","Windows","10.0","null","null","","<p style=""font-size: 48px;"">+</p>","4","Filler","",""
"","","","","","sentence","43965","html-keyboard-response","128","241748","0.0-6.0-1.23","48","4","2022-11-17 12:19:31","fd252370c17a9971d68c1d4354a03c2e","","Mozilla/5.0 (Windows NT 10.0; Win64; x64) AppleWebKit/537.36 (KHTML, like Gecko) Chrome/107.0.0.0 Safari/537.36 Edg/107.0.1418.35","WebKit","Edge","107.0.1418.35","Windows","10.0","862"," ","","A boy is wearing a hat","4","Filler","",""
"","","","","","fixation","43965","html-keyboard-response","129","242259","0.0-6.0-2.23","48","4","2022-11-17 12:19:31","fd252370c17a9971d68c1d4354a03c2e","","Mozilla/5.0 (Windows NT 10.0; Win64; x64) AppleWebKit/537.36 (KHTML, like Gecko) Chrome/107.0.0.0 Safari/537.36 Edg/107.0.1418.35","WebKit","Edge","107.0.1418.35","Windows","10.0","null","null","","<p style=""font-size: 48px;"">+</p>","4","Filler","",""
"","","","","","picture","43965","image-keyboard-response","130","244463","0.0-6.0-3.23","48","4","2022-11-17 12:19:31","fd252370c17a9971d68c1d4354a03c2e","","Mozilla/5.0 (Windows NT 10.0; Win64; x64) AppleWebKit/537.36 (KHTML, like Gecko) Chrome/107.0.0.0 Safari/537.36 Edg/107.0.1418.35","WebKit","Edge","107.0.1418.35","Windows","10.0","2200","s","","hat.jpg","4","Filler","true",""
"","","","","","fixation","43965","html-keyboard-response","131","245474","0.0-6.0-0.24","48","4","2022-11-17 12:19:31","fd252370c17a9971d68c1d4354a03c2e","","Mozilla/5.0 (Windows NT 10.0; Win64; x64) AppleWebKit/537.36 (KHTML, like Gecko) Chrome/107.0.0.0 Safari/537.36 Edg/107.0.1418.35","WebKit","Edge","107.0.1418.35","Windows","10.0","null","null","","<p style=""font-size: 48px;"">+</p>","4","Heavy-Matched","",""
"","","","","","sentence","43965","html-keyboard-response","132","247149","0.0-6.0-1.24","48","4","2022-11-17 12:19:31","fd252370c17a9971d68c1d4354a03c2e","","Mozilla/5.0 (Windows NT 10.0; Win64; x64) AppleWebKit/537.36 (KHTML, like Gecko) Chrome/107.0.0.0 Safari/537.36 Edg/107.0.1418.35","WebKit","Edge","107.0.1418.35","Windows","10.0","1671"," ","","A bowling ball  dropped and smashed a vase","4","Heavy-Matched","",""
"","","","","","fixation","43965","html-keyboard-response","133","247659","0.0-6.0-2.24","48","4","2022-11-17 12:19:31","fd252370c17a9971d68c1d4354a03c2e","","Mozilla/5.0 (Windows NT 10.0; Win64; x64) AppleWebKit/537.36 (KHTML, like Gecko) Chrome/107.0.0.0 Safari/537.36 Edg/107.0.1418.35","WebKit","Edge","107.0.1418.35","Windows","10.0","null","null","","<p style=""font-size: 48px;"">+</p>","4","Heavy-Matched","",""
"","","","","","picture","43965","image-keyboard-response","134","248579","0.0-6.0-3.24","48","4","2022-11-17 12:19:31","fd252370c17a9971d68c1d4354a03c2e","","Mozilla/5.0 (Windows NT 10.0; Win64; x64) AppleWebKit/537.36 (KHTML, like Gecko) Chrome/107.0.0.0 Safari/537.36 Edg/107.0.1418.35","WebKit","Edge","107.0.1418.35","Windows","10.0","917","n","","vaseS.jpg","4","Heavy-Matched","false",""
"","","","","","fixation","43965","html-keyboard-response","135","249597","0.0-6.0-0.25","48","4","2022-11-17 12:19:31","fd252370c17a9971d68c1d4354a03c2e","","Mozilla/5.0 (Windows NT 10.0; Win64; x64) AppleWebKit/537.36 (KHTML, like Gecko) Chrome/107.0.0.0 Safari/537.36 Edg/107.0.1418.35","WebKit","Edge","107.0.1418.35","Windows","10.0","null","null","","<p style=""font-size: 48px;"">+</p>","4","Light-Matched","",""
"","","","","","sentence","43965","html-keyboard-response","136","252482","0.0-6.0-1.25","48","4","2022-11-17 12:19:31","fd252370c17a9971d68c1d4354a03c2e","","Mozilla/5.0 (Windows NT 10.0; Win64; x64) AppleWebKit/537.36 (KHTML, like Gecko) Chrome/107.0.0.0 Safari/537.36 Edg/107.0.1418.35","WebKit","Edge","107.0.1418.35","Windows","10.0","2882"," ","","A balloon dropped and touched a chocolate ice-cream","4","Light-Matched","",""
"","","","","","fixation","43965","html-keyboard-response","137","252986","0.0-6.0-2.25","48","4","2022-11-17 12:19:31","fd252370c17a9971d68c1d4354a03c2e","","Mozilla/5.0 (Windows NT 10.0; Win64; x64) AppleWebKit/537.36 (KHTML, like Gecko) Chrome/107.0.0.0 Safari/537.36 Edg/107.0.1418.35","WebKit","Edge","107.0.1418.35","Windows","10.0","null","null","","<p style=""font-size: 48px;"">+</p>","4","Light-Matched","",""
"","","","","","picture","43965","image-keyboard-response","138","255005","0.0-6.0-3.25","48","4","2022-11-17 12:19:31","fd252370c17a9971d68c1d4354a03c2e","","Mozilla/5.0 (Windows NT 10.0; Win64; x64) AppleWebKit/537.36 (KHTML, like Gecko) Chrome/107.0.0.0 Safari/537.36 Edg/107.0.1418.35","WebKit","Edge","107.0.1418.35","Windows","10.0","2015","s","","icecreamS.jpg","4","Light-Matched","true",""
"","","","","","fixation","43965","html-keyboard-response","139","256009","0.0-6.0-0.26","48","4","2022-11-17 12:19:31","fd252370c17a9971d68c1d4354a03c2e","","Mozilla/5.0 (Windows NT 10.0; Win64; x64) AppleWebKit/537.36 (KHTML, like Gecko) Chrome/107.0.0.0 Safari/537.36 Edg/107.0.1418.35","WebKit","Edge","107.0.1418.35","Windows","10.0","null","null","","<p style=""font-size: 48px;"">+</p>","4","Filler","",""
"","","","","","sentence","43965","html-keyboard-response","140","256869","0.0-6.0-1.26","48","4","2022-11-17 12:19:31","fd252370c17a9971d68c1d4354a03c2e","","Mozilla/5.0 (Windows NT 10.0; Win64; x64) AppleWebKit/537.36 (KHTML, like Gecko) Chrome/107.0.0.0 Safari/537.36 Edg/107.0.1418.35","WebKit","Edge","107.0.1418.35","Windows","10.0","856"," ","","A pilot is reading a book","4","Filler","",""
"","","","","","fixation","43965","html-keyboard-response","141","257383","0.0-6.0-2.26","48","4","2022-11-17 12:19:31","fd252370c17a9971d68c1d4354a03c2e","","Mozilla/5.0 (Windows NT 10.0; Win64; x64) AppleWebKit/537.36 (KHTML, like Gecko) Chrome/107.0.0.0 Safari/537.36 Edg/107.0.1418.35","WebKit","Edge","107.0.1418.35","Windows","10.0","null","null","","<p style=""font-size: 48px;"">+</p>","4","Filler","",""
"","","","","","picture","43965","image-keyboard-response","142","259114","0.0-6.0-3.26","48","4","2022-11-17 12:19:31","fd252370c17a9971d68c1d4354a03c2e","","Mozilla/5.0 (Windows NT 10.0; Win64; x64) AppleWebKit/537.36 (KHTML, like Gecko) Chrome/107.0.0.0 Safari/537.36 Edg/107.0.1418.35","WebKit","Edge","107.0.1418.35","Windows","10.0","1725","n","","spoon.jpg","4","Filler","true",""
"","","","","","fixation","43965","html-keyboard-response","143","260137","0.0-6.0-0.27","48","4","2022-11-17 12:19:31","fd252370c17a9971d68c1d4354a03c2e","","Mozilla/5.0 (Windows NT 10.0; Win64; x64) AppleWebKit/537.36 (KHTML, like Gecko) Chrome/107.0.0.0 Safari/537.36 Edg/107.0.1418.35","WebKit","Edge","107.0.1418.35","Windows","10.0","null","null","","<p style=""font-size: 48px;"">+</p>","4","Filler","",""
"","","","","","sentence","43965","html-keyboard-response","144","261398","0.0-6.0-1.27","48","4","2022-11-17 12:19:31","fd252370c17a9971d68c1d4354a03c2e","","Mozilla/5.0 (Windows NT 10.0; Win64; x64) AppleWebKit/537.36 (KHTML, like Gecko) Chrome/107.0.0.0 Safari/537.36 Edg/107.0.1418.35","WebKit","Edge","107.0.1418.35","Windows","10.0","1258"," ","","A photographer is taking a photo of a lion","4","Filler","",""
"","","","","","fixation","43965","html-keyboard-response","145","261906","0.0-6.0-2.27","48","4","2022-11-17 12:19:31","fd252370c17a9971d68c1d4354a03c2e","","Mozilla/5.0 (Windows NT 10.0; Win64; x64) AppleWebKit/537.36 (KHTML, like Gecko) Chrome/107.0.0.0 Safari/537.36 Edg/107.0.1418.35","WebKit","Edge","107.0.1418.35","Windows","10.0","null","null","","<p style=""font-size: 48px;"">+</p>","4","Filler","",""
"","","","","","picture","43965","image-keyboard-response","146","262814","0.0-6.0-3.27","48","4","2022-11-17 12:19:31","fd252370c17a9971d68c1d4354a03c2e","","Mozilla/5.0 (Windows NT 10.0; Win64; x64) AppleWebKit/537.36 (KHTML, like Gecko) Chrome/107.0.0.0 Safari/537.36 Edg/107.0.1418.35","WebKit","Edge","107.0.1418.35","Windows","10.0","900","s","","lion.jpg","4","Filler","true",""
"","","","","","fixation","43965","html-keyboard-response","147","263825","0.0-6.0-0.28","48","4","2022-11-17 12:19:31","fd252370c17a9971d68c1d4354a03c2e","","Mozilla/5.0 (Windows NT 10.0; Win64; x64) AppleWebKit/537.36 (KHTML, like Gecko) Chrome/107.0.0.0 Safari/537.36 Edg/107.0.1418.35","WebKit","Edge","107.0.1418.35","Windows","10.0","null","null","","<p style=""font-size: 48px;"">+</p>","4","Filler","",""
"","","","","","sentence","43965","html-keyboard-response","148","265284","0.0-6.0-1.28","48","4","2022-11-17 12:19:31","fd252370c17a9971d68c1d4354a03c2e","","Mozilla/5.0 (Windows NT 10.0; Win64; x64) AppleWebKit/537.36 (KHTML, like Gecko) Chrome/107.0.0.0 Safari/537.36 Edg/107.0.1418.35","WebKit","Edge","107.0.1418.35","Windows","10.0","1455"," ","","A towel was placed on the TV","4","Filler","",""
"","","","","","fixation","43965","html-keyboard-response","149","265800","0.0-6.0-2.28","48","4","2022-11-17 12:19:31","fd252370c17a9971d68c1d4354a03c2e","","Mozilla/5.0 (Windows NT 10.0; Win64; x64) AppleWebKit/537.36 (KHTML, like Gecko) Chrome/107.0.0.0 Safari/537.36 Edg/107.0.1418.35","WebKit","Edge","107.0.1418.35","Windows","10.0","null","null","","<p style=""font-size: 48px;"">+</p>","4","Filler","",""
"","","","","","picture","43965","image-keyboard-response","150","266704","0.0-6.0-3.28","48","4","2022-11-17 12:19:31","fd252370c17a9971d68c1d4354a03c2e","","Mozilla/5.0 (Windows NT 10.0; Win64; x64) AppleWebKit/537.36 (KHTML, like Gecko) Chrome/107.0.0.0 Safari/537.36 Edg/107.0.1418.35","WebKit","Edge","107.0.1418.35","Windows","10.0","899","n","","pencil.jpg","4","Filler","true",""
"","","","","","fixation","43965","html-keyboard-response","151","267714","0.0-6.0-0.29","48","4","2022-11-17 12:19:31","fd252370c17a9971d68c1d4354a03c2e","","Mozilla/5.0 (Windows NT 10.0; Win64; x64) AppleWebKit/537.36 (KHTML, like Gecko) Chrome/107.0.0.0 Safari/537.36 Edg/107.0.1418.35","WebKit","Edge","107.0.1418.35","Windows","10.0","null","null","","<p style=""font-size: 48px;"">+</p>","4","Light-Matched","",""
"","","","","","sentence","43965","html-keyboard-response","152","268965","0.0-6.0-1.29","48","4","2022-11-17 12:19:31","fd252370c17a9971d68c1d4354a03c2e","","Mozilla/5.0 (Windows NT 10.0; Win64; x64) AppleWebKit/537.36 (KHTML, like Gecko) Chrome/107.0.0.0 Safari/537.36 Edg/107.0.1418.35","WebKit","Edge","107.0.1418.35","Windows","10.0","1247"," ","","A balloon dropped and touched an egg flan","4","Light-Matched","",""
"","","","","","fixation","43965","html-keyboard-response","153","269474","0.0-6.0-2.29","48","4","2022-11-17 12:19:31","fd252370c17a9971d68c1d4354a03c2e","","Mozilla/5.0 (Windows NT 10.0; Win64; x64) AppleWebKit/537.36 (KHTML, like Gecko) Chrome/107.0.0.0 Safari/537.36 Edg/107.0.1418.35","WebKit","Edge","107.0.1418.35","Windows","10.0","null","null","","<p style=""font-size: 48px;"">+</p>","4","Light-Matched","",""
"","","","","","picture","43965","image-keyboard-response","154","271255","0.0-6.0-3.29","48","4","2022-11-17 12:19:31","fd252370c17a9971d68c1d4354a03c2e","","Mozilla/5.0 (Windows NT 10.0; Win64; x64) AppleWebKit/537.36 (KHTML, like Gecko) Chrome/107.0.0.0 Safari/537.36 Edg/107.0.1418.35","WebKit","Edge","107.0.1418.35","Windows","10.0","1776","s","","eggflanS.jpg","4","Light-Matched","true",""
"","","","","","fixation","43965","html-keyboard-response","155","272265","0.0-6.0-0.30","48","4","2022-11-17 12:19:31","fd252370c17a9971d68c1d4354a03c2e","","Mozilla/5.0 (Windows NT 10.0; Win64; x64) AppleWebKit/537.36 (KHTML, like Gecko) Chrome/107.0.0.0 Safari/537.36 Edg/107.0.1418.35","WebKit","Edge","107.0.1418.35","Windows","10.0","null","null","","<p style=""font-size: 48px;"">+</p>","4","Filler","",""
"","","","","","sentence","43965","html-keyboard-response","156","273647","0.0-6.0-1.30","48","4","2022-11-17 12:19:31","fd252370c17a9971d68c1d4354a03c2e","","Mozilla/5.0 (Windows NT 10.0; Win64; x64) AppleWebKit/537.36 (KHTML, like Gecko) Chrome/107.0.0.0 Safari/537.36 Edg/107.0.1418.35","WebKit","Edge","107.0.1418.35","Windows","10.0","1378"," ","","A cushion was placed on the magazine","4","Filler","",""
"","","","","","fixation","43965","html-keyboard-response","157","274154","0.0-6.0-2.30","48","4","2022-11-17 12:19:31","fd252370c17a9971d68c1d4354a03c2e","","Mozilla/5.0 (Windows NT 10.0; Win64; x64) AppleWebKit/537.36 (KHTML, like Gecko) Chrome/107.0.0.0 Safari/537.36 Edg/107.0.1418.35","WebKit","Edge","107.0.1418.35","Windows","10.0","null","null","","<p style=""font-size: 48px;"">+</p>","4","Filler","",""
"","","","","","picture","43965","image-keyboard-response","158","276405","0.0-6.0-3.30","48","4","2022-11-17 12:19:31","fd252370c17a9971d68c1d4354a03c2e","","Mozilla/5.0 (Windows NT 10.0; Win64; x64) AppleWebKit/537.36 (KHTML, like Gecko) Chrome/107.0.0.0 Safari/537.36 Edg/107.0.1418.35","WebKit","Edge","107.0.1418.35","Windows","10.0","2245","n","","box.jpg","4","Filler","true",""
"","","","","","fixation","43965","html-keyboard-response","159","277418","0.0-6.0-0.31","48","4","2022-11-17 12:19:31","fd252370c17a9971d68c1d4354a03c2e","","Mozilla/5.0 (Windows NT 10.0; Win64; x64) AppleWebKit/537.36 (KHTML, like Gecko) Chrome/107.0.0.0 Safari/537.36 Edg/107.0.1418.35","WebKit","Edge","107.0.1418.35","Windows","10.0","null","null","","<p style=""font-size: 48px;"">+</p>","4","Filler","",""
"","","","","","sentence","43965","html-keyboard-response","160","279202","0.0-6.0-1.31","48","4","2022-11-17 12:19:31","fd252370c17a9971d68c1d4354a03c2e","","Mozilla/5.0 (Windows NT 10.0; Win64; x64) AppleWebKit/537.36 (KHTML, like Gecko) Chrome/107.0.0.0 Safari/537.36 Edg/107.0.1418.35","WebKit","Edge","107.0.1418.35","Windows","10.0","1780"," ","","A horse is chewing hay","4","Filler","",""
"","","","","","fixation","43965","html-keyboard-response","161","279716","0.0-6.0-2.31","48","4","2022-11-17 12:19:31","fd252370c17a9971d68c1d4354a03c2e","","Mozilla/5.0 (Windows NT 10.0; Win64; x64) AppleWebKit/537.36 (KHTML, like Gecko) Chrome/107.0.0.0 Safari/537.36 Edg/107.0.1418.35","WebKit","Edge","107.0.1418.35","Windows","10.0","null","null","","<p style=""font-size: 48px;"">+</p>","4","Filler","",""
"","","","","","picture","43965","image-keyboard-response","162","280552","0.0-6.0-3.31","48","4","2022-11-17 12:19:31","fd252370c17a9971d68c1d4354a03c2e","","Mozilla/5.0 (Windows NT 10.0; Win64; x64) AppleWebKit/537.36 (KHTML, like Gecko) Chrome/107.0.0.0 Safari/537.36 Edg/107.0.1418.35","WebKit","Edge","107.0.1418.35","Windows","10.0","832","n","","purse.jpg","4","Filler","true",""
"","","","","","fixation","43965","html-keyboard-response","163","281563","0.0-6.0-0.32","48","4","2022-11-17 12:19:31","fd252370c17a9971d68c1d4354a03c2e","","Mozilla/5.0 (Windows NT 10.0; Win64; x64) AppleWebKit/537.36 (KHTML, like Gecko) Chrome/107.0.0.0 Safari/537.36 Edg/107.0.1418.35","WebKit","Edge","107.0.1418.35","Windows","10.0","null","null","","<p style=""font-size: 48px;"">+</p>","4","Heavy-Matched","",""
"","","","","","sentence","43965","html-keyboard-response","164","283824","0.0-6.0-1.32","48","4","2022-11-17 12:19:31","fd252370c17a9971d68c1d4354a03c2e","","Mozilla/5.0 (Windows NT 10.0; Win64; x64) AppleWebKit/537.36 (KHTML, like Gecko) Chrome/107.0.0.0 Safari/537.36 Edg/107.0.1418.35","WebKit","Edge","107.0.1418.35","Windows","10.0","2257"," ","","A bowling ball dropped and smashed a strawberry","4","Heavy-Matched","",""
"","","","","","fixation","43965","html-keyboard-response","165","284329","0.0-6.0-2.32","48","4","2022-11-17 12:19:31","fd252370c17a9971d68c1d4354a03c2e","","Mozilla/5.0 (Windows NT 10.0; Win64; x64) AppleWebKit/537.36 (KHTML, like Gecko) Chrome/107.0.0.0 Safari/537.36 Edg/107.0.1418.35","WebKit","Edge","107.0.1418.35","Windows","10.0","null","null","","<p style=""font-size: 48px;"">+</p>","4","Heavy-Matched","",""
"","","","","","picture","43965","image-keyboard-response","166","286194","0.0-6.0-3.32","48","4","2022-11-17 12:19:31","fd252370c17a9971d68c1d4354a03c2e","","Mozilla/5.0 (Windows NT 10.0; Win64; x64) AppleWebKit/537.36 (KHTML, like Gecko) Chrome/107.0.0.0 Safari/537.36 Edg/107.0.1418.35","WebKit","Edge","107.0.1418.35","Windows","10.0","1861","s","","strawberryS.jpg","4","Heavy-Matched","true",""
"","","","","","fixation","43965","html-keyboard-response","167","287201","0.0-6.0-0.33","48","4","2022-11-17 12:19:31","fd252370c17a9971d68c1d4354a03c2e","","Mozilla/5.0 (Windows NT 10.0; Win64; x64) AppleWebKit/537.36 (KHTML, like Gecko) Chrome/107.0.0.0 Safari/537.36 Edg/107.0.1418.35","WebKit","Edge","107.0.1418.35","Windows","10.0","null","null","","<p style=""font-size: 48px;"">+</p>","4","Filler","",""
"","","","","","sentence","43965","html-keyboard-response","168","288712","0.0-6.0-1.33","48","4","2022-11-17 12:19:31","fd252370c17a9971d68c1d4354a03c2e","","Mozilla/5.0 (Windows NT 10.0; Win64; x64) AppleWebKit/537.36 (KHTML, like Gecko) Chrome/107.0.0.0 Safari/537.36 Edg/107.0.1418.35","WebKit","Edge","107.0.1418.35","Windows","10.0","1507"," ","","An astronaut is putting on a space suit","4","Filler","",""
"","","","","","fixation","43965","html-keyboard-response","169","289218","0.0-6.0-2.33","48","4","2022-11-17 12:19:31","fd252370c17a9971d68c1d4354a03c2e","","Mozilla/5.0 (Windows NT 10.0; Win64; x64) AppleWebKit/537.36 (KHTML, like Gecko) Chrome/107.0.0.0 Safari/537.36 Edg/107.0.1418.35","WebKit","Edge","107.0.1418.35","Windows","10.0","null","null","","<p style=""font-size: 48px;"">+</p>","4","Filler","",""
"","","","","","picture","43965","image-keyboard-response","170","290412","0.0-6.0-3.33","48","4","2022-11-17 12:19:31","fd252370c17a9971d68c1d4354a03c2e","","Mozilla/5.0 (Windows NT 10.0; Win64; x64) AppleWebKit/537.36 (KHTML, like Gecko) Chrome/107.0.0.0 Safari/537.36 Edg/107.0.1418.35","WebKit","Edge","107.0.1418.35","Windows","10.0","1190","s","","spacesuit.jpg","4","Filler","true",""
"","","","","","fixation","43965","html-keyboard-response","171","291418","0.0-6.0-0.34","48","4","2022-11-17 12:19:31","fd252370c17a9971d68c1d4354a03c2e","","Mozilla/5.0 (Windows NT 10.0; Win64; x64) AppleWebKit/537.36 (KHTML, like Gecko) Chrome/107.0.0.0 Safari/537.36 Edg/107.0.1418.35","WebKit","Edge","107.0.1418.35","Windows","10.0","null","null","","<p style=""font-size: 48px;"">+</p>","4","Filler","",""
"","","","","","sentence","43965","html-keyboard-response","172","292817","0.0-6.0-1.34","48","4","2022-11-17 12:19:31","fd252370c17a9971d68c1d4354a03c2e","","Mozilla/5.0 (Windows NT 10.0; Win64; x64) AppleWebKit/537.36 (KHTML, like Gecko) Chrome/107.0.0.0 Safari/537.36 Edg/107.0.1418.35","WebKit","Edge","107.0.1418.35","Windows","10.0","1396"," ","","A panda is resting on a tree","4","Filler","",""
"","","","","","fixation","43965","html-keyboard-response","173","293321","0.0-6.0-2.34","48","4","2022-11-17 12:19:31","fd252370c17a9971d68c1d4354a03c2e","","Mozilla/5.0 (Windows NT 10.0; Win64; x64) AppleWebKit/537.36 (KHTML, like Gecko) Chrome/107.0.0.0 Safari/537.36 Edg/107.0.1418.35","WebKit","Edge","107.0.1418.35","Windows","10.0","null","null","","<p style=""font-size: 48px;"">+</p>","4","Filler","",""
"","","","","","picture","43965","image-keyboard-response","174","294092","0.0-6.0-3.34","48","4","2022-11-17 12:19:31","fd252370c17a9971d68c1d4354a03c2e","","Mozilla/5.0 (Windows NT 10.0; Win64; x64) AppleWebKit/537.36 (KHTML, like Gecko) Chrome/107.0.0.0 Safari/537.36 Edg/107.0.1418.35","WebKit","Edge","107.0.1418.35","Windows","10.0","767","n","","dollar.jpg","4","Filler","true",""
"","","","","","fixation","43965","html-keyboard-response","175","295099","0.0-6.0-0.35","48","4","2022-11-17 12:19:31","fd252370c17a9971d68c1d4354a03c2e","","Mozilla/5.0 (Windows NT 10.0; Win64; x64) AppleWebKit/537.36 (KHTML, like Gecko) Chrome/107.0.0.0 Safari/537.36 Edg/107.0.1418.35","WebKit","Edge","107.0.1418.35","Windows","10.0","null","null","","<p style=""font-size: 48px;"">+</p>","4","Filler","",""
"","","","","","sentence","43965","html-keyboard-response","176","297067","0.0-6.0-1.35","48","4","2022-11-17 12:19:31","fd252370c17a9971d68c1d4354a03c2e","","Mozilla/5.0 (Windows NT 10.0; Win64; x64) AppleWebKit/537.36 (KHTML, like Gecko) Chrome/107.0.0.0 Safari/537.36 Edg/107.0.1418.35","WebKit","Edge","107.0.1418.35","Windows","10.0","1966"," ","","A mouse is eating cheese","4","Filler","",""
"","","","","","fixation","43965","html-keyboard-response","177","297580","0.0-6.0-2.35","48","4","2022-11-17 12:19:31","fd252370c17a9971d68c1d4354a03c2e","","Mozilla/5.0 (Windows NT 10.0; Win64; x64) AppleWebKit/537.36 (KHTML, like Gecko) Chrome/107.0.0.0 Safari/537.36 Edg/107.0.1418.35","WebKit","Edge","107.0.1418.35","Windows","10.0","null","null","","<p style=""font-size: 48px;"">+</p>","4","Filler","",""
"","","","","","picture","43965","image-keyboard-response","178","298610","0.0-6.0-3.35","48","4","2022-11-17 12:19:31","fd252370c17a9971d68c1d4354a03c2e","","Mozilla/5.0 (Windows NT 10.0; Win64; x64) AppleWebKit/537.36 (KHTML, like Gecko) Chrome/107.0.0.0 Safari/537.36 Edg/107.0.1418.35","WebKit","Edge","107.0.1418.35","Windows","10.0","1026","n","","ring.jpg","4","Filler","true",""
"","","","","","fixation","43965","html-keyboard-response","179","299618","0.0-6.0-0.36","48","4","2022-11-17 12:19:31","fd252370c17a9971d68c1d4354a03c2e","","Mozilla/5.0 (Windows NT 10.0; Win64; x64) AppleWebKit/537.36 (KHTML, like Gecko) Chrome/107.0.0.0 Safari/537.36 Edg/107.0.1418.35","WebKit","Edge","107.0.1418.35","Windows","10.0","null","null","","<p style=""font-size: 48px;"">+</p>","4","Filler","",""
"","","","","","sentence","43965","html-keyboard-response","180","300830","0.0-6.0-1.36","48","4","2022-11-17 12:19:31","fd252370c17a9971d68c1d4354a03c2e","","Mozilla/5.0 (Windows NT 10.0; Win64; x64) AppleWebKit/537.36 (KHTML, like Gecko) Chrome/107.0.0.0 Safari/537.36 Edg/107.0.1418.35","WebKit","Edge","107.0.1418.35","Windows","10.0","1209"," ","","A donkey is drinking water.","4","Filler","",""
"","","","","","fixation","43965","html-keyboard-response","181","301339","0.0-6.0-2.36","48","4","2022-11-17 12:19:31","fd252370c17a9971d68c1d4354a03c2e","","Mozilla/5.0 (Windows NT 10.0; Win64; x64) AppleWebKit/537.36 (KHTML, like Gecko) Chrome/107.0.0.0 Safari/537.36 Edg/107.0.1418.35","WebKit","Edge","107.0.1418.35","Windows","10.0","null","null","","<p style=""font-size: 48px;"">+</p>","4","Filler","",""
"","","","","","picture","43965","image-keyboard-response","182","302472","0.0-6.0-3.36","48","4","2022-11-17 12:19:31","fd252370c17a9971d68c1d4354a03c2e","","Mozilla/5.0 (Windows NT 10.0; Win64; x64) AppleWebKit/537.36 (KHTML, like Gecko) Chrome/107.0.0.0 Safari/537.36 Edg/107.0.1418.35","WebKit","Edge","107.0.1418.35","Windows","10.0","1128","n","","couch.jpg","4","Filler","true",""
"","","","","","fixation","43965","html-keyboard-response","183","303491","0.0-6.0-0.37","48","4","2022-11-17 12:19:31","fd252370c17a9971d68c1d4354a03c2e","","Mozilla/5.0 (Windows NT 10.0; Win64; x64) AppleWebKit/537.36 (KHTML, like Gecko) Chrome/107.0.0.0 Safari/537.36 Edg/107.0.1418.35","WebKit","Edge","107.0.1418.35","Windows","10.0","null","null","","<p style=""font-size: 48px;"">+</p>","4","Filler","",""
"","","","","","sentence","43965","html-keyboard-response","184","304660","0.0-6.0-1.37","48","4","2022-11-17 12:19:31","fd252370c17a9971d68c1d4354a03c2e","","Mozilla/5.0 (Windows NT 10.0; Win64; x64) AppleWebKit/537.36 (KHTML, like Gecko) Chrome/107.0.0.0 Safari/537.36 Edg/107.0.1418.35","WebKit","Edge","107.0.1418.35","Windows","10.0","1166"," ","","A fork was placed on the plate","4","Filler","",""
"","","","","","fixation","43965","html-keyboard-response","185","305169","0.0-6.0-2.37","48","4","2022-11-17 12:19:31","fd252370c17a9971d68c1d4354a03c2e","","Mozilla/5.0 (Windows NT 10.0; Win64; x64) AppleWebKit/537.36 (KHTML, like Gecko) Chrome/107.0.0.0 Safari/537.36 Edg/107.0.1418.35","WebKit","Edge","107.0.1418.35","Windows","10.0","null","null","","<p style=""font-size: 48px;"">+</p>","4","Filler","",""
"","","","","","picture","43965","image-keyboard-response","186","306960","0.0-6.0-3.37","48","4","2022-11-17 12:19:31","fd252370c17a9971d68c1d4354a03c2e","","Mozilla/5.0 (Windows NT 10.0; Win64; x64) AppleWebKit/537.36 (KHTML, like Gecko) Chrome/107.0.0.0 Safari/537.36 Edg/107.0.1418.35","WebKit","Edge","107.0.1418.35","Windows","10.0","1787","s","","plate.jpg","4","Filler","true",""
"","","","","","fixation","43965","html-keyboard-response","187","307970","0.0-6.0-0.38","48","4","2022-11-17 12:19:31","fd252370c17a9971d68c1d4354a03c2e","","Mozilla/5.0 (Windows NT 10.0; Win64; x64) AppleWebKit/537.36 (KHTML, like Gecko) Chrome/107.0.0.0 Safari/537.36 Edg/107.0.1418.35","WebKit","Edge","107.0.1418.35","Windows","10.0","null","null","","<p style=""font-size: 48px;"">+</p>","4","Filler","",""
"","","","","","sentence","43965","html-keyboard-response","188","310462","0.0-6.0-1.38","48","4","2022-11-17 12:19:31","fd252370c17a9971d68c1d4354a03c2e","","Mozilla/5.0 (Windows NT 10.0; Win64; x64) AppleWebKit/537.36 (KHTML, like Gecko) Chrome/107.0.0.0 Safari/537.36 Edg/107.0.1418.35","WebKit","Edge","107.0.1418.35","Windows","10.0","2489"," ","","A hairdresser is taking scissors","4","Filler","",""
"","","","","","fixation","43965","html-keyboard-response","189","310970","0.0-6.0-2.38","48","4","2022-11-17 12:19:31","fd252370c17a9971d68c1d4354a03c2e","","Mozilla/5.0 (Windows NT 10.0; Win64; x64) AppleWebKit/537.36 (KHTML, like Gecko) Chrome/107.0.0.0 Safari/537.36 Edg/107.0.1418.35","WebKit","Edge","107.0.1418.35","Windows","10.0","null","null","","<p style=""font-size: 48px;"">+</p>","4","Filler","",""
"","","","","","picture","43965","image-keyboard-response","190","311954","0.0-6.0-3.38","48","4","2022-11-17 12:19:31","fd252370c17a9971d68c1d4354a03c2e","","Mozilla/5.0 (Windows NT 10.0; Win64; x64) AppleWebKit/537.36 (KHTML, like Gecko) Chrome/107.0.0.0 Safari/537.36 Edg/107.0.1418.35","WebKit","Edge","107.0.1418.35","Windows","10.0","980","n","","sock.jpg","4","Filler","true",""
"","","","","","fixation","43965","html-keyboard-response","191","312962","0.0-6.0-0.39","48","4","2022-11-17 12:19:31","fd252370c17a9971d68c1d4354a03c2e","","Mozilla/5.0 (Windows NT 10.0; Win64; x64) AppleWebKit/537.36 (KHTML, like Gecko) Chrome/107.0.0.0 Safari/537.36 Edg/107.0.1418.35","WebKit","Edge","107.0.1418.35","Windows","10.0","null","null","","<p style=""font-size: 48px;"">+</p>","4","Filler","",""
"","","","","","sentence","43965","html-keyboard-response","192","314131","0.0-6.0-1.39","48","4","2022-11-17 12:19:31","fd252370c17a9971d68c1d4354a03c2e","","Mozilla/5.0 (Windows NT 10.0; Win64; x64) AppleWebKit/537.36 (KHTML, like Gecko) Chrome/107.0.0.0 Safari/537.36 Edg/107.0.1418.35","WebKit","Edge","107.0.1418.35","Windows","10.0","1165"," ","","A kitten is playing in the sandbox","4","Filler","",""
"","","","","","fixation","43965","html-keyboard-response","193","314642","0.0-6.0-2.39","48","4","2022-11-17 12:19:31","fd252370c17a9971d68c1d4354a03c2e","","Mozilla/5.0 (Windows NT 10.0; Win64; x64) AppleWebKit/537.36 (KHTML, like Gecko) Chrome/107.0.0.0 Safari/537.36 Edg/107.0.1418.35","WebKit","Edge","107.0.1418.35","Windows","10.0","null","null","","<p style=""font-size: 48px;"">+</p>","4","Filler","",""
"","","","","","picture","43965","image-keyboard-response","194","316679","0.0-6.0-3.39","48","4","2022-11-17 12:19:31","fd252370c17a9971d68c1d4354a03c2e","","Mozilla/5.0 (Windows NT 10.0; Win64; x64) AppleWebKit/537.36 (KHTML, like Gecko) Chrome/107.0.0.0 Safari/537.36 Edg/107.0.1418.35","WebKit","Edge","107.0.1418.35","Windows","10.0","2033","n","","dustbin.jpg","4","Filler","true",""
"","","","","","fixation","43965","html-keyboard-response","195","317689","0.0-6.0-0.40","48","4","2022-11-17 12:19:31","fd252370c17a9971d68c1d4354a03c2e","","Mozilla/5.0 (Windows NT 10.0; Win64; x64) AppleWebKit/537.36 (KHTML, like Gecko) Chrome/107.0.0.0 Safari/537.36 Edg/107.0.1418.35","WebKit","Edge","107.0.1418.35","Windows","10.0","null","null","","<p style=""font-size: 48px;"">+</p>","4","Filler","",""
"","","","","","sentence","43965","html-keyboard-response","196","319010","0.0-6.0-1.40","48","4","2022-11-17 12:19:31","fd252370c17a9971d68c1d4354a03c2e","","Mozilla/5.0 (Windows NT 10.0; Win64; x64) AppleWebKit/537.36 (KHTML, like Gecko) Chrome/107.0.0.0 Safari/537.36 Edg/107.0.1418.35","WebKit","Edge","107.0.1418.35","Windows","10.0","1317"," ","","An elephant is eating a watermelon","4","Filler","",""
"","","","","","fixation","43965","html-keyboard-response","197","319527","0.0-6.0-2.40","48","4","2022-11-17 12:19:31","fd252370c17a9971d68c1d4354a03c2e","","Mozilla/5.0 (Windows NT 10.0; Win64; x64) AppleWebKit/537.36 (KHTML, like Gecko) Chrome/107.0.0.0 Safari/537.36 Edg/107.0.1418.35","WebKit","Edge","107.0.1418.35","Windows","10.0","null","null","","<p style=""font-size: 48px;"">+</p>","4","Filler","",""
"","","","","","picture","43965","image-keyboard-response","198","321196","0.0-6.0-3.40","48","4","2022-11-17 12:19:31","fd252370c17a9971d68c1d4354a03c2e","","Mozilla/5.0 (Windows NT 10.0; Win64; x64) AppleWebKit/537.36 (KHTML, like Gecko) Chrome/107.0.0.0 Safari/537.36 Edg/107.0.1418.35","WebKit","Edge","107.0.1418.35","Windows","10.0","1664","s","","watermelon.jpg","4","Filler","true",""
"","","","","","fixation","43965","html-keyboard-response","199","322216","0.0-6.0-0.41","48","4","2022-11-17 12:19:31","fd252370c17a9971d68c1d4354a03c2e","","Mozilla/5.0 (Windows NT 10.0; Win64; x64) AppleWebKit/537.36 (KHTML, like Gecko) Chrome/107.0.0.0 Safari/537.36 Edg/107.0.1418.35","WebKit","Edge","107.0.1418.35","Windows","10.0","null","null","","<p style=""font-size: 48px;"">+</p>","4","Filler","",""
"","","","","","sentence","43965","html-keyboard-response","200","323363","0.0-6.0-1.41","48","4","2022-11-17 12:19:31","fd252370c17a9971d68c1d4354a03c2e","","Mozilla/5.0 (Windows NT 10.0; Win64; x64) AppleWebKit/537.36 (KHTML, like Gecko) Chrome/107.0.0.0 Safari/537.36 Edg/107.0.1418.35","WebKit","Edge","107.0.1418.35","Windows","10.0","1142"," ","","A musician is playing a guitar","4","Filler","",""
"","","","","","fixation","43965","html-keyboard-response","201","323877","0.0-6.0-2.41","48","4","2022-11-17 12:19:31","fd252370c17a9971d68c1d4354a03c2e","","Mozilla/5.0 (Windows NT 10.0; Win64; x64) AppleWebKit/537.36 (KHTML, like Gecko) Chrome/107.0.0.0 Safari/537.36 Edg/107.0.1418.35","WebKit","Edge","107.0.1418.35","Windows","10.0","null","null","","<p style=""font-size: 48px;"">+</p>","4","Filler","",""
"","","","","","picture","43965","image-keyboard-response","202","325218","0.0-6.0-3.41","48","4","2022-11-17 12:19:31","fd252370c17a9971d68c1d4354a03c2e","","Mozilla/5.0 (Windows NT 10.0; Win64; x64) AppleWebKit/537.36 (KHTML, like Gecko) Chrome/107.0.0.0 Safari/537.36 Edg/107.0.1418.35","WebKit","Edge","107.0.1418.35","Windows","10.0","1336","s","","guitar.jpg","4","Filler","true",""
"","","","","","fixation","43965","html-keyboard-response","203","326226","0.0-6.0-0.42","48","4","2022-11-17 12:19:31","fd252370c17a9971d68c1d4354a03c2e","","Mozilla/5.0 (Windows NT 10.0; Win64; x64) AppleWebKit/537.36 (KHTML, like Gecko) Chrome/107.0.0.0 Safari/537.36 Edg/107.0.1418.35","WebKit","Edge","107.0.1418.35","Windows","10.0","null","null","","<p style=""font-size: 48px;"">+</p>","4","Heavy-Matched","",""
"","","","","","sentence","43965","html-keyboard-response","204","328208","0.0-6.0-1.42","48","4","2022-11-17 12:19:31","fd252370c17a9971d68c1d4354a03c2e","","Mozilla/5.0 (Windows NT 10.0; Win64; x64) AppleWebKit/537.36 (KHTML, like Gecko) Chrome/107.0.0.0 Safari/537.36 Edg/107.0.1418.35","WebKit","Edge","107.0.1418.35","Windows","10.0","1977"," ","","A bowling ball  dropped and smashed a tomato","4","Heavy-Matched","",""
"","","","","","fixation","43965","html-keyboard-response","205","328714","0.0-6.0-2.42","48","4","2022-11-17 12:19:31","fd252370c17a9971d68c1d4354a03c2e","","Mozilla/5.0 (Windows NT 10.0; Win64; x64) AppleWebKit/537.36 (KHTML, like Gecko) Chrome/107.0.0.0 Safari/537.36 Edg/107.0.1418.35","WebKit","Edge","107.0.1418.35","Windows","10.0","null","null","","<p style=""font-size: 48px;"">+</p>","4","Heavy-Matched","",""
"","","","","","picture","43965","image-keyboard-response","206","330052","0.0-6.0-3.42","48","4","2022-11-17 12:19:31","fd252370c17a9971d68c1d4354a03c2e","","Mozilla/5.0 (Windows NT 10.0; Win64; x64) AppleWebKit/537.36 (KHTML, like Gecko) Chrome/107.0.0.0 Safari/537.36 Edg/107.0.1418.35","WebKit","Edge","107.0.1418.35","Windows","10.0","1334","s","","tomatoS.jpg","4","Heavy-Matched","true",""
"","","","","","fixation","43965","html-keyboard-response","207","331065","0.0-6.0-0.43","48","4","2022-11-17 12:19:31","fd252370c17a9971d68c1d4354a03c2e","","Mozilla/5.0 (Windows NT 10.0; Win64; x64) AppleWebKit/537.36 (KHTML, like Gecko) Chrome/107.0.0.0 Safari/537.36 Edg/107.0.1418.35","WebKit","Edge","107.0.1418.35","Windows","10.0","null","null","","<p style=""font-size: 48px;"">+</p>","4","Filler","",""
"","","","","","sentence","43965","html-keyboard-response","208","332964","0.0-6.0-1.43","48","4","2022-11-17 12:19:31","fd252370c17a9971d68c1d4354a03c2e","","Mozilla/5.0 (Windows NT 10.0; Win64; x64) AppleWebKit/537.36 (KHTML, like Gecko) Chrome/107.0.0.0 Safari/537.36 Edg/107.0.1418.35","WebKit","Edge","107.0.1418.35","Windows","10.0","1894"," ","","A puppy is playing with a ball","4","Filler","",""
"","","","","","fixation","43965","html-keyboard-response","209","333470","0.0-6.0-2.43","48","4","2022-11-17 12:19:31","fd252370c17a9971d68c1d4354a03c2e","","Mozilla/5.0 (Windows NT 10.0; Win64; x64) AppleWebKit/537.36 (KHTML, like Gecko) Chrome/107.0.0.0 Safari/537.36 Edg/107.0.1418.35","WebKit","Edge","107.0.1418.35","Windows","10.0","null","null","","<p style=""font-size: 48px;"">+</p>","4","Filler","",""
"","","","","","picture","43965","image-keyboard-response","210","334589","0.0-6.0-3.43","48","4","2022-11-17 12:19:31","fd252370c17a9971d68c1d4354a03c2e","","Mozilla/5.0 (Windows NT 10.0; Win64; x64) AppleWebKit/537.36 (KHTML, like Gecko) Chrome/107.0.0.0 Safari/537.36 Edg/107.0.1418.35","WebKit","Edge","107.0.1418.35","Windows","10.0","1113","s","","tennisball.jpg","4","Filler","true",""
"","","","","","fixation","43965","html-keyboard-response","211","335602","0.0-6.0-0.44","48","4","2022-11-17 12:19:31","fd252370c17a9971d68c1d4354a03c2e","","Mozilla/5.0 (Windows NT 10.0; Win64; x64) AppleWebKit/537.36 (KHTML, like Gecko) Chrome/107.0.0.0 Safari/537.36 Edg/107.0.1418.35","WebKit","Edge","107.0.1418.35","Windows","10.0","null","null","","<p style=""font-size: 48px;"">+</p>","4","Filler","",""
"","","","","","sentence","43965","html-keyboard-response","212","336746","0.0-6.0-1.44","48","4","2022-11-17 12:19:31","fd252370c17a9971d68c1d4354a03c2e","","Mozilla/5.0 (Windows NT 10.0; Win64; x64) AppleWebKit/537.36 (KHTML, like Gecko) Chrome/107.0.0.0 Safari/537.36 Edg/107.0.1418.35","WebKit","Edge","107.0.1418.35","Windows","10.0","1140"," ","","A toothbrush was placed on the sponge","4","Filler","",""
"","","","","","fixation","43965","html-keyboard-response","213","337258","0.0-6.0-2.44","48","4","2022-11-17 12:19:31","fd252370c17a9971d68c1d4354a03c2e","","Mozilla/5.0 (Windows NT 10.0; Win64; x64) AppleWebKit/537.36 (KHTML, like Gecko) Chrome/107.0.0.0 Safari/537.36 Edg/107.0.1418.35","WebKit","Edge","107.0.1418.35","Windows","10.0","null","null","","<p style=""font-size: 48px;"">+</p>","4","Filler","",""
"","","","","","picture","43965","image-keyboard-response","214","338812","0.0-6.0-3.44","48","4","2022-11-17 12:19:31","fd252370c17a9971d68c1d4354a03c2e","","Mozilla/5.0 (Windows NT 10.0; Win64; x64) AppleWebKit/537.36 (KHTML, like Gecko) Chrome/107.0.0.0 Safari/537.36 Edg/107.0.1418.35","WebKit","Edge","107.0.1418.35","Windows","10.0","1550","s","","sponge.jpg","4","Filler","true",""
"","","","","","fixation","43965","html-keyboard-response","215","339817","0.0-6.0-0.45","48","4","2022-11-17 12:19:31","fd252370c17a9971d68c1d4354a03c2e","","Mozilla/5.0 (Windows NT 10.0; Win64; x64) AppleWebKit/537.36 (KHTML, like Gecko) Chrome/107.0.0.0 Safari/537.36 Edg/107.0.1418.35","WebKit","Edge","107.0.1418.35","Windows","10.0","null","null","","<p style=""font-size: 48px;"">+</p>","4","Light-Contradictory","",""
"","","","","","sentence","43965","html-keyboard-response","216","340903","0.0-6.0-1.45","48","4","2022-11-17 12:19:31","fd252370c17a9971d68c1d4354a03c2e","","Mozilla/5.0 (Windows NT 10.0; Win64; x64) AppleWebKit/537.36 (KHTML, like Gecko) Chrome/107.0.0.0 Safari/537.36 Edg/107.0.1418.35","WebKit","Edge","107.0.1418.35","Windows","10.0","1082"," ","","A balloon dropped and smashed a mirror","4","Light-Contradictory","",""
"","","","","","fixation","43965","html-keyboard-response","217","341411","0.0-6.0-2.45","48","4","2022-11-17 12:19:31","fd252370c17a9971d68c1d4354a03c2e","","Mozilla/5.0 (Windows NT 10.0; Win64; x64) AppleWebKit/537.36 (KHTML, like Gecko) Chrome/107.0.0.0 Safari/537.36 Edg/107.0.1418.35","WebKit","Edge","107.0.1418.35","Windows","10.0","null","null","","<p style=""font-size: 48px;"">+</p>","4","Light-Contradictory","",""
"","","","","","picture","43965","image-keyboard-response","218","342590","0.0-6.0-3.45","48","4","2022-11-17 12:19:31","fd252370c17a9971d68c1d4354a03c2e","","Mozilla/5.0 (Windows NT 10.0; Win64; x64) AppleWebKit/537.36 (KHTML, like Gecko) Chrome/107.0.0.0 Safari/537.36 Edg/107.0.1418.35","WebKit","Edge","107.0.1418.35","Windows","10.0","1174","s","","mirrorS.jpg","4","Light-Contradictory","true",""
"","","","","","fixation","43965","html-keyboard-response","219","343602","0.0-6.0-0.46","48","4","2022-11-17 12:19:31","fd252370c17a9971d68c1d4354a03c2e","","Mozilla/5.0 (Windows NT 10.0; Win64; x64) AppleWebKit/537.36 (KHTML, like Gecko) Chrome/107.0.0.0 Safari/537.36 Edg/107.0.1418.35","WebKit","Edge","107.0.1418.35","Windows","10.0","null","null","","<p style=""font-size: 48px;"">+</p>","4","Heavy-Matched","",""
"","","","","","sentence","43965","html-keyboard-response","220","344966","0.0-6.0-1.46","48","4","2022-11-17 12:19:31","fd252370c17a9971d68c1d4354a03c2e","","Mozilla/5.0 (Windows NT 10.0; Win64; x64) AppleWebKit/537.36 (KHTML, like Gecko) Chrome/107.0.0.0 Safari/537.36 Edg/107.0.1418.35","WebKit","Edge","107.0.1418.35","Windows","10.0","1359"," ","","A bowling ball dropped and smashed a piece of sushi","4","Heavy-Matched","",""
"","","","","","fixation","43965","html-keyboard-response","221","345474","0.0-6.0-2.46","48","4","2022-11-17 12:19:31","fd252370c17a9971d68c1d4354a03c2e","","Mozilla/5.0 (Windows NT 10.0; Win64; x64) AppleWebKit/537.36 (KHTML, like Gecko) Chrome/107.0.0.0 Safari/537.36 Edg/107.0.1418.35","WebKit","Edge","107.0.1418.35","Windows","10.0","null","null","","<p style=""font-size: 48px;"">+</p>","4","Heavy-Matched","",""
"","","","","","picture","43965","image-keyboard-response","222","346707","0.0-6.0-3.46","48","4","2022-11-17 12:19:31","fd252370c17a9971d68c1d4354a03c2e","","Mozilla/5.0 (Windows NT 10.0; Win64; x64) AppleWebKit/537.36 (KHTML, like Gecko) Chrome/107.0.0.0 Safari/537.36 Edg/107.0.1418.35","WebKit","Edge","107.0.1418.35","Windows","10.0","1228","s","","sushiS.jpg","4","Heavy-Matched","true",""
"","","","","","fixation","43965","html-keyboard-response","223","347726","0.0-6.0-0.47","48","4","2022-11-17 12:19:31","fd252370c17a9971d68c1d4354a03c2e","","Mozilla/5.0 (Windows NT 10.0; Win64; x64) AppleWebKit/537.36 (KHTML, like Gecko) Chrome/107.0.0.0 Safari/537.36 Edg/107.0.1418.35","WebKit","Edge","107.0.1418.35","Windows","10.0","null","null","","<p style=""font-size: 48px;"">+</p>","4","Light-Matched","",""
"","","","","","sentence","43965","html-keyboard-response","224","349111","0.0-6.0-1.47","48","4","2022-11-17 12:19:31","fd252370c17a9971d68c1d4354a03c2e","","Mozilla/5.0 (Windows NT 10.0; Win64; x64) AppleWebKit/537.36 (KHTML, like Gecko) Chrome/107.0.0.0 Safari/537.36 Edg/107.0.1418.35","WebKit","Edge","107.0.1418.35","Windows","10.0","1381"," ","","A balloon dropped and touched a blackberry","4","Light-Matched","",""
"","","","","","fixation","43965","html-keyboard-response","225","349617","0.0-6.0-2.47","48","4","2022-11-17 12:19:31","fd252370c17a9971d68c1d4354a03c2e","","Mozilla/5.0 (Windows NT 10.0; Win64; x64) AppleWebKit/537.36 (KHTML, like Gecko) Chrome/107.0.0.0 Safari/537.36 Edg/107.0.1418.35","WebKit","Edge","107.0.1418.35","Windows","10.0","null","null","","<p style=""font-size: 48px;"">+</p>","4","Light-Matched","",""
"","","","","","picture","43965","image-keyboard-response","226","350424","0.0-6.0-3.47","48","4","2022-11-17 12:19:31","fd252370c17a9971d68c1d4354a03c2e","","Mozilla/5.0 (Windows NT 10.0; Win64; x64) AppleWebKit/537.36 (KHTML, like Gecko) Chrome/107.0.0.0 Safari/537.36 Edg/107.0.1418.35","WebKit","Edge","107.0.1418.35","Windows","10.0","801","s","","blackberryS.jpg","4","Light-Matched","true",""
"","","","","","fixation","43965","html-keyboard-response","227","351435","0.0-6.0-0.48","48","4","2022-11-17 12:19:31","fd252370c17a9971d68c1d4354a03c2e","","Mozilla/5.0 (Windows NT 10.0; Win64; x64) AppleWebKit/537.36 (KHTML, like Gecko) Chrome/107.0.0.0 Safari/537.36 Edg/107.0.1418.35","WebKit","Edge","107.0.1418.35","Windows","10.0","null","null","","<p style=""font-size: 48px;"">+</p>","4","Light-Contradictory","",""
"","","","","","sentence","43965","html-keyboard-response","228","353318","0.0-6.0-1.48","48","4","2022-11-17 12:19:31","fd252370c17a9971d68c1d4354a03c2e","","Mozilla/5.0 (Windows NT 10.0; Win64; x64) AppleWebKit/537.36 (KHTML, like Gecko) Chrome/107.0.0.0 Safari/537.36 Edg/107.0.1418.35","WebKit","Edge","107.0.1418.35","Windows","10.0","1879"," ","","A balloon dropped and smashed a light bulb","4","Light-Contradictory","",""
"","","","","","fixation","43965","html-keyboard-response","229","353840","0.0-6.0-2.48","48","4","2022-11-17 12:19:31","fd252370c17a9971d68c1d4354a03c2e","","Mozilla/5.0 (Windows NT 10.0; Win64; x64) AppleWebKit/537.36 (KHTML, like Gecko) Chrome/107.0.0.0 Safari/537.36 Edg/107.0.1418.35","WebKit","Edge","107.0.1418.35","Windows","10.0","null","null","","<p style=""font-size: 48px;"">+</p>","4","Light-Contradictory","",""
"","","","","","picture","43965","image-keyboard-response","230","354716","0.0-6.0-3.48","48","4","2022-11-17 12:19:31","fd252370c17a9971d68c1d4354a03c2e","","Mozilla/5.0 (Windows NT 10.0; Win64; x64) AppleWebKit/537.36 (KHTML, like Gecko) Chrome/107.0.0.0 Safari/537.36 Edg/107.0.1418.35","WebKit","Edge","107.0.1418.35","Windows","10.0","870","s","","lampS.jpg","4","Light-Contradictory","true",""
"","","","","","fixation","43965","html-keyboard-response","231","355742","0.0-6.0-0.49","48","4","2022-11-17 12:19:31","fd252370c17a9971d68c1d4354a03c2e","","Mozilla/5.0 (Windows NT 10.0; Win64; x64) AppleWebKit/537.36 (KHTML, like Gecko) Chrome/107.0.0.0 Safari/537.36 Edg/107.0.1418.35","WebKit","Edge","107.0.1418.35","Windows","10.0","null","null","","<p style=""font-size: 48px;"">+</p>","4","Heavy-Contradictory","",""
"","","","","","sentence","43965","html-keyboard-response","232","357019","0.0-6.0-1.49","48","4","2022-11-17 12:19:31","fd252370c17a9971d68c1d4354a03c2e","","Mozilla/5.0 (Windows NT 10.0; Win64; x64) AppleWebKit/537.36 (KHTML, like Gecko) Chrome/107.0.0.0 Safari/537.36 Edg/107.0.1418.35","WebKit","Edge","107.0.1418.35","Windows","10.0","1272"," ","","A bowling ball dropped and touched a cracker","4","Heavy-Contradictory","",""
"","","","","","fixation","43965","html-keyboard-response","233","357529","0.0-6.0-2.49","48","4","2022-11-17 12:19:31","fd252370c17a9971d68c1d4354a03c2e","","Mozilla/5.0 (Windows NT 10.0; Win64; x64) AppleWebKit/537.36 (KHTML, like Gecko) Chrome/107.0.0.0 Safari/537.36 Edg/107.0.1418.35","WebKit","Edge","107.0.1418.35","Windows","10.0","null","null","","<p style=""font-size: 48px;"">+</p>","4","Heavy-Contradictory","",""
"","","","","","picture","43965","image-keyboard-response","234","358408","0.0-6.0-3.49","48","4","2022-11-17 12:19:31","fd252370c17a9971d68c1d4354a03c2e","","Mozilla/5.0 (Windows NT 10.0; Win64; x64) AppleWebKit/537.36 (KHTML, like Gecko) Chrome/107.0.0.0 Safari/537.36 Edg/107.0.1418.35","WebKit","Edge","107.0.1418.35","Windows","10.0","874","s","","crackerS.jpg","4","Heavy-Contradictory","true",""
"","","","","","fixation","43965","html-keyboard-response","235","359419","0.0-6.0-0.50","48","4","2022-11-17 12:19:31","fd252370c17a9971d68c1d4354a03c2e","","Mozilla/5.0 (Windows NT 10.0; Win64; x64) AppleWebKit/537.36 (KHTML, like Gecko) Chrome/107.0.0.0 Safari/537.36 Edg/107.0.1418.35","WebKit","Edge","107.0.1418.35","Windows","10.0","null","null","","<p style=""font-size: 48px;"">+</p>","4","Filler","",""
"","","","","","sentence","43965","html-keyboard-response","236","360722","0.0-6.0-1.50","48","4","2022-11-17 12:19:31","fd252370c17a9971d68c1d4354a03c2e","","Mozilla/5.0 (Windows NT 10.0; Win64; x64) AppleWebKit/537.36 (KHTML, like Gecko) Chrome/107.0.0.0 Safari/537.36 Edg/107.0.1418.35","WebKit","Edge","107.0.1418.35","Windows","10.0","1298"," ","","An owl is sitting on the branch","4","Filler","",""
