"success","timeout","failed_images","failed_audio","failed_video","typeoftrial","subject","trial_type","trial_index","time_elapsed","internal_node_id","run_id","condition","recorded_at","source_code_version","ip","user_agent","device","browser","browser_version","platform","platform_version","rt","response","Experiment","stimulus","list_number","trialcondition","correct","question_order"
"true","false","[]","[]","[]","preload","75152","preload","0","7143","0.0-0.0","30","1","2022-11-15 17:32:17","fb7204e538d3690fa685363130f6b499","189.155.244.165","Mozilla/5.0 (Windows NT 10.0; Win64; x64) AppleWebKit/537.36 (KHTML, like Gecko) Chrome/106.0.0.0 Safari/537.36 OPR/92.0.0.0","WebKit","Opera","92.0.0.0","Windows","10.0","","","","","","","",""
"","","","","","ID","75152","survey-text","1","30686","0.0-1.0","30","1","2022-11-15 17:32:17","fb7204e538d3690fa685363130f6b499","189.155.244.165","Mozilla/5.0 (Windows NT 10.0; Win64; x64) AppleWebKit/537.36 (KHTML, like Gecko) Chrome/106.0.0.0 Safari/537.36 OPR/92.0.0.0","WebKit","Opera","92.0.0.0","Windows","10.0","23536","{""ID"":""613a9fa1cf669eb303826ce0""}","","","","","",""
"","","","","","instructions","75152","html-button-response","2","61739","0.0-2.0","30","1","2022-11-15 17:32:17","fb7204e538d3690fa685363130f6b499","189.155.244.165","Mozilla/5.0 (Windows NT 10.0; Win64; x64) AppleWebKit/537.36 (KHTML, like Gecko) Chrome/106.0.0.0 Safari/537.36 OPR/92.0.0.0","WebKit","Opera","92.0.0.0","Windows","10.0","31052","0","","
                    <p style=""font-size:20px;""> Welcome to the experiment! </p>
                    <p style=""font-size:20px;""> In this experiment, you will be asked to make judgments about the content of different sentences.</p>
                    <p style=""font-size:20px;""> On each trial, you will read a sentence, and will be shown a picture immediately following the sentence. </p>
                    <p style=""font-size:20px;""> Your task is to decide whether the object displayed in the picture was mentioned in the sentence or not </p>
                    <p style=""font-size:20px;""> and respond as quickly as possible by pressing <strong>S</strong> for yes or <strong>N</strong> for no. </p>
                    <p style=""font-size:20px;""> You will now do a practice session with feedback and instructions. </p>
                    <p style=""font-size:20px;""> Click the button below to continue.</p>
                    ","","","",""
"","","","","","instructions","75152","html-button-response","3","77100","0.0-3.0","30","1","2022-11-15 17:32:17","fb7204e538d3690fa685363130f6b499","189.155.244.165","Mozilla/5.0 (Windows NT 10.0; Win64; x64) AppleWebKit/537.36 (KHTML, like Gecko) Chrome/106.0.0.0 Safari/537.36 OPR/92.0.0.0","WebKit","Opera","92.0.0.0","Windows","10.0","15360","0","","
                    <p style=""font-size:20px;""> You are about to begin the practice test. </p>
                    <p style=""font-size:20px;""> On each trial, a sentence will appear on the screen. You should press SPACEBAR when you have read and understood the sentence.</p>
                    <p style=""font-size:20px;""> After you press SPACEBAR, a picture will appear on the screen. </p>
                    <p style=""font-size:20px;""> You need to indicate whether or not the pictured object was mentioned in the sentence. </p>
                    <p style=""font-size:20px;""> If the object WAS mentioned in the preceding sentence, you should press <strong>S</strong> </p>
                    <p style=""font-size:20px;""> If the object was NOT mentioned in the preceding sentence, you should press <strong>N</strong>. </p>
                    <p style=""font-size:20px;""> Click the button below to continue to the practice session.</p>
                    ","","","",""
"","","","","","fixation","75152","html-keyboard-response","4","78102","0.0-4.0-0.0","30","1","2022-11-15 17:32:17","fb7204e538d3690fa685363130f6b499","189.155.244.165","Mozilla/5.0 (Windows NT 10.0; Win64; x64) AppleWebKit/537.36 (KHTML, like Gecko) Chrome/106.0.0.0 Safari/537.36 OPR/92.0.0.0","WebKit","Opera","92.0.0.0","Windows","10.0","null","null","","<p style=""font-size: 48px;"">+</p>","practice","practice_n","",""
"","","","","","sentence","75152","html-keyboard-response","5","81734","0.0-4.0-1.0","30","1","2022-11-15 17:32:17","fb7204e538d3690fa685363130f6b499","189.155.244.165","Mozilla/5.0 (Windows NT 10.0; Win64; x64) AppleWebKit/537.36 (KHTML, like Gecko) Chrome/106.0.0.0 Safari/537.36 OPR/92.0.0.0","WebKit","Opera","92.0.0.0","Windows","10.0","3630"," ","","A fork was placed on a stool","practice","practice_n","",""
"","","","","","fixation","75152","html-keyboard-response","6","82237","0.0-4.0-2.0","30","1","2022-11-15 17:32:17","fb7204e538d3690fa685363130f6b499","189.155.244.165","Mozilla/5.0 (Windows NT 10.0; Win64; x64) AppleWebKit/537.36 (KHTML, like Gecko) Chrome/106.0.0.0 Safari/537.36 OPR/92.0.0.0","WebKit","Opera","92.0.0.0","Windows","10.0","null","null","","<p style=""font-size: 48px;"">+</p>","practice","practice_n","",""
"","","","","","picture","75152","image-keyboard-response","7","98718","0.0-4.0-3.0","30","1","2022-11-15 17:32:17","fb7204e538d3690fa685363130f6b499","189.155.244.165","Mozilla/5.0 (Windows NT 10.0; Win64; x64) AppleWebKit/537.36 (KHTML, like Gecko) Chrome/106.0.0.0 Safari/537.36 OPR/92.0.0.0","WebKit","Opera","92.0.0.0","Windows","10.0","16479","s","","tableB.jpg","practice","practice_n","false",""
"","","","","","","","html-keyboard-response","8","100720","0.0-4.0-4.0","30","1","2022-11-15 17:32:17","fb7204e538d3690fa685363130f6b499","189.155.244.165","Mozilla/5.0 (Windows NT 10.0; Win64; x64) AppleWebKit/537.36 (KHTML, like Gecko) Chrome/106.0.0.0 Safari/537.36 OPR/92.0.0.0","WebKit","Opera","92.0.0.0","Windows","10.0","null","null","","WRONG!","","","",""
"","","","","","fixation","75152","html-keyboard-response","9","101721","0.0-4.0-0.1","30","1","2022-11-15 17:32:17","fb7204e538d3690fa685363130f6b499","189.155.244.165","Mozilla/5.0 (Windows NT 10.0; Win64; x64) AppleWebKit/537.36 (KHTML, like Gecko) Chrome/106.0.0.0 Safari/537.36 OPR/92.0.0.0","WebKit","Opera","92.0.0.0","Windows","10.0","null","null","","<p style=""font-size: 48px;"">+</p>","practice","practice_s","",""
"","","","","","sentence","75152","html-keyboard-response","10","105551","0.0-4.0-1.1","30","1","2022-11-15 17:32:17","fb7204e538d3690fa685363130f6b499","189.155.244.165","Mozilla/5.0 (Windows NT 10.0; Win64; x64) AppleWebKit/537.36 (KHTML, like Gecko) Chrome/106.0.0.0 Safari/537.36 OPR/92.0.0.0","WebKit","Opera","92.0.0.0","Windows","10.0","3829"," ","","A balloon dropped and touched a cigarette","practice","practice_s","",""
"","","","","","fixation","75152","html-keyboard-response","11","106053","0.0-4.0-2.1","30","1","2022-11-15 17:32:17","fb7204e538d3690fa685363130f6b499","189.155.244.165","Mozilla/5.0 (Windows NT 10.0; Win64; x64) AppleWebKit/537.36 (KHTML, like Gecko) Chrome/106.0.0.0 Safari/537.36 OPR/92.0.0.0","WebKit","Opera","92.0.0.0","Windows","10.0","null","null","","<p style=""font-size: 48px;"">+</p>","practice","practice_s","",""
"","","","","","picture","75152","image-keyboard-response","12","107337","0.0-4.0-3.1","30","1","2022-11-15 17:32:17","fb7204e538d3690fa685363130f6b499","189.155.244.165","Mozilla/5.0 (Windows NT 10.0; Win64; x64) AppleWebKit/537.36 (KHTML, like Gecko) Chrome/106.0.0.0 Safari/537.36 OPR/92.0.0.0","WebKit","Opera","92.0.0.0","Windows","10.0","1282","s","","cigaretteB.jpg","practice","practice_s","true",""
"","","","","","","","html-keyboard-response","13","109339","0.0-4.0-4.1","30","1","2022-11-15 17:32:17","fb7204e538d3690fa685363130f6b499","189.155.244.165","Mozilla/5.0 (Windows NT 10.0; Win64; x64) AppleWebKit/537.36 (KHTML, like Gecko) Chrome/106.0.0.0 Safari/537.36 OPR/92.0.0.0","WebKit","Opera","92.0.0.0","Windows","10.0","null","null","","CORRECT!","","","",""
"","","","","","fixation","75152","html-keyboard-response","14","110341","0.0-4.0-0.2","30","1","2022-11-15 17:32:17","fb7204e538d3690fa685363130f6b499","189.155.244.165","Mozilla/5.0 (Windows NT 10.0; Win64; x64) AppleWebKit/537.36 (KHTML, like Gecko) Chrome/106.0.0.0 Safari/537.36 OPR/92.0.0.0","WebKit","Opera","92.0.0.0","Windows","10.0","null","null","","<p style=""font-size: 48px;"">+</p>","practice","practice_n","",""
"","","","","","sentence","75152","html-keyboard-response","15","112175","0.0-4.0-1.2","30","1","2022-11-15 17:32:17","fb7204e538d3690fa685363130f6b499","189.155.244.165","Mozilla/5.0 (Windows NT 10.0; Win64; x64) AppleWebKit/537.36 (KHTML, like Gecko) Chrome/106.0.0.0 Safari/537.36 OPR/92.0.0.0","WebKit","Opera","92.0.0.0","Windows","10.0","1833"," ","","A bowling ball dropped and touched a bottle","practice","practice_n","",""
"","","","","","fixation","75152","html-keyboard-response","16","112677","0.0-4.0-2.2","30","1","2022-11-15 17:32:17","fb7204e538d3690fa685363130f6b499","189.155.244.165","Mozilla/5.0 (Windows NT 10.0; Win64; x64) AppleWebKit/537.36 (KHTML, like Gecko) Chrome/106.0.0.0 Safari/537.36 OPR/92.0.0.0","WebKit","Opera","92.0.0.0","Windows","10.0","null","null","","<p style=""font-size: 48px;"">+</p>","practice","practice_n","",""
"","","","","","picture","75152","image-keyboard-response","17","113867","0.0-4.0-3.2","30","1","2022-11-15 17:32:17","fb7204e538d3690fa685363130f6b499","189.155.244.165","Mozilla/5.0 (Windows NT 10.0; Win64; x64) AppleWebKit/537.36 (KHTML, like Gecko) Chrome/106.0.0.0 Safari/537.36 OPR/92.0.0.0","WebKit","Opera","92.0.0.0","Windows","10.0","1189","n","","bookB.jpg","practice","practice_n","true",""
"","","","","","","","html-keyboard-response","18","115869","0.0-4.0-4.2","30","1","2022-11-15 17:32:17","fb7204e538d3690fa685363130f6b499","189.155.244.165","Mozilla/5.0 (Windows NT 10.0; Win64; x64) AppleWebKit/537.36 (KHTML, like Gecko) Chrome/106.0.0.0 Safari/537.36 OPR/92.0.0.0","WebKit","Opera","92.0.0.0","Windows","10.0","null","null","","CORRECT!","","","",""
"","","","","","fixation","75152","html-keyboard-response","19","116872","0.0-4.0-0.3","30","1","2022-11-15 17:32:17","fb7204e538d3690fa685363130f6b499","189.155.244.165","Mozilla/5.0 (Windows NT 10.0; Win64; x64) AppleWebKit/537.36 (KHTML, like Gecko) Chrome/106.0.0.0 Safari/537.36 OPR/92.0.0.0","WebKit","Opera","92.0.0.0","Windows","10.0","null","null","","<p style=""font-size: 48px;"">+</p>","practice","practice_s","",""
"","","","","","sentence","75152","html-keyboard-response","20","119606","0.0-4.0-1.3","30","1","2022-11-15 17:32:17","fb7204e538d3690fa685363130f6b499","189.155.244.165","Mozilla/5.0 (Windows NT 10.0; Win64; x64) AppleWebKit/537.36 (KHTML, like Gecko) Chrome/106.0.0.0 Safari/537.36 OPR/92.0.0.0","WebKit","Opera","92.0.0.0","Windows","10.0","2733"," ","","A bowling ball dropped and smashed a teacup","practice","practice_s","",""
"","","","","","fixation","75152","html-keyboard-response","21","120109","0.0-4.0-2.3","30","1","2022-11-15 17:32:17","fb7204e538d3690fa685363130f6b499","189.155.244.165","Mozilla/5.0 (Windows NT 10.0; Win64; x64) AppleWebKit/537.36 (KHTML, like Gecko) Chrome/106.0.0.0 Safari/537.36 OPR/92.0.0.0","WebKit","Opera","92.0.0.0","Windows","10.0","null","null","","<p style=""font-size: 48px;"">+</p>","practice","practice_s","",""
"","","","","","picture","75152","image-keyboard-response","22","124208","0.0-4.0-3.3","30","1","2022-11-15 17:32:17","fb7204e538d3690fa685363130f6b499","189.155.244.165","Mozilla/5.0 (Windows NT 10.0; Win64; x64) AppleWebKit/537.36 (KHTML, like Gecko) Chrome/106.0.0.0 Safari/537.36 OPR/92.0.0.0","WebKit","Opera","92.0.0.0","Windows","10.0","4097","n","","cupB.jpg","practice","practice_s","false",""
"","","","","","","","html-keyboard-response","23","126210","0.0-4.0-4.3","30","1","2022-11-15 17:32:17","fb7204e538d3690fa685363130f6b499","189.155.244.165","Mozilla/5.0 (Windows NT 10.0; Win64; x64) AppleWebKit/537.36 (KHTML, like Gecko) Chrome/106.0.0.0 Safari/537.36 OPR/92.0.0.0","WebKit","Opera","92.0.0.0","Windows","10.0","null","null","","WRONG!","","","",""
"","","","","","fixation","75152","html-keyboard-response","24","127217","0.0-4.0-0.4","30","1","2022-11-15 17:32:17","fb7204e538d3690fa685363130f6b499","189.155.244.165","Mozilla/5.0 (Windows NT 10.0; Win64; x64) AppleWebKit/537.36 (KHTML, like Gecko) Chrome/106.0.0.0 Safari/537.36 OPR/92.0.0.0","WebKit","Opera","92.0.0.0","Windows","10.0","null","null","","<p style=""font-size: 48px;"">+</p>","practice","practice_n","",""
"","","","","","sentence","75152","html-keyboard-response","25","130283","0.0-4.0-1.4","30","1","2022-11-15 17:32:17","fb7204e538d3690fa685363130f6b499","189.155.244.165","Mozilla/5.0 (Windows NT 10.0; Win64; x64) AppleWebKit/537.36 (KHTML, like Gecko) Chrome/106.0.0.0 Safari/537.36 OPR/92.0.0.0","WebKit","Opera","92.0.0.0","Windows","10.0","3064"," ","","A balloon dropped and smashed a cup","practice","practice_n","",""
"","","","","","fixation","75152","html-keyboard-response","26","130786","0.0-4.0-2.4","30","1","2022-11-15 17:32:17","fb7204e538d3690fa685363130f6b499","189.155.244.165","Mozilla/5.0 (Windows NT 10.0; Win64; x64) AppleWebKit/537.36 (KHTML, like Gecko) Chrome/106.0.0.0 Safari/537.36 OPR/92.0.0.0","WebKit","Opera","92.0.0.0","Windows","10.0","null","null","","<p style=""font-size: 48px;"">+</p>","practice","practice_n","",""
"","","","","","picture","75152","image-keyboard-response","27","131571","0.0-4.0-3.4","30","1","2022-11-15 17:32:17","fb7204e538d3690fa685363130f6b499","189.155.244.165","Mozilla/5.0 (Windows NT 10.0; Win64; x64) AppleWebKit/537.36 (KHTML, like Gecko) Chrome/106.0.0.0 Safari/537.36 OPR/92.0.0.0","WebKit","Opera","92.0.0.0","Windows","10.0","784","n","","bananaB.jpg","practice","practice_n","true",""
"","","","","","","","html-keyboard-response","28","133573","0.0-4.0-4.4","30","1","2022-11-15 17:32:17","fb7204e538d3690fa685363130f6b499","189.155.244.165","Mozilla/5.0 (Windows NT 10.0; Win64; x64) AppleWebKit/537.36 (KHTML, like Gecko) Chrome/106.0.0.0 Safari/537.36 OPR/92.0.0.0","WebKit","Opera","92.0.0.0","Windows","10.0","null","null","","CORRECT!","","","",""
"","","","","","fixation","75152","html-keyboard-response","29","134577","0.0-4.0-0.5","30","1","2022-11-15 17:32:17","fb7204e538d3690fa685363130f6b499","189.155.244.165","Mozilla/5.0 (Windows NT 10.0; Win64; x64) AppleWebKit/537.36 (KHTML, like Gecko) Chrome/106.0.0.0 Safari/537.36 OPR/92.0.0.0","WebKit","Opera","92.0.0.0","Windows","10.0","null","null","","<p style=""font-size: 48px;"">+</p>","practice","practice_s","",""
"","","","","","sentence","75152","html-keyboard-response","30","136481","0.0-4.0-1.5","30","1","2022-11-15 17:32:17","fb7204e538d3690fa685363130f6b499","189.155.244.165","Mozilla/5.0 (Windows NT 10.0; Win64; x64) AppleWebKit/537.36 (KHTML, like Gecko) Chrome/106.0.0.0 Safari/537.36 OPR/92.0.0.0","WebKit","Opera","92.0.0.0","Windows","10.0","1902"," ","","A knife was placed on a hammer","practice","practice_s","",""
"","","","","","fixation","75152","html-keyboard-response","31","136982","0.0-4.0-2.5","30","1","2022-11-15 17:32:17","fb7204e538d3690fa685363130f6b499","189.155.244.165","Mozilla/5.0 (Windows NT 10.0; Win64; x64) AppleWebKit/537.36 (KHTML, like Gecko) Chrome/106.0.0.0 Safari/537.36 OPR/92.0.0.0","WebKit","Opera","92.0.0.0","Windows","10.0","null","null","","<p style=""font-size: 48px;"">+</p>","practice","practice_s","",""
"","","","","","picture","75152","image-keyboard-response","32","139783","0.0-4.0-3.5","30","1","2022-11-15 17:32:17","fb7204e538d3690fa685363130f6b499","189.155.244.165","Mozilla/5.0 (Windows NT 10.0; Win64; x64) AppleWebKit/537.36 (KHTML, like Gecko) Chrome/106.0.0.0 Safari/537.36 OPR/92.0.0.0","WebKit","Opera","92.0.0.0","Windows","10.0","2799","s","","hammerB.jpg","practice","practice_s","true",""
"","","","","","","","html-keyboard-response","33","141785","0.0-4.0-4.5","30","1","2022-11-15 17:32:17","fb7204e538d3690fa685363130f6b499","189.155.244.165","Mozilla/5.0 (Windows NT 10.0; Win64; x64) AppleWebKit/537.36 (KHTML, like Gecko) Chrome/106.0.0.0 Safari/537.36 OPR/92.0.0.0","WebKit","Opera","92.0.0.0","Windows","10.0","null","null","","CORRECT!","","","",""
"","","","","","movetoexp","75152","html-button-response","34","149600","0.0-5.0","30","1","2022-11-15 17:32:17","fb7204e538d3690fa685363130f6b499","189.155.244.165","Mozilla/5.0 (Windows NT 10.0; Win64; x64) AppleWebKit/537.36 (KHTML, like Gecko) Chrome/106.0.0.0 Safari/537.36 OPR/92.0.0.0","WebKit","Opera","92.0.0.0","Windows","10.0","7815","0","","<p style=""font-size:20px;"">You have now completed the practice session! </p>
                    <p style=""font-size:20px;"">You will now move on to the main experiment, where you will not be provided any feedback. </p>
                    <p style=""font-size:20px;"">Remember, you should press <strong>S</strong> if the pictured object was mentioned in the preceding sentence<br> and <strong>N</strong> if the pictured object was not mentioned in the preceding sentence.</p>
                    <p style=""font-size:20px;"">Please click the button below to continue to the main experiment. </p>","","","",""
"","","","","","fixation","75152","html-keyboard-response","35","150602","0.0-6.0-0.0","30","1","2022-11-15 17:32:17","fb7204e538d3690fa685363130f6b499","189.155.244.165","Mozilla/5.0 (Windows NT 10.0; Win64; x64) AppleWebKit/537.36 (KHTML, like Gecko) Chrome/106.0.0.0 Safari/537.36 OPR/92.0.0.0","WebKit","Opera","92.0.0.0","Windows","10.0","null","null","","<p style=""font-size: 48px;"">+</p>","1","Heavy_Contradictory","",""
"","","","","","sentence","75152","html-keyboard-response","36","154064","0.0-6.0-1.0","30","1","2022-11-15 17:32:17","fb7204e538d3690fa685363130f6b499","189.155.244.165","Mozilla/5.0 (Windows NT 10.0; Win64; x64) AppleWebKit/537.36 (KHTML, like Gecko) Chrome/106.0.0.0 Safari/537.36 OPR/92.0.0.0","WebKit","Opera","92.0.0.0","Windows","10.0","3461"," ","","A bowling ball dropped and touched an egg flan","1","Heavy_Contradictory","",""
"","","","","","fixation","75152","html-keyboard-response","37","154575","0.0-6.0-2.0","30","1","2022-11-15 17:32:17","fb7204e538d3690fa685363130f6b499","189.155.244.165","Mozilla/5.0 (Windows NT 10.0; Win64; x64) AppleWebKit/537.36 (KHTML, like Gecko) Chrome/106.0.0.0 Safari/537.36 OPR/92.0.0.0","WebKit","Opera","92.0.0.0","Windows","10.0","null","null","","<p style=""font-size: 48px;"">+</p>","1","Heavy_Contradictory","",""
"","","","","","picture","75152","image-keyboard-response","38","156069","0.0-6.0-3.0","30","1","2022-11-15 17:32:17","fb7204e538d3690fa685363130f6b499","189.155.244.165","Mozilla/5.0 (Windows NT 10.0; Win64; x64) AppleWebKit/537.36 (KHTML, like Gecko) Chrome/106.0.0.0 Safari/537.36 OPR/92.0.0.0","WebKit","Opera","92.0.0.0","Windows","10.0","1492","s","","eggflanS.jpg","1","Heavy_Contradictory","true",""
"","","","","","fixation","75152","html-keyboard-response","39","157071","0.0-6.0-0.1","30","1","2022-11-15 17:32:17","fb7204e538d3690fa685363130f6b499","189.155.244.165","Mozilla/5.0 (Windows NT 10.0; Win64; x64) AppleWebKit/537.36 (KHTML, like Gecko) Chrome/106.0.0.0 Safari/537.36 OPR/92.0.0.0","WebKit","Opera","92.0.0.0","Windows","10.0","null","null","","<p style=""font-size: 48px;"">+</p>","1","Light_Contradictory","",""
"","","","","","sentence","75152","html-keyboard-response","40","159118","0.0-6.0-1.1","30","1","2022-11-15 17:32:17","fb7204e538d3690fa685363130f6b499","189.155.244.165","Mozilla/5.0 (Windows NT 10.0; Win64; x64) AppleWebKit/537.36 (KHTML, like Gecko) Chrome/106.0.0.0 Safari/537.36 OPR/92.0.0.0","WebKit","Opera","92.0.0.0","Windows","10.0","2045"," ","","A balloon dropped and smashed a strawberry","1","Light_Contradictory","",""
"","","","","","fixation","75152","html-keyboard-response","41","159628","0.0-6.0-2.1","30","1","2022-11-15 17:32:17","fb7204e538d3690fa685363130f6b499","189.155.244.165","Mozilla/5.0 (Windows NT 10.0; Win64; x64) AppleWebKit/537.36 (KHTML, like Gecko) Chrome/106.0.0.0 Safari/537.36 OPR/92.0.0.0","WebKit","Opera","92.0.0.0","Windows","10.0","null","null","","<p style=""font-size: 48px;"">+</p>","1","Light_Contradictory","",""
"","","","","","picture","75152","image-keyboard-response","42","160475","0.0-6.0-3.1","30","1","2022-11-15 17:32:17","fb7204e538d3690fa685363130f6b499","189.155.244.165","Mozilla/5.0 (Windows NT 10.0; Win64; x64) AppleWebKit/537.36 (KHTML, like Gecko) Chrome/106.0.0.0 Safari/537.36 OPR/92.0.0.0","WebKit","Opera","92.0.0.0","Windows","10.0","846","s","","strawberryS.jpg","1","Light_Contradictory","true",""
"","","","","","fixation","75152","html-keyboard-response","43","161481","0.0-6.0-0.2","30","1","2022-11-15 17:32:17","fb7204e538d3690fa685363130f6b499","189.155.244.165","Mozilla/5.0 (Windows NT 10.0; Win64; x64) AppleWebKit/537.36 (KHTML, like Gecko) Chrome/106.0.0.0 Safari/537.36 OPR/92.0.0.0","WebKit","Opera","92.0.0.0","Windows","10.0","null","null","","<p style=""font-size: 48px;"">+</p>","1","Filler","",""
"","","","","","sentence","75152","html-keyboard-response","44","162635","0.0-6.0-1.2","30","1","2022-11-15 17:32:17","fb7204e538d3690fa685363130f6b499","189.155.244.165","Mozilla/5.0 (Windows NT 10.0; Win64; x64) AppleWebKit/537.36 (KHTML, like Gecko) Chrome/106.0.0.0 Safari/537.36 OPR/92.0.0.0","WebKit","Opera","92.0.0.0","Windows","10.0","1152"," ","","A teenage girl is playing the piano","1","Filler","",""
"","","","","","fixation","75152","html-keyboard-response","45","163136","0.0-6.0-2.2","30","1","2022-11-15 17:32:17","fb7204e538d3690fa685363130f6b499","189.155.244.165","Mozilla/5.0 (Windows NT 10.0; Win64; x64) AppleWebKit/537.36 (KHTML, like Gecko) Chrome/106.0.0.0 Safari/537.36 OPR/92.0.0.0","WebKit","Opera","92.0.0.0","Windows","10.0","null","null","","<p style=""font-size: 48px;"">+</p>","1","Filler","",""
"","","","","","picture","75152","image-keyboard-response","46","164004","0.0-6.0-3.2","30","1","2022-11-15 17:32:17","fb7204e538d3690fa685363130f6b499","189.155.244.165","Mozilla/5.0 (Windows NT 10.0; Win64; x64) AppleWebKit/537.36 (KHTML, like Gecko) Chrome/106.0.0.0 Safari/537.36 OPR/92.0.0.0","WebKit","Opera","92.0.0.0","Windows","10.0","866","n","","pillow.jpg","1","Filler","true",""
"","","","","","fixation","75152","html-keyboard-response","47","165005","0.0-6.0-0.3","30","1","2022-11-15 17:32:17","fb7204e538d3690fa685363130f6b499","189.155.244.165","Mozilla/5.0 (Windows NT 10.0; Win64; x64) AppleWebKit/537.36 (KHTML, like Gecko) Chrome/106.0.0.0 Safari/537.36 OPR/92.0.0.0","WebKit","Opera","92.0.0.0","Windows","10.0","null","null","","<p style=""font-size: 48px;"">+</p>","1","Light_Matched","",""
"","","","","","sentence","75152","html-keyboard-response","48","166380","0.0-6.0-1.3","30","1","2022-11-15 17:32:17","fb7204e538d3690fa685363130f6b499","189.155.244.165","Mozilla/5.0 (Windows NT 10.0; Win64; x64) AppleWebKit/537.36 (KHTML, like Gecko) Chrome/106.0.0.0 Safari/537.36 OPR/92.0.0.0","WebKit","Opera","92.0.0.0","Windows","10.0","1372"," ","","A balloon dropped and touched a chocolate muffin","1","Light_Matched","",""
"","","","","","fixation","75152","html-keyboard-response","49","166883","0.0-6.0-2.3","30","1","2022-11-15 17:32:17","fb7204e538d3690fa685363130f6b499","189.155.244.165","Mozilla/5.0 (Windows NT 10.0; Win64; x64) AppleWebKit/537.36 (KHTML, like Gecko) Chrome/106.0.0.0 Safari/537.36 OPR/92.0.0.0","WebKit","Opera","92.0.0.0","Windows","10.0","null","null","","<p style=""font-size: 48px;"">+</p>","1","Light_Matched","",""
"","","","","","picture","75152","image-keyboard-response","50","171056","0.0-6.0-3.3","30","1","2022-11-15 17:32:17","fb7204e538d3690fa685363130f6b499","189.155.244.165","Mozilla/5.0 (Windows NT 10.0; Win64; x64) AppleWebKit/537.36 (KHTML, like Gecko) Chrome/106.0.0.0 Safari/537.36 OPR/92.0.0.0","WebKit","Opera","92.0.0.0","Windows","10.0","4170","n","","muffinS.jpg","1","Light_Matched","false",""
"","","","","","fixation","75152","html-keyboard-response","51","172058","0.0-6.0-0.4","30","1","2022-11-15 17:32:17","fb7204e538d3690fa685363130f6b499","189.155.244.165","Mozilla/5.0 (Windows NT 10.0; Win64; x64) AppleWebKit/537.36 (KHTML, like Gecko) Chrome/106.0.0.0 Safari/537.36 OPR/92.0.0.0","WebKit","Opera","92.0.0.0","Windows","10.0","null","null","","<p style=""font-size: 48px;"">+</p>","1","Filler","",""
"","","","","","sentence","75152","html-keyboard-response","52","174015","0.0-6.0-1.4","30","1","2022-11-15 17:32:17","fb7204e538d3690fa685363130f6b499","189.155.244.165","Mozilla/5.0 (Windows NT 10.0; Win64; x64) AppleWebKit/537.36 (KHTML, like Gecko) Chrome/106.0.0.0 Safari/537.36 OPR/92.0.0.0","WebKit","Opera","92.0.0.0","Windows","10.0","1956"," ","","A doctor is taking a stethoscope","1","Filler","",""
"","","","","","fixation","75152","html-keyboard-response","53","174518","0.0-6.0-2.4","30","1","2022-11-15 17:32:17","fb7204e538d3690fa685363130f6b499","189.155.244.165","Mozilla/5.0 (Windows NT 10.0; Win64; x64) AppleWebKit/537.36 (KHTML, like Gecko) Chrome/106.0.0.0 Safari/537.36 OPR/92.0.0.0","WebKit","Opera","92.0.0.0","Windows","10.0","null","null","","<p style=""font-size: 48px;"">+</p>","1","Filler","",""
"","","","","","picture","75152","image-keyboard-response","54","176014","0.0-6.0-3.4","30","1","2022-11-15 17:32:17","fb7204e538d3690fa685363130f6b499","189.155.244.165","Mozilla/5.0 (Windows NT 10.0; Win64; x64) AppleWebKit/537.36 (KHTML, like Gecko) Chrome/106.0.0.0 Safari/537.36 OPR/92.0.0.0","WebKit","Opera","92.0.0.0","Windows","10.0","1492","n","","matchesbox.jpg","1","Filler","true",""
"","","","","","fixation","75152","html-keyboard-response","55","177016","0.0-6.0-0.5","30","1","2022-11-15 17:32:17","fb7204e538d3690fa685363130f6b499","189.155.244.165","Mozilla/5.0 (Windows NT 10.0; Win64; x64) AppleWebKit/537.36 (KHTML, like Gecko) Chrome/106.0.0.0 Safari/537.36 OPR/92.0.0.0","WebKit","Opera","92.0.0.0","Windows","10.0","null","null","","<p style=""font-size: 48px;"">+</p>","1","Filler","",""
"","","","","","sentence","75152","html-keyboard-response","56","179176","0.0-6.0-1.5","30","1","2022-11-15 17:32:17","fb7204e538d3690fa685363130f6b499","189.155.244.165","Mozilla/5.0 (Windows NT 10.0; Win64; x64) AppleWebKit/537.36 (KHTML, like Gecko) Chrome/106.0.0.0 Safari/537.36 OPR/92.0.0.0","WebKit","Opera","92.0.0.0","Windows","10.0","2157"," ","","A horse is chewing hay","1","Filler","",""
"","","","","","fixation","75152","html-keyboard-response","57","179679","0.0-6.0-2.5","30","1","2022-11-15 17:32:17","fb7204e538d3690fa685363130f6b499","189.155.244.165","Mozilla/5.0 (Windows NT 10.0; Win64; x64) AppleWebKit/537.36 (KHTML, like Gecko) Chrome/106.0.0.0 Safari/537.36 OPR/92.0.0.0","WebKit","Opera","92.0.0.0","Windows","10.0","null","null","","<p style=""font-size: 48px;"">+</p>","1","Filler","",""
"","","","","","picture","75152","image-keyboard-response","58","182301","0.0-6.0-3.5","30","1","2022-11-15 17:32:17","fb7204e538d3690fa685363130f6b499","189.155.244.165","Mozilla/5.0 (Windows NT 10.0; Win64; x64) AppleWebKit/537.36 (KHTML, like Gecko) Chrome/106.0.0.0 Safari/537.36 OPR/92.0.0.0","WebKit","Opera","92.0.0.0","Windows","10.0","2616","n","","purse.jpg","1","Filler","true",""
"","","","","","fixation","75152","html-keyboard-response","59","183305","0.0-6.0-0.6","30","1","2022-11-15 17:32:17","fb7204e538d3690fa685363130f6b499","189.155.244.165","Mozilla/5.0 (Windows NT 10.0; Win64; x64) AppleWebKit/537.36 (KHTML, like Gecko) Chrome/106.0.0.0 Safari/537.36 OPR/92.0.0.0","WebKit","Opera","92.0.0.0","Windows","10.0","null","null","","<p style=""font-size: 48px;"">+</p>","1","Filler","",""
"","","","","","sentence","75152","html-keyboard-response","60","185636","0.0-6.0-1.6","30","1","2022-11-15 17:32:17","fb7204e538d3690fa685363130f6b499","189.155.244.165","Mozilla/5.0 (Windows NT 10.0; Win64; x64) AppleWebKit/537.36 (KHTML, like Gecko) Chrome/106.0.0.0 Safari/537.36 OPR/92.0.0.0","WebKit","Opera","92.0.0.0","Windows","10.0","2329"," ","","A hairdresser is taking scissors","1","Filler","",""
"","","","","","fixation","75152","html-keyboard-response","61","186139","0.0-6.0-2.6","30","1","2022-11-15 17:32:17","fb7204e538d3690fa685363130f6b499","189.155.244.165","Mozilla/5.0 (Windows NT 10.0; Win64; x64) AppleWebKit/537.36 (KHTML, like Gecko) Chrome/106.0.0.0 Safari/537.36 OPR/92.0.0.0","WebKit","Opera","92.0.0.0","Windows","10.0","null","null","","<p style=""font-size: 48px;"">+</p>","1","Filler","",""
"","","","","","picture","75152","image-keyboard-response","62","187245","0.0-6.0-3.6","30","1","2022-11-15 17:32:17","fb7204e538d3690fa685363130f6b499","189.155.244.165","Mozilla/5.0 (Windows NT 10.0; Win64; x64) AppleWebKit/537.36 (KHTML, like Gecko) Chrome/106.0.0.0 Safari/537.36 OPR/92.0.0.0","WebKit","Opera","92.0.0.0","Windows","10.0","1104","n","","sock.jpg","1","Filler","true",""
"","","","","","fixation","75152","html-keyboard-response","63","188252","0.0-6.0-0.7","30","1","2022-11-15 17:32:17","fb7204e538d3690fa685363130f6b499","189.155.244.165","Mozilla/5.0 (Windows NT 10.0; Win64; x64) AppleWebKit/537.36 (KHTML, like Gecko) Chrome/106.0.0.0 Safari/537.36 OPR/92.0.0.0","WebKit","Opera","92.0.0.0","Windows","10.0","null","null","","<p style=""font-size: 48px;"">+</p>","1","Filler","",""
"","","","","","sentence","75152","html-keyboard-response","64","189339","0.0-6.0-1.7","30","1","2022-11-15 17:32:17","fb7204e538d3690fa685363130f6b499","189.155.244.165","Mozilla/5.0 (Windows NT 10.0; Win64; x64) AppleWebKit/537.36 (KHTML, like Gecko) Chrome/106.0.0.0 Safari/537.36 OPR/92.0.0.0","WebKit","Opera","92.0.0.0","Windows","10.0","1086"," ","","A fork was placed on the plate","1","Filler","",""
"","","","","","fixation","75152","html-keyboard-response","65","189841","0.0-6.0-2.7","30","1","2022-11-15 17:32:17","fb7204e538d3690fa685363130f6b499","189.155.244.165","Mozilla/5.0 (Windows NT 10.0; Win64; x64) AppleWebKit/537.36 (KHTML, like Gecko) Chrome/106.0.0.0 Safari/537.36 OPR/92.0.0.0","WebKit","Opera","92.0.0.0","Windows","10.0","null","null","","<p style=""font-size: 48px;"">+</p>","1","Filler","",""
"","","","","","picture","75152","image-keyboard-response","66","190691","0.0-6.0-3.7","30","1","2022-11-15 17:32:17","fb7204e538d3690fa685363130f6b499","189.155.244.165","Mozilla/5.0 (Windows NT 10.0; Win64; x64) AppleWebKit/537.36 (KHTML, like Gecko) Chrome/106.0.0.0 Safari/537.36 OPR/92.0.0.0","WebKit","Opera","92.0.0.0","Windows","10.0","849","s","","plate.jpg","1","Filler","true",""
"","","","","","fixation","75152","html-keyboard-response","67","191695","0.0-6.0-0.8","30","1","2022-11-15 17:32:17","fb7204e538d3690fa685363130f6b499","189.155.244.165","Mozilla/5.0 (Windows NT 10.0; Win64; x64) AppleWebKit/537.36 (KHTML, like Gecko) Chrome/106.0.0.0 Safari/537.36 OPR/92.0.0.0","WebKit","Opera","92.0.0.0","Windows","10.0","null","null","","<p style=""font-size: 48px;"">+</p>","1","Filler","",""
"","","","","","sentence","75152","html-keyboard-response","68","192713","0.0-6.0-1.8","30","1","2022-11-15 17:32:17","fb7204e538d3690fa685363130f6b499","189.155.244.165","Mozilla/5.0 (Windows NT 10.0; Win64; x64) AppleWebKit/537.36 (KHTML, like Gecko) Chrome/106.0.0.0 Safari/537.36 OPR/92.0.0.0","WebKit","Opera","92.0.0.0","Windows","10.0","1013"," ","","An elephant is eating a watermelon","1","Filler","",""
"","","","","","fixation","75152","html-keyboard-response","69","193217","0.0-6.0-2.8","30","1","2022-11-15 17:32:17","fb7204e538d3690fa685363130f6b499","189.155.244.165","Mozilla/5.0 (Windows NT 10.0; Win64; x64) AppleWebKit/537.36 (KHTML, like Gecko) Chrome/106.0.0.0 Safari/537.36 OPR/92.0.0.0","WebKit","Opera","92.0.0.0","Windows","10.0","null","null","","<p style=""font-size: 48px;"">+</p>","1","Filler","",""
"","","","","","picture","75152","image-keyboard-response","70","193926","0.0-6.0-3.8","30","1","2022-11-15 17:32:17","fb7204e538d3690fa685363130f6b499","189.155.244.165","Mozilla/5.0 (Windows NT 10.0; Win64; x64) AppleWebKit/537.36 (KHTML, like Gecko) Chrome/106.0.0.0 Safari/537.36 OPR/92.0.0.0","WebKit","Opera","92.0.0.0","Windows","10.0","707","s","","watermelon.jpg","1","Filler","true",""
"","","","","","fixation","75152","html-keyboard-response","71","194934","0.0-6.0-0.9","30","1","2022-11-15 17:32:17","fb7204e538d3690fa685363130f6b499","189.155.244.165","Mozilla/5.0 (Windows NT 10.0; Win64; x64) AppleWebKit/537.36 (KHTML, like Gecko) Chrome/106.0.0.0 Safari/537.36 OPR/92.0.0.0","WebKit","Opera","92.0.0.0","Windows","10.0","null","null","","<p style=""font-size: 48px;"">+</p>","1","Filler","",""
"","","","","","sentence","75152","html-keyboard-response","72","196111","0.0-6.0-1.9","30","1","2022-11-15 17:32:17","fb7204e538d3690fa685363130f6b499","189.155.244.165","Mozilla/5.0 (Windows NT 10.0; Win64; x64) AppleWebKit/537.36 (KHTML, like Gecko) Chrome/106.0.0.0 Safari/537.36 OPR/92.0.0.0","WebKit","Opera","92.0.0.0","Windows","10.0","1174"," ","","A musician is playing a guitar","1","Filler","",""
"","","","","","fixation","75152","html-keyboard-response","73","196613","0.0-6.0-2.9","30","1","2022-11-15 17:32:17","fb7204e538d3690fa685363130f6b499","189.155.244.165","Mozilla/5.0 (Windows NT 10.0; Win64; x64) AppleWebKit/537.36 (KHTML, like Gecko) Chrome/106.0.0.0 Safari/537.36 OPR/92.0.0.0","WebKit","Opera","92.0.0.0","Windows","10.0","null","null","","<p style=""font-size: 48px;"">+</p>","1","Filler","",""
"","","","","","picture","75152","image-keyboard-response","74","197417","0.0-6.0-3.9","30","1","2022-11-15 17:32:17","fb7204e538d3690fa685363130f6b499","189.155.244.165","Mozilla/5.0 (Windows NT 10.0; Win64; x64) AppleWebKit/537.36 (KHTML, like Gecko) Chrome/106.0.0.0 Safari/537.36 OPR/92.0.0.0","WebKit","Opera","92.0.0.0","Windows","10.0","803","s","","guitar.jpg","1","Filler","true",""
"","","","","","fixation","75152","html-keyboard-response","75","198419","0.0-6.0-0.10","30","1","2022-11-15 17:32:17","fb7204e538d3690fa685363130f6b499","189.155.244.165","Mozilla/5.0 (Windows NT 10.0; Win64; x64) AppleWebKit/537.36 (KHTML, like Gecko) Chrome/106.0.0.0 Safari/537.36 OPR/92.0.0.0","WebKit","Opera","92.0.0.0","Windows","10.0","null","null","","<p style=""font-size: 48px;"">+</p>","1","Filler","",""
"","","","","","sentence","75152","html-keyboard-response","76","200859","0.0-6.0-1.10","30","1","2022-11-15 17:32:17","fb7204e538d3690fa685363130f6b499","189.155.244.165","Mozilla/5.0 (Windows NT 10.0; Win64; x64) AppleWebKit/537.36 (KHTML, like Gecko) Chrome/106.0.0.0 Safari/537.36 OPR/92.0.0.0","WebKit","Opera","92.0.0.0","Windows","10.0","2437"," ","","A nurse is taking a syringe","1","Filler","",""
"","","","","","fixation","75152","html-keyboard-response","77","201374","0.0-6.0-2.10","30","1","2022-11-15 17:32:17","fb7204e538d3690fa685363130f6b499","189.155.244.165","Mozilla/5.0 (Windows NT 10.0; Win64; x64) AppleWebKit/537.36 (KHTML, like Gecko) Chrome/106.0.0.0 Safari/537.36 OPR/92.0.0.0","WebKit","Opera","92.0.0.0","Windows","10.0","null","null","","<p style=""font-size: 48px;"">+</p>","1","Filler","",""
"","","","","","picture","75152","image-keyboard-response","78","202349","0.0-6.0-3.10","30","1","2022-11-15 17:32:17","fb7204e538d3690fa685363130f6b499","189.155.244.165","Mozilla/5.0 (Windows NT 10.0; Win64; x64) AppleWebKit/537.36 (KHTML, like Gecko) Chrome/106.0.0.0 Safari/537.36 OPR/92.0.0.0","WebKit","Opera","92.0.0.0","Windows","10.0","973","n","","headphones.jpg","1","Filler","true",""
"","","","","","fixation","75152","html-keyboard-response","79","203351","0.0-6.0-0.11","30","1","2022-11-15 17:32:17","fb7204e538d3690fa685363130f6b499","189.155.244.165","Mozilla/5.0 (Windows NT 10.0; Win64; x64) AppleWebKit/537.36 (KHTML, like Gecko) Chrome/106.0.0.0 Safari/537.36 OPR/92.0.0.0","WebKit","Opera","92.0.0.0","Windows","10.0","null","null","","<p style=""font-size: 48px;"">+</p>","1","Filler","",""
"","","","","","sentence","75152","html-keyboard-response","80","205698","0.0-6.0-1.11","30","1","2022-11-15 17:32:17","fb7204e538d3690fa685363130f6b499","189.155.244.165","Mozilla/5.0 (Windows NT 10.0; Win64; x64) AppleWebKit/537.36 (KHTML, like Gecko) Chrome/106.0.0.0 Safari/537.36 OPR/92.0.0.0","WebKit","Opera","92.0.0.0","Windows","10.0","2342"," ","","An astronaut is putting on a space suit","1","Filler","",""
"","","","","","fixation","75152","html-keyboard-response","81","206201","0.0-6.0-2.11","30","1","2022-11-15 17:32:17","fb7204e538d3690fa685363130f6b499","189.155.244.165","Mozilla/5.0 (Windows NT 10.0; Win64; x64) AppleWebKit/537.36 (KHTML, like Gecko) Chrome/106.0.0.0 Safari/537.36 OPR/92.0.0.0","WebKit","Opera","92.0.0.0","Windows","10.0","null","null","","<p style=""font-size: 48px;"">+</p>","1","Filler","",""
"","","","","","picture","75152","image-keyboard-response","82","206810","0.0-6.0-3.11","30","1","2022-11-15 17:32:17","fb7204e538d3690fa685363130f6b499","189.155.244.165","Mozilla/5.0 (Windows NT 10.0; Win64; x64) AppleWebKit/537.36 (KHTML, like Gecko) Chrome/106.0.0.0 Safari/537.36 OPR/92.0.0.0","WebKit","Opera","92.0.0.0","Windows","10.0","604","s","","spacesuit.jpg","1","Filler","true",""
"","","","","","fixation","75152","html-keyboard-response","83","207813","0.0-6.0-0.12","30","1","2022-11-15 17:32:17","fb7204e538d3690fa685363130f6b499","189.155.244.165","Mozilla/5.0 (Windows NT 10.0; Win64; x64) AppleWebKit/537.36 (KHTML, like Gecko) Chrome/106.0.0.0 Safari/537.36 OPR/92.0.0.0","WebKit","Opera","92.0.0.0","Windows","10.0","null","null","","<p style=""font-size: 48px;"">+</p>","1","Light_Contradictory","",""
"","","","","","sentence","75152","html-keyboard-response","84","210933","0.0-6.0-1.12","30","1","2022-11-15 17:32:17","fb7204e538d3690fa685363130f6b499","189.155.244.165","Mozilla/5.0 (Windows NT 10.0; Win64; x64) AppleWebKit/537.36 (KHTML, like Gecko) Chrome/106.0.0.0 Safari/537.36 OPR/92.0.0.0","WebKit","Opera","92.0.0.0","Windows","10.0","3117"," ","","A balloon dropped and smashed a vase","1","Light_Contradictory","",""
"","","","","","fixation","75152","html-keyboard-response","85","211435","0.0-6.0-2.12","30","1","2022-11-15 17:32:17","fb7204e538d3690fa685363130f6b499","189.155.244.165","Mozilla/5.0 (Windows NT 10.0; Win64; x64) AppleWebKit/537.36 (KHTML, like Gecko) Chrome/106.0.0.0 Safari/537.36 OPR/92.0.0.0","WebKit","Opera","92.0.0.0","Windows","10.0","null","null","","<p style=""font-size: 48px;"">+</p>","1","Light_Contradictory","",""
"","","","","","picture","75152","image-keyboard-response","86","213591","0.0-6.0-3.12","30","1","2022-11-15 17:32:17","fb7204e538d3690fa685363130f6b499","189.155.244.165","Mozilla/5.0 (Windows NT 10.0; Win64; x64) AppleWebKit/537.36 (KHTML, like Gecko) Chrome/106.0.0.0 Safari/537.36 OPR/92.0.0.0","WebKit","Opera","92.0.0.0","Windows","10.0","2151","s","","vaseS.jpg","1","Light_Contradictory","true",""
"","","","","","fixation","75152","html-keyboard-response","87","214599","0.0-6.0-0.13","30","1","2022-11-15 17:32:17","fb7204e538d3690fa685363130f6b499","189.155.244.165","Mozilla/5.0 (Windows NT 10.0; Win64; x64) AppleWebKit/537.36 (KHTML, like Gecko) Chrome/106.0.0.0 Safari/537.36 OPR/92.0.0.0","WebKit","Opera","92.0.0.0","Windows","10.0","null","null","","<p style=""font-size: 48px;"">+</p>","1","Filler","",""
"","","","","","sentence","75152","html-keyboard-response","88","218347","0.0-6.0-1.13","30","1","2022-11-15 17:32:17","fb7204e538d3690fa685363130f6b499","189.155.244.165","Mozilla/5.0 (Windows NT 10.0; Win64; x64) AppleWebKit/537.36 (KHTML, like Gecko) Chrome/106.0.0.0 Safari/537.36 OPR/92.0.0.0","WebKit","Opera","92.0.0.0","Windows","10.0","3747"," ","","A cat is drinking water from a bowl","1","Filler","",""
"","","","","","fixation","75152","html-keyboard-response","89","218850","0.0-6.0-2.13","30","1","2022-11-15 17:32:17","fb7204e538d3690fa685363130f6b499","189.155.244.165","Mozilla/5.0 (Windows NT 10.0; Win64; x64) AppleWebKit/537.36 (KHTML, like Gecko) Chrome/106.0.0.0 Safari/537.36 OPR/92.0.0.0","WebKit","Opera","92.0.0.0","Windows","10.0","null","null","","<p style=""font-size: 48px;"">+</p>","1","Filler","",""
"","","","","","picture","75152","image-keyboard-response","90","220839","0.0-6.0-3.13","30","1","2022-11-15 17:32:17","fb7204e538d3690fa685363130f6b499","189.155.244.165","Mozilla/5.0 (Windows NT 10.0; Win64; x64) AppleWebKit/537.36 (KHTML, like Gecko) Chrome/106.0.0.0 Safari/537.36 OPR/92.0.0.0","WebKit","Opera","92.0.0.0","Windows","10.0","1987","s","","bowl.jpg","1","Filler","true",""
"","","","","","fixation","75152","html-keyboard-response","91","221852","0.0-6.0-0.14","30","1","2022-11-15 17:32:17","fb7204e538d3690fa685363130f6b499","189.155.244.165","Mozilla/5.0 (Windows NT 10.0; Win64; x64) AppleWebKit/537.36 (KHTML, like Gecko) Chrome/106.0.0.0 Safari/537.36 OPR/92.0.0.0","WebKit","Opera","92.0.0.0","Windows","10.0","null","null","","<p style=""font-size: 48px;"">+</p>","1","Filler","",""
"","","","","","sentence","75152","html-keyboard-response","92","223549","0.0-6.0-1.14","30","1","2022-11-15 17:32:17","fb7204e538d3690fa685363130f6b499","189.155.244.165","Mozilla/5.0 (Windows NT 10.0; Win64; x64) AppleWebKit/537.36 (KHTML, like Gecko) Chrome/106.0.0.0 Safari/537.36 OPR/92.0.0.0","WebKit","Opera","92.0.0.0","Windows","10.0","1692"," ","","A dentist is drinking a can of cola","1","Filler","",""
"","","","","","fixation","75152","html-keyboard-response","93","224060","0.0-6.0-2.14","30","1","2022-11-15 17:32:17","fb7204e538d3690fa685363130f6b499","189.155.244.165","Mozilla/5.0 (Windows NT 10.0; Win64; x64) AppleWebKit/537.36 (KHTML, like Gecko) Chrome/106.0.0.0 Safari/537.36 OPR/92.0.0.0","WebKit","Opera","92.0.0.0","Windows","10.0","null","null","","<p style=""font-size: 48px;"">+</p>","1","Filler","",""
"","","","","","picture","75152","image-keyboard-response","94","224904","0.0-6.0-3.14","30","1","2022-11-15 17:32:17","fb7204e538d3690fa685363130f6b499","189.155.244.165","Mozilla/5.0 (Windows NT 10.0; Win64; x64) AppleWebKit/537.36 (KHTML, like Gecko) Chrome/106.0.0.0 Safari/537.36 OPR/92.0.0.0","WebKit","Opera","92.0.0.0","Windows","10.0","840","n","","doll.jpg","1","Filler","true",""
"","","","","","fixation","75152","html-keyboard-response","95","225907","0.0-6.0-0.15","30","1","2022-11-15 17:32:17","fb7204e538d3690fa685363130f6b499","189.155.244.165","Mozilla/5.0 (Windows NT 10.0; Win64; x64) AppleWebKit/537.36 (KHTML, like Gecko) Chrome/106.0.0.0 Safari/537.36 OPR/92.0.0.0","WebKit","Opera","92.0.0.0","Windows","10.0","null","null","","<p style=""font-size: 48px;"">+</p>","1","Light_Contradictory","",""
"","","","","","sentence","75152","html-keyboard-response","96","227895","0.0-6.0-1.15","30","1","2022-11-15 17:32:17","fb7204e538d3690fa685363130f6b499","189.155.244.165","Mozilla/5.0 (Windows NT 10.0; Win64; x64) AppleWebKit/537.36 (KHTML, like Gecko) Chrome/106.0.0.0 Safari/537.36 OPR/92.0.0.0","WebKit","Opera","92.0.0.0","Windows","10.0","1984"," ","","A balloon dropped and smashed a tile","1","Light_Contradictory","",""
"","","","","","fixation","75152","html-keyboard-response","97","228398","0.0-6.0-2.15","30","1","2022-11-15 17:32:17","fb7204e538d3690fa685363130f6b499","189.155.244.165","Mozilla/5.0 (Windows NT 10.0; Win64; x64) AppleWebKit/537.36 (KHTML, like Gecko) Chrome/106.0.0.0 Safari/537.36 OPR/92.0.0.0","WebKit","Opera","92.0.0.0","Windows","10.0","null","null","","<p style=""font-size: 48px;"">+</p>","1","Light_Contradictory","",""
"","","","","","picture","75152","image-keyboard-response","98","229192","0.0-6.0-3.15","30","1","2022-11-15 17:32:17","fb7204e538d3690fa685363130f6b499","189.155.244.165","Mozilla/5.0 (Windows NT 10.0; Win64; x64) AppleWebKit/537.36 (KHTML, like Gecko) Chrome/106.0.0.0 Safari/537.36 OPR/92.0.0.0","WebKit","Opera","92.0.0.0","Windows","10.0","790","s","","tileS.jpg","1","Light_Contradictory","true",""
"","","","","","fixation","75152","html-keyboard-response","99","230199","0.0-6.0-0.16","30","1","2022-11-15 17:32:17","fb7204e538d3690fa685363130f6b499","189.155.244.165","Mozilla/5.0 (Windows NT 10.0; Win64; x64) AppleWebKit/537.36 (KHTML, like Gecko) Chrome/106.0.0.0 Safari/537.36 OPR/92.0.0.0","WebKit","Opera","92.0.0.0","Windows","10.0","null","null","","<p style=""font-size: 48px;"">+</p>","1","Heavy_Contradictory","",""
"","","","","","sentence","75152","html-keyboard-response","100","233101","0.0-6.0-1.16","30","1","2022-11-15 17:32:17","fb7204e538d3690fa685363130f6b499","189.155.244.165","Mozilla/5.0 (Windows NT 10.0; Win64; x64) AppleWebKit/537.36 (KHTML, like Gecko) Chrome/106.0.0.0 Safari/537.36 OPR/92.0.0.0","WebKit","Opera","92.0.0.0","Windows","10.0","2895"," ","","A bowling ball dropped and touched a chocolate ice-cream","1","Heavy_Contradictory","",""
"","","","","","fixation","75152","html-keyboard-response","101","233605","0.0-6.0-2.16","30","1","2022-11-15 17:32:17","fb7204e538d3690fa685363130f6b499","189.155.244.165","Mozilla/5.0 (Windows NT 10.0; Win64; x64) AppleWebKit/537.36 (KHTML, like Gecko) Chrome/106.0.0.0 Safari/537.36 OPR/92.0.0.0","WebKit","Opera","92.0.0.0","Windows","10.0","null","null","","<p style=""font-size: 48px;"">+</p>","1","Heavy_Contradictory","",""
"","","","","","picture","75152","image-keyboard-response","102","234662","0.0-6.0-3.16","30","1","2022-11-15 17:32:17","fb7204e538d3690fa685363130f6b499","189.155.244.165","Mozilla/5.0 (Windows NT 10.0; Win64; x64) AppleWebKit/537.36 (KHTML, like Gecko) Chrome/106.0.0.0 Safari/537.36 OPR/92.0.0.0","WebKit","Opera","92.0.0.0","Windows","10.0","1055","s","","icecreamS.jpg","1","Heavy_Contradictory","true",""
"","","","","","fixation","75152","html-keyboard-response","103","235669","0.0-6.0-0.17","30","1","2022-11-15 17:32:17","fb7204e538d3690fa685363130f6b499","189.155.244.165","Mozilla/5.0 (Windows NT 10.0; Win64; x64) AppleWebKit/537.36 (KHTML, like Gecko) Chrome/106.0.0.0 Safari/537.36 OPR/92.0.0.0","WebKit","Opera","92.0.0.0","Windows","10.0","null","null","","<p style=""font-size: 48px;"">+</p>","1","Filler","",""
"","","","","","sentence","75152","html-keyboard-response","104","239024","0.0-6.0-1.17","30","1","2022-11-15 17:32:17","fb7204e538d3690fa685363130f6b499","189.155.244.165","Mozilla/5.0 (Windows NT 10.0; Win64; x64) AppleWebKit/537.36 (KHTML, like Gecko) Chrome/106.0.0.0 Safari/537.36 OPR/92.0.0.0","WebKit","Opera","92.0.0.0","Windows","10.0","3350"," ","","A postman is driving a car","1","Filler","",""
"","","","","","fixation","75152","html-keyboard-response","105","239528","0.0-6.0-2.17","30","1","2022-11-15 17:32:17","fb7204e538d3690fa685363130f6b499","189.155.244.165","Mozilla/5.0 (Windows NT 10.0; Win64; x64) AppleWebKit/537.36 (KHTML, like Gecko) Chrome/106.0.0.0 Safari/537.36 OPR/92.0.0.0","WebKit","Opera","92.0.0.0","Windows","10.0","null","null","","<p style=""font-size: 48px;"">+</p>","1","Filler","",""
"","","","","","picture","75152","image-keyboard-response","106","241392","0.0-6.0-3.17","30","1","2022-11-15 17:32:17","fb7204e538d3690fa685363130f6b499","189.155.244.165","Mozilla/5.0 (Windows NT 10.0; Win64; x64) AppleWebKit/537.36 (KHTML, like Gecko) Chrome/106.0.0.0 Safari/537.36 OPR/92.0.0.0","WebKit","Opera","92.0.0.0","Windows","10.0","1860","s","","car.jpg","1","Filler","true",""
"","","","","","fixation","75152","html-keyboard-response","107","242395","0.0-6.0-0.18","30","1","2022-11-15 17:32:17","fb7204e538d3690fa685363130f6b499","189.155.244.165","Mozilla/5.0 (Windows NT 10.0; Win64; x64) AppleWebKit/537.36 (KHTML, like Gecko) Chrome/106.0.0.0 Safari/537.36 OPR/92.0.0.0","WebKit","Opera","92.0.0.0","Windows","10.0","null","null","","<p style=""font-size: 48px;"">+</p>","1","Filler","",""
"","","","","","sentence","75152","html-keyboard-response","108","244524","0.0-6.0-1.18","30","1","2022-11-15 17:32:17","fb7204e538d3690fa685363130f6b499","189.155.244.165","Mozilla/5.0 (Windows NT 10.0; Win64; x64) AppleWebKit/537.36 (KHTML, like Gecko) Chrome/106.0.0.0 Safari/537.36 OPR/92.0.0.0","WebKit","Opera","92.0.0.0","Windows","10.0","2127"," ","","A cook is taking a knife","1","Filler","",""
"","","","","","fixation","75152","html-keyboard-response","109","245028","0.0-6.0-2.18","30","1","2022-11-15 17:32:17","fb7204e538d3690fa685363130f6b499","189.155.244.165","Mozilla/5.0 (Windows NT 10.0; Win64; x64) AppleWebKit/537.36 (KHTML, like Gecko) Chrome/106.0.0.0 Safari/537.36 OPR/92.0.0.0","WebKit","Opera","92.0.0.0","Windows","10.0","null","null","","<p style=""font-size: 48px;"">+</p>","1","Filler","",""
"","","","","","picture","75152","image-keyboard-response","110","245789","0.0-6.0-3.18","30","1","2022-11-15 17:32:17","fb7204e538d3690fa685363130f6b499","189.155.244.165","Mozilla/5.0 (Windows NT 10.0; Win64; x64) AppleWebKit/537.36 (KHTML, like Gecko) Chrome/106.0.0.0 Safari/537.36 OPR/92.0.0.0","WebKit","Opera","92.0.0.0","Windows","10.0","757","s","","knife.jpg","1","Filler","true",""
"","","","","","fixation","75152","html-keyboard-response","111","246792","0.0-6.0-0.19","30","1","2022-11-15 17:32:17","fb7204e538d3690fa685363130f6b499","189.155.244.165","Mozilla/5.0 (Windows NT 10.0; Win64; x64) AppleWebKit/537.36 (KHTML, like Gecko) Chrome/106.0.0.0 Safari/537.36 OPR/92.0.0.0","WebKit","Opera","92.0.0.0","Windows","10.0","null","null","","<p style=""font-size: 48px;"">+</p>","1","Light_Contradictory","",""
"","","","","","sentence","75152","html-keyboard-response","112","248560","0.0-6.0-1.19","30","1","2022-11-15 17:32:17","fb7204e538d3690fa685363130f6b499","189.155.244.165","Mozilla/5.0 (Windows NT 10.0; Win64; x64) AppleWebKit/537.36 (KHTML, like Gecko) Chrome/106.0.0.0 Safari/537.36 OPR/92.0.0.0","WebKit","Opera","92.0.0.0","Windows","10.0","1762"," ","","A balloon dropped and smashed a ceramic plate","1","Light_Contradictory","",""
"","","","","","fixation","75152","html-keyboard-response","113","249068","0.0-6.0-2.19","30","1","2022-11-15 17:32:17","fb7204e538d3690fa685363130f6b499","189.155.244.165","Mozilla/5.0 (Windows NT 10.0; Win64; x64) AppleWebKit/537.36 (KHTML, like Gecko) Chrome/106.0.0.0 Safari/537.36 OPR/92.0.0.0","WebKit","Opera","92.0.0.0","Windows","10.0","null","null","","<p style=""font-size: 48px;"">+</p>","1","Light_Contradictory","",""
"","","","","","picture","75152","image-keyboard-response","114","249936","0.0-6.0-3.19","30","1","2022-11-15 17:32:17","fb7204e538d3690fa685363130f6b499","189.155.244.165","Mozilla/5.0 (Windows NT 10.0; Win64; x64) AppleWebKit/537.36 (KHTML, like Gecko) Chrome/106.0.0.0 Safari/537.36 OPR/92.0.0.0","WebKit","Opera","92.0.0.0","Windows","10.0","865","s","","plateS.jpg","1","Light_Contradictory","true",""
"","","","","","fixation","75152","html-keyboard-response","115","250940","0.0-6.0-0.20","30","1","2022-11-15 17:32:17","fb7204e538d3690fa685363130f6b499","189.155.244.165","Mozilla/5.0 (Windows NT 10.0; Win64; x64) AppleWebKit/537.36 (KHTML, like Gecko) Chrome/106.0.0.0 Safari/537.36 OPR/92.0.0.0","WebKit","Opera","92.0.0.0","Windows","10.0","null","null","","<p style=""font-size: 48px;"">+</p>","1","Filler","",""
"","","","","","sentence","75152","html-keyboard-response","116","251810","0.0-6.0-1.20","30","1","2022-11-15 17:32:17","fb7204e538d3690fa685363130f6b499","189.155.244.165","Mozilla/5.0 (Windows NT 10.0; Win64; x64) AppleWebKit/537.36 (KHTML, like Gecko) Chrome/106.0.0.0 Safari/537.36 OPR/92.0.0.0","WebKit","Opera","92.0.0.0","Windows","10.0","866"," ","","A student is writing on a board","1","Filler","",""
"","","","","","fixation","75152","html-keyboard-response","117","252313","0.0-6.0-2.20","30","1","2022-11-15 17:32:17","fb7204e538d3690fa685363130f6b499","189.155.244.165","Mozilla/5.0 (Windows NT 10.0; Win64; x64) AppleWebKit/537.36 (KHTML, like Gecko) Chrome/106.0.0.0 Safari/537.36 OPR/92.0.0.0","WebKit","Opera","92.0.0.0","Windows","10.0","null","null","","<p style=""font-size: 48px;"">+</p>","1","Filler","",""
"","","","","","picture","75152","image-keyboard-response","118","253209","0.0-6.0-3.20","30","1","2022-11-15 17:32:17","fb7204e538d3690fa685363130f6b499","189.155.244.165","Mozilla/5.0 (Windows NT 10.0; Win64; x64) AppleWebKit/537.36 (KHTML, like Gecko) Chrome/106.0.0.0 Safari/537.36 OPR/92.0.0.0","WebKit","Opera","92.0.0.0","Windows","10.0","890","n","","owl.jpg","1","Filler","true",""
"","","","","","fixation","75152","html-keyboard-response","119","254215","0.0-6.0-0.21","30","1","2022-11-15 17:32:17","fb7204e538d3690fa685363130f6b499","189.155.244.165","Mozilla/5.0 (Windows NT 10.0; Win64; x64) AppleWebKit/537.36 (KHTML, like Gecko) Chrome/106.0.0.0 Safari/537.36 OPR/92.0.0.0","WebKit","Opera","92.0.0.0","Windows","10.0","null","null","","<p style=""font-size: 48px;"">+</p>","1","Filler","",""
"","","","","","sentence","75152","html-keyboard-response","120","255327","0.0-6.0-1.21","30","1","2022-11-15 17:32:17","fb7204e538d3690fa685363130f6b499","189.155.244.165","Mozilla/5.0 (Windows NT 10.0; Win64; x64) AppleWebKit/537.36 (KHTML, like Gecko) Chrome/106.0.0.0 Safari/537.36 OPR/92.0.0.0","WebKit","Opera","92.0.0.0","Windows","10.0","1110"," ","","A zebra is playing with a horse","1","Filler","",""
"","","","","","fixation","75152","html-keyboard-response","121","255829","0.0-6.0-2.21","30","1","2022-11-15 17:32:17","fb7204e538d3690fa685363130f6b499","189.155.244.165","Mozilla/5.0 (Windows NT 10.0; Win64; x64) AppleWebKit/537.36 (KHTML, like Gecko) Chrome/106.0.0.0 Safari/537.36 OPR/92.0.0.0","WebKit","Opera","92.0.0.0","Windows","10.0","null","null","","<p style=""font-size: 48px;"">+</p>","1","Filler","",""
"","","","","","picture","75152","image-keyboard-response","122","256548","0.0-6.0-3.21","30","1","2022-11-15 17:32:17","fb7204e538d3690fa685363130f6b499","189.155.244.165","Mozilla/5.0 (Windows NT 10.0; Win64; x64) AppleWebKit/537.36 (KHTML, like Gecko) Chrome/106.0.0.0 Safari/537.36 OPR/92.0.0.0","WebKit","Opera","92.0.0.0","Windows","10.0","716","n","","watch.jpg","1","Filler","true",""
"","","","","","fixation","75152","html-keyboard-response","123","257561","0.0-6.0-0.22","30","1","2022-11-15 17:32:17","fb7204e538d3690fa685363130f6b499","189.155.244.165","Mozilla/5.0 (Windows NT 10.0; Win64; x64) AppleWebKit/537.36 (KHTML, like Gecko) Chrome/106.0.0.0 Safari/537.36 OPR/92.0.0.0","WebKit","Opera","92.0.0.0","Windows","10.0","null","null","","<p style=""font-size: 48px;"">+</p>","1","Filler","",""
"","","","","","sentence","75152","html-keyboard-response","124","258310","0.0-6.0-1.22","30","1","2022-11-15 17:32:17","fb7204e538d3690fa685363130f6b499","189.155.244.165","Mozilla/5.0 (Windows NT 10.0; Win64; x64) AppleWebKit/537.36 (KHTML, like Gecko) Chrome/106.0.0.0 Safari/537.36 OPR/92.0.0.0","WebKit","Opera","92.0.0.0","Windows","10.0","740"," ","","A thermometer was placed on the box","1","Filler","",""
"","","","","","fixation","75152","html-keyboard-response","125","258816","0.0-6.0-2.22","30","1","2022-11-15 17:32:17","fb7204e538d3690fa685363130f6b499","189.155.244.165","Mozilla/5.0 (Windows NT 10.0; Win64; x64) AppleWebKit/537.36 (KHTML, like Gecko) Chrome/106.0.0.0 Safari/537.36 OPR/92.0.0.0","WebKit","Opera","92.0.0.0","Windows","10.0","null","null","","<p style=""font-size: 48px;"">+</p>","1","Filler","",""
"","","","","","picture","75152","image-keyboard-response","126","259545","0.0-6.0-3.22","30","1","2022-11-15 17:32:17","fb7204e538d3690fa685363130f6b499","189.155.244.165","Mozilla/5.0 (Windows NT 10.0; Win64; x64) AppleWebKit/537.36 (KHTML, like Gecko) Chrome/106.0.0.0 Safari/537.36 OPR/92.0.0.0","WebKit","Opera","92.0.0.0","Windows","10.0","726","n","","button.jpg","1","Filler","true",""
"","","","","","fixation","75152","html-keyboard-response","127","260546","0.0-6.0-0.23","30","1","2022-11-15 17:32:17","fb7204e538d3690fa685363130f6b499","189.155.244.165","Mozilla/5.0 (Windows NT 10.0; Win64; x64) AppleWebKit/537.36 (KHTML, like Gecko) Chrome/106.0.0.0 Safari/537.36 OPR/92.0.0.0","WebKit","Opera","92.0.0.0","Windows","10.0","null","null","","<p style=""font-size: 48px;"">+</p>","1","Filler","",""
"","","","","","sentence","75152","html-keyboard-response","128","261075","0.0-6.0-1.23","30","1","2022-11-15 17:32:17","fb7204e538d3690fa685363130f6b499","189.155.244.165","Mozilla/5.0 (Windows NT 10.0; Win64; x64) AppleWebKit/537.36 (KHTML, like Gecko) Chrome/106.0.0.0 Safari/537.36 OPR/92.0.0.0","WebKit","Opera","92.0.0.0","Windows","10.0","527"," ","","A pilot is reading a book","1","Filler","",""
"","","","","","fixation","75152","html-keyboard-response","129","261579","0.0-6.0-2.23","30","1","2022-11-15 17:32:17","fb7204e538d3690fa685363130f6b499","189.155.244.165","Mozilla/5.0 (Windows NT 10.0; Win64; x64) AppleWebKit/537.36 (KHTML, like Gecko) Chrome/106.0.0.0 Safari/537.36 OPR/92.0.0.0","WebKit","Opera","92.0.0.0","Windows","10.0","null","null","","<p style=""font-size: 48px;"">+</p>","1","Filler","",""
"","","","","","picture","75152","image-keyboard-response","130","262306","0.0-6.0-3.23","30","1","2022-11-15 17:32:17","fb7204e538d3690fa685363130f6b499","189.155.244.165","Mozilla/5.0 (Windows NT 10.0; Win64; x64) AppleWebKit/537.36 (KHTML, like Gecko) Chrome/106.0.0.0 Safari/537.36 OPR/92.0.0.0","WebKit","Opera","92.0.0.0","Windows","10.0","722","n","","spoon.jpg","1","Filler","true",""
"","","","","","fixation","75152","html-keyboard-response","131","263310","0.0-6.0-0.24","30","1","2022-11-15 17:32:17","fb7204e538d3690fa685363130f6b499","189.155.244.165","Mozilla/5.0 (Windows NT 10.0; Win64; x64) AppleWebKit/537.36 (KHTML, like Gecko) Chrome/106.0.0.0 Safari/537.36 OPR/92.0.0.0","WebKit","Opera","92.0.0.0","Windows","10.0","null","null","","<p style=""font-size: 48px;"">+</p>","1","Filler","",""
"","","","","","sentence","75152","html-keyboard-response","132","264047","0.0-6.0-1.24","30","1","2022-11-15 17:32:17","fb7204e538d3690fa685363130f6b499","189.155.244.165","Mozilla/5.0 (Windows NT 10.0; Win64; x64) AppleWebKit/537.36 (KHTML, like Gecko) Chrome/106.0.0.0 Safari/537.36 OPR/92.0.0.0","WebKit","Opera","92.0.0.0","Windows","10.0","733"," ","","An owl is sitting on the branch","1","Filler","",""
"","","","","","fixation","75152","html-keyboard-response","133","264549","0.0-6.0-2.24","30","1","2022-11-15 17:32:17","fb7204e538d3690fa685363130f6b499","189.155.244.165","Mozilla/5.0 (Windows NT 10.0; Win64; x64) AppleWebKit/537.36 (KHTML, like Gecko) Chrome/106.0.0.0 Safari/537.36 OPR/92.0.0.0","WebKit","Opera","92.0.0.0","Windows","10.0","null","null","","<p style=""font-size: 48px;"">+</p>","1","Filler","",""
"","","","","","picture","75152","image-keyboard-response","134","265398","0.0-6.0-3.24","30","1","2022-11-15 17:32:17","fb7204e538d3690fa685363130f6b499","189.155.244.165","Mozilla/5.0 (Windows NT 10.0; Win64; x64) AppleWebKit/537.36 (KHTML, like Gecko) Chrome/106.0.0.0 Safari/537.36 OPR/92.0.0.0","WebKit","Opera","92.0.0.0","Windows","10.0","847","n","","rubberduck.jpg","1","Filler","true",""
"","","","","","fixation","75152","html-keyboard-response","135","266401","0.0-6.0-0.25","30","1","2022-11-15 17:32:17","fb7204e538d3690fa685363130f6b499","189.155.244.165","Mozilla/5.0 (Windows NT 10.0; Win64; x64) AppleWebKit/537.36 (KHTML, like Gecko) Chrome/106.0.0.0 Safari/537.36 OPR/92.0.0.0","WebKit","Opera","92.0.0.0","Windows","10.0","null","null","","<p style=""font-size: 48px;"">+</p>","1","Filler","",""
"","","","","","sentence","75152","html-keyboard-response","136","267067","0.0-6.0-1.25","30","1","2022-11-15 17:32:17","fb7204e538d3690fa685363130f6b499","189.155.244.165","Mozilla/5.0 (Windows NT 10.0; Win64; x64) AppleWebKit/537.36 (KHTML, like Gecko) Chrome/106.0.0.0 Safari/537.36 OPR/92.0.0.0","WebKit","Opera","92.0.0.0","Windows","10.0","664"," ","","A man is boiling potatoes.","1","Filler","",""
"","","","","","fixation","75152","html-keyboard-response","137","267569","0.0-6.0-2.25","30","1","2022-11-15 17:32:17","fb7204e538d3690fa685363130f6b499","189.155.244.165","Mozilla/5.0 (Windows NT 10.0; Win64; x64) AppleWebKit/537.36 (KHTML, like Gecko) Chrome/106.0.0.0 Safari/537.36 OPR/92.0.0.0","WebKit","Opera","92.0.0.0","Windows","10.0","null","null","","<p style=""font-size: 48px;"">+</p>","1","Filler","",""
"","","","","","picture","75152","image-keyboard-response","138","268278","0.0-6.0-3.25","30","1","2022-11-15 17:32:17","fb7204e538d3690fa685363130f6b499","189.155.244.165","Mozilla/5.0 (Windows NT 10.0; Win64; x64) AppleWebKit/537.36 (KHTML, like Gecko) Chrome/106.0.0.0 Safari/537.36 OPR/92.0.0.0","WebKit","Opera","92.0.0.0","Windows","10.0","702","n","","cup.jpg","1","Filler","true",""
"","","","","","fixation","75152","html-keyboard-response","139","269281","0.0-6.0-0.26","30","1","2022-11-15 17:32:17","fb7204e538d3690fa685363130f6b499","189.155.244.165","Mozilla/5.0 (Windows NT 10.0; Win64; x64) AppleWebKit/537.36 (KHTML, like Gecko) Chrome/106.0.0.0 Safari/537.36 OPR/92.0.0.0","WebKit","Opera","92.0.0.0","Windows","10.0","null","null","","<p style=""font-size: 48px;"">+</p>","1","Filler","",""
"","","","","","sentence","75152","html-keyboard-response","140","270136","0.0-6.0-1.26","30","1","2022-11-15 17:32:17","fb7204e538d3690fa685363130f6b499","189.155.244.165","Mozilla/5.0 (Windows NT 10.0; Win64; x64) AppleWebKit/537.36 (KHTML, like Gecko) Chrome/106.0.0.0 Safari/537.36 OPR/92.0.0.0","WebKit","Opera","92.0.0.0","Windows","10.0","852"," ","","A toothbrush was placed on the sponge","1","Filler","",""
"","","","","","fixation","75152","html-keyboard-response","141","270640","0.0-6.0-2.26","30","1","2022-11-15 17:32:17","fb7204e538d3690fa685363130f6b499","189.155.244.165","Mozilla/5.0 (Windows NT 10.0; Win64; x64) AppleWebKit/537.36 (KHTML, like Gecko) Chrome/106.0.0.0 Safari/537.36 OPR/92.0.0.0","WebKit","Opera","92.0.0.0","Windows","10.0","null","null","","<p style=""font-size: 48px;"">+</p>","1","Filler","",""
"","","","","","picture","75152","image-keyboard-response","142","271237","0.0-6.0-3.26","30","1","2022-11-15 17:32:17","fb7204e538d3690fa685363130f6b499","189.155.244.165","Mozilla/5.0 (Windows NT 10.0; Win64; x64) AppleWebKit/537.36 (KHTML, like Gecko) Chrome/106.0.0.0 Safari/537.36 OPR/92.0.0.0","WebKit","Opera","92.0.0.0","Windows","10.0","589","s","","sponge.jpg","1","Filler","true",""
"","","","","","fixation","75152","html-keyboard-response","143","272242","0.0-6.0-0.27","30","1","2022-11-15 17:32:17","fb7204e538d3690fa685363130f6b499","189.155.244.165","Mozilla/5.0 (Windows NT 10.0; Win64; x64) AppleWebKit/537.36 (KHTML, like Gecko) Chrome/106.0.0.0 Safari/537.36 OPR/92.0.0.0","WebKit","Opera","92.0.0.0","Windows","10.0","null","null","","<p style=""font-size: 48px;"">+</p>","1","Filler","",""
"","","","","","sentence","75152","html-keyboard-response","144","272842","0.0-6.0-1.27","30","1","2022-11-15 17:32:17","fb7204e538d3690fa685363130f6b499","189.155.244.165","Mozilla/5.0 (Windows NT 10.0; Win64; x64) AppleWebKit/537.36 (KHTML, like Gecko) Chrome/106.0.0.0 Safari/537.36 OPR/92.0.0.0","WebKit","Opera","92.0.0.0","Windows","10.0","597"," ","","A giraffe is playing with a zebra","1","Filler","",""
"","","","","","fixation","75152","html-keyboard-response","145","273345","0.0-6.0-2.27","30","1","2022-11-15 17:32:17","fb7204e538d3690fa685363130f6b499","189.155.244.165","Mozilla/5.0 (Windows NT 10.0; Win64; x64) AppleWebKit/537.36 (KHTML, like Gecko) Chrome/106.0.0.0 Safari/537.36 OPR/92.0.0.0","WebKit","Opera","92.0.0.0","Windows","10.0","null","null","","<p style=""font-size: 48px;"">+</p>","1","Filler","",""
"","","","","","picture","75152","image-keyboard-response","146","274364","0.0-6.0-3.27","30","1","2022-11-15 17:32:17","fb7204e538d3690fa685363130f6b499","189.155.244.165","Mozilla/5.0 (Windows NT 10.0; Win64; x64) AppleWebKit/537.36 (KHTML, like Gecko) Chrome/106.0.0.0 Safari/537.36 OPR/92.0.0.0","WebKit","Opera","92.0.0.0","Windows","10.0","1010","n","","wallet.jpg","1","Filler","true",""
"","","","","","fixation","75152","html-keyboard-response","147","275367","0.0-6.0-0.28","30","1","2022-11-15 17:32:17","fb7204e538d3690fa685363130f6b499","189.155.244.165","Mozilla/5.0 (Windows NT 10.0; Win64; x64) AppleWebKit/537.36 (KHTML, like Gecko) Chrome/106.0.0.0 Safari/537.36 OPR/92.0.0.0","WebKit","Opera","92.0.0.0","Windows","10.0","null","null","","<p style=""font-size: 48px;"">+</p>","1","Heavy_Matched","",""
"","","","","","sentence","75152","html-keyboard-response","148","276672","0.0-6.0-1.28","30","1","2022-11-15 17:32:17","fb7204e538d3690fa685363130f6b499","189.155.244.165","Mozilla/5.0 (Windows NT 10.0; Win64; x64) AppleWebKit/537.36 (KHTML, like Gecko) Chrome/106.0.0.0 Safari/537.36 OPR/92.0.0.0","WebKit","Opera","92.0.0.0","Windows","10.0","1303"," ","","A bowling ball dropped and smashed a piece of cake","1","Heavy_Matched","",""
"","","","","","fixation","75152","html-keyboard-response","149","277177","0.0-6.0-2.28","30","1","2022-11-15 17:32:17","fb7204e538d3690fa685363130f6b499","189.155.244.165","Mozilla/5.0 (Windows NT 10.0; Win64; x64) AppleWebKit/537.36 (KHTML, like Gecko) Chrome/106.0.0.0 Safari/537.36 OPR/92.0.0.0","WebKit","Opera","92.0.0.0","Windows","10.0","null","null","","<p style=""font-size: 48px;"">+</p>","1","Heavy_Matched","",""
"","","","","","picture","75152","image-keyboard-response","150","279218","0.0-6.0-3.28","30","1","2022-11-15 17:32:17","fb7204e538d3690fa685363130f6b499","189.155.244.165","Mozilla/5.0 (Windows NT 10.0; Win64; x64) AppleWebKit/537.36 (KHTML, like Gecko) Chrome/106.0.0.0 Safari/537.36 OPR/92.0.0.0","WebKit","Opera","92.0.0.0","Windows","10.0","2037","s","","cakeS.jpg","1","Heavy_Matched","true",""
"","","","","","fixation","75152","html-keyboard-response","151","280222","0.0-6.0-0.29","30","1","2022-11-15 17:32:17","fb7204e538d3690fa685363130f6b499","189.155.244.165","Mozilla/5.0 (Windows NT 10.0; Win64; x64) AppleWebKit/537.36 (KHTML, like Gecko) Chrome/106.0.0.0 Safari/537.36 OPR/92.0.0.0","WebKit","Opera","92.0.0.0","Windows","10.0","null","null","","<p style=""font-size: 48px;"">+</p>","1","Filler","",""
"","","","","","sentence","75152","html-keyboard-response","152","281365","0.0-6.0-1.29","30","1","2022-11-15 17:32:17","fb7204e538d3690fa685363130f6b499","189.155.244.165","Mozilla/5.0 (Windows NT 10.0; Win64; x64) AppleWebKit/537.36 (KHTML, like Gecko) Chrome/106.0.0.0 Safari/537.36 OPR/92.0.0.0","WebKit","Opera","92.0.0.0","Windows","10.0","1139"," ","","A watch was placed on the laptop","1","Filler","",""
"","","","","","fixation","75152","html-keyboard-response","153","281868","0.0-6.0-2.29","30","1","2022-11-15 17:32:17","fb7204e538d3690fa685363130f6b499","189.155.244.165","Mozilla/5.0 (Windows NT 10.0; Win64; x64) AppleWebKit/537.36 (KHTML, like Gecko) Chrome/106.0.0.0 Safari/537.36 OPR/92.0.0.0","WebKit","Opera","92.0.0.0","Windows","10.0","null","null","","<p style=""font-size: 48px;"">+</p>","1","Filler","",""
"","","","","","picture","75152","image-keyboard-response","154","282651","0.0-6.0-3.29","30","1","2022-11-15 17:32:17","fb7204e538d3690fa685363130f6b499","189.155.244.165","Mozilla/5.0 (Windows NT 10.0; Win64; x64) AppleWebKit/537.36 (KHTML, like Gecko) Chrome/106.0.0.0 Safari/537.36 OPR/92.0.0.0","WebKit","Opera","92.0.0.0","Windows","10.0","779","n","","bow.jpg","1","Filler","true",""
"","","","","","fixation","75152","html-keyboard-response","155","283655","0.0-6.0-0.30","30","1","2022-11-15 17:32:17","fb7204e538d3690fa685363130f6b499","189.155.244.165","Mozilla/5.0 (Windows NT 10.0; Win64; x64) AppleWebKit/537.36 (KHTML, like Gecko) Chrome/106.0.0.0 Safari/537.36 OPR/92.0.0.0","WebKit","Opera","92.0.0.0","Windows","10.0","null","null","","<p style=""font-size: 48px;"">+</p>","1","Light_Matched","",""
"","","","","","sentence","75152","html-keyboard-response","156","284337","0.0-6.0-1.30","30","1","2022-11-15 17:32:17","fb7204e538d3690fa685363130f6b499","189.155.244.165","Mozilla/5.0 (Windows NT 10.0; Win64; x64) AppleWebKit/537.36 (KHTML, like Gecko) Chrome/106.0.0.0 Safari/537.36 OPR/92.0.0.0","WebKit","Opera","92.0.0.0","Windows","10.0","680"," ","","A balloon dropped and touched a mirror","1","Light_Matched","",""
"","","","","","fixation","75152","html-keyboard-response","157","284841","0.0-6.0-2.30","30","1","2022-11-15 17:32:17","fb7204e538d3690fa685363130f6b499","189.155.244.165","Mozilla/5.0 (Windows NT 10.0; Win64; x64) AppleWebKit/537.36 (KHTML, like Gecko) Chrome/106.0.0.0 Safari/537.36 OPR/92.0.0.0","WebKit","Opera","92.0.0.0","Windows","10.0","null","null","","<p style=""font-size: 48px;"">+</p>","1","Light_Matched","",""
"","","","","","picture","75152","image-keyboard-response","158","285737","0.0-6.0-3.30","30","1","2022-11-15 17:32:17","fb7204e538d3690fa685363130f6b499","189.155.244.165","Mozilla/5.0 (Windows NT 10.0; Win64; x64) AppleWebKit/537.36 (KHTML, like Gecko) Chrome/106.0.0.0 Safari/537.36 OPR/92.0.0.0","WebKit","Opera","92.0.0.0","Windows","10.0","890","s","","mirrorS.jpg","1","Light_Matched","true",""
"","","","","","fixation","75152","html-keyboard-response","159","286754","0.0-6.0-0.31","30","1","2022-11-15 17:32:17","fb7204e538d3690fa685363130f6b499","189.155.244.165","Mozilla/5.0 (Windows NT 10.0; Win64; x64) AppleWebKit/537.36 (KHTML, like Gecko) Chrome/106.0.0.0 Safari/537.36 OPR/92.0.0.0","WebKit","Opera","92.0.0.0","Windows","10.0","null","null","","<p style=""font-size: 48px;"">+</p>","1","Heavy_Contradictory","",""
"","","","","","sentence","75152","html-keyboard-response","160","287919","0.0-6.0-1.31","30","1","2022-11-15 17:32:17","fb7204e538d3690fa685363130f6b499","189.155.244.165","Mozilla/5.0 (Windows NT 10.0; Win64; x64) AppleWebKit/537.36 (KHTML, like Gecko) Chrome/106.0.0.0 Safari/537.36 OPR/92.0.0.0","WebKit","Opera","92.0.0.0","Windows","10.0","1163"," ","","A bowling ball dropped and touched a banana","1","Heavy_Contradictory","",""
"","","","","","fixation","75152","html-keyboard-response","161","288437","0.0-6.0-2.31","30","1","2022-11-15 17:32:17","fb7204e538d3690fa685363130f6b499","189.155.244.165","Mozilla/5.0 (Windows NT 10.0; Win64; x64) AppleWebKit/537.36 (KHTML, like Gecko) Chrome/106.0.0.0 Safari/537.36 OPR/92.0.0.0","WebKit","Opera","92.0.0.0","Windows","10.0","null","null","","<p style=""font-size: 48px;"">+</p>","1","Heavy_Contradictory","",""
"","","","","","picture","75152","image-keyboard-response","162","289007","0.0-6.0-3.31","30","1","2022-11-15 17:32:17","fb7204e538d3690fa685363130f6b499","189.155.244.165","Mozilla/5.0 (Windows NT 10.0; Win64; x64) AppleWebKit/537.36 (KHTML, like Gecko) Chrome/106.0.0.0 Safari/537.36 OPR/92.0.0.0","WebKit","Opera","92.0.0.0","Windows","10.0","567","s","","bananaS.jpg","1","Heavy_Contradictory","true",""
"","","","","","fixation","75152","html-keyboard-response","163","290011","0.0-6.0-0.32","30","1","2022-11-15 17:32:17","fb7204e538d3690fa685363130f6b499","189.155.244.165","Mozilla/5.0 (Windows NT 10.0; Win64; x64) AppleWebKit/537.36 (KHTML, like Gecko) Chrome/106.0.0.0 Safari/537.36 OPR/92.0.0.0","WebKit","Opera","92.0.0.0","Windows","10.0","null","null","","<p style=""font-size: 48px;"">+</p>","1","Light_Contradictory","",""
"","","","","","sentence","75152","html-keyboard-response","164","290678","0.0-6.0-1.32","30","1","2022-11-15 17:32:17","fb7204e538d3690fa685363130f6b499","189.155.244.165","Mozilla/5.0 (Windows NT 10.0; Win64; x64) AppleWebKit/537.36 (KHTML, like Gecko) Chrome/106.0.0.0 Safari/537.36 OPR/92.0.0.0","WebKit","Opera","92.0.0.0","Windows","10.0","665"," ","","A balloon dropped and smashed a tomato","1","Light_Contradictory","",""
"","","","","","fixation","75152","html-keyboard-response","165","291187","0.0-6.0-2.32","30","1","2022-11-15 17:32:17","fb7204e538d3690fa685363130f6b499","189.155.244.165","Mozilla/5.0 (Windows NT 10.0; Win64; x64) AppleWebKit/537.36 (KHTML, like Gecko) Chrome/106.0.0.0 Safari/537.36 OPR/92.0.0.0","WebKit","Opera","92.0.0.0","Windows","10.0","null","null","","<p style=""font-size: 48px;"">+</p>","1","Light_Contradictory","",""
"","","","","","picture","75152","image-keyboard-response","166","291892","0.0-6.0-3.32","30","1","2022-11-15 17:32:17","fb7204e538d3690fa685363130f6b499","189.155.244.165","Mozilla/5.0 (Windows NT 10.0; Win64; x64) AppleWebKit/537.36 (KHTML, like Gecko) Chrome/106.0.0.0 Safari/537.36 OPR/92.0.0.0","WebKit","Opera","92.0.0.0","Windows","10.0","702","s","","tomatoS.jpg","1","Light_Contradictory","true",""
"","","","","","fixation","75152","html-keyboard-response","167","292899","0.0-6.0-0.33","30","1","2022-11-15 17:32:17","fb7204e538d3690fa685363130f6b499","189.155.244.165","Mozilla/5.0 (Windows NT 10.0; Win64; x64) AppleWebKit/537.36 (KHTML, like Gecko) Chrome/106.0.0.0 Safari/537.36 OPR/92.0.0.0","WebKit","Opera","92.0.0.0","Windows","10.0","null","null","","<p style=""font-size: 48px;"">+</p>","1","Light_Matched","",""
"","","","","","sentence","75152","html-keyboard-response","168","294311","0.0-6.0-1.33","30","1","2022-11-15 17:32:17","fb7204e538d3690fa685363130f6b499","189.155.244.165","Mozilla/5.0 (Windows NT 10.0; Win64; x64) AppleWebKit/537.36 (KHTML, like Gecko) Chrome/106.0.0.0 Safari/537.36 OPR/92.0.0.0","WebKit","Opera","92.0.0.0","Windows","10.0","1408"," ","","A balloon dropped and touched a rice cake","1","Light_Matched","",""
"","","","","","fixation","75152","html-keyboard-response","169","294815","0.0-6.0-2.33","30","1","2022-11-15 17:32:17","fb7204e538d3690fa685363130f6b499","189.155.244.165","Mozilla/5.0 (Windows NT 10.0; Win64; x64) AppleWebKit/537.36 (KHTML, like Gecko) Chrome/106.0.0.0 Safari/537.36 OPR/92.0.0.0","WebKit","Opera","92.0.0.0","Windows","10.0","null","null","","<p style=""font-size: 48px;"">+</p>","1","Light_Matched","",""
"","","","","","picture","75152","image-keyboard-response","170","297872","0.0-6.0-3.33","30","1","2022-11-15 17:32:17","fb7204e538d3690fa685363130f6b499","189.155.244.165","Mozilla/5.0 (Windows NT 10.0; Win64; x64) AppleWebKit/537.36 (KHTML, like Gecko) Chrome/106.0.0.0 Safari/537.36 OPR/92.0.0.0","WebKit","Opera","92.0.0.0","Windows","10.0","3054","s","","tortitaS.jpg","1","Light_Matched","true",""
"","","","","","fixation","75152","html-keyboard-response","171","298876","0.0-6.0-0.34","30","1","2022-11-15 17:32:17","fb7204e538d3690fa685363130f6b499","189.155.244.165","Mozilla/5.0 (Windows NT 10.0; Win64; x64) AppleWebKit/537.36 (KHTML, like Gecko) Chrome/106.0.0.0 Safari/537.36 OPR/92.0.0.0","WebKit","Opera","92.0.0.0","Windows","10.0","null","null","","<p style=""font-size: 48px;"">+</p>","1","Filler","",""
"","","","","","sentence","75152","html-keyboard-response","172","299666","0.0-6.0-1.34","30","1","2022-11-15 17:32:17","fb7204e538d3690fa685363130f6b499","189.155.244.165","Mozilla/5.0 (Windows NT 10.0; Win64; x64) AppleWebKit/537.36 (KHTML, like Gecko) Chrome/106.0.0.0 Safari/537.36 OPR/92.0.0.0","WebKit","Opera","92.0.0.0","Windows","10.0","786"," ","","A towel was placed on the TV","1","Filler","",""
"","","","","","fixation","75152","html-keyboard-response","173","300171","0.0-6.0-2.34","30","1","2022-11-15 17:32:17","fb7204e538d3690fa685363130f6b499","189.155.244.165","Mozilla/5.0 (Windows NT 10.0; Win64; x64) AppleWebKit/537.36 (KHTML, like Gecko) Chrome/106.0.0.0 Safari/537.36 OPR/92.0.0.0","WebKit","Opera","92.0.0.0","Windows","10.0","null","null","","<p style=""font-size: 48px;"">+</p>","1","Filler","",""
"","","","","","picture","75152","image-keyboard-response","174","300796","0.0-6.0-3.34","30","1","2022-11-15 17:32:17","fb7204e538d3690fa685363130f6b499","189.155.244.165","Mozilla/5.0 (Windows NT 10.0; Win64; x64) AppleWebKit/537.36 (KHTML, like Gecko) Chrome/106.0.0.0 Safari/537.36 OPR/92.0.0.0","WebKit","Opera","92.0.0.0","Windows","10.0","623","n","","pencil.jpg","1","Filler","true",""
"","","","","","fixation","75152","html-keyboard-response","175","301800","0.0-6.0-0.35","30","1","2022-11-15 17:32:17","fb7204e538d3690fa685363130f6b499","189.155.244.165","Mozilla/5.0 (Windows NT 10.0; Win64; x64) AppleWebKit/537.36 (KHTML, like Gecko) Chrome/106.0.0.0 Safari/537.36 OPR/92.0.0.0","WebKit","Opera","92.0.0.0","Windows","10.0","null","null","","<p style=""font-size: 48px;"">+</p>","1","Filler","",""
"","","","","","sentence","75152","html-keyboard-response","176","302543","0.0-6.0-1.35","30","1","2022-11-15 17:32:17","fb7204e538d3690fa685363130f6b499","189.155.244.165","Mozilla/5.0 (Windows NT 10.0; Win64; x64) AppleWebKit/537.36 (KHTML, like Gecko) Chrome/106.0.0.0 Safari/537.36 OPR/92.0.0.0","WebKit","Opera","92.0.0.0","Windows","10.0","731"," ","","A donkey is drinking water.","1","Filler","",""
"","","","","","fixation","75152","html-keyboard-response","177","303048","0.0-6.0-2.35","30","1","2022-11-15 17:32:17","fb7204e538d3690fa685363130f6b499","189.155.244.165","Mozilla/5.0 (Windows NT 10.0; Win64; x64) AppleWebKit/537.36 (KHTML, like Gecko) Chrome/106.0.0.0 Safari/537.36 OPR/92.0.0.0","WebKit","Opera","92.0.0.0","Windows","10.0","null","null","","<p style=""font-size: 48px;"">+</p>","1","Filler","",""
"","","","","","picture","75152","image-keyboard-response","178","303673","0.0-6.0-3.35","30","1","2022-11-15 17:32:17","fb7204e538d3690fa685363130f6b499","189.155.244.165","Mozilla/5.0 (Windows NT 10.0; Win64; x64) AppleWebKit/537.36 (KHTML, like Gecko) Chrome/106.0.0.0 Safari/537.36 OPR/92.0.0.0","WebKit","Opera","92.0.0.0","Windows","10.0","619","n","","couch.jpg","1","Filler","true",""
"","","","","","fixation","75152","html-keyboard-response","179","304677","0.0-6.0-0.36","30","1","2022-11-15 17:32:17","fb7204e538d3690fa685363130f6b499","189.155.244.165","Mozilla/5.0 (Windows NT 10.0; Win64; x64) AppleWebKit/537.36 (KHTML, like Gecko) Chrome/106.0.0.0 Safari/537.36 OPR/92.0.0.0","WebKit","Opera","92.0.0.0","Windows","10.0","null","null","","<p style=""font-size: 48px;"">+</p>","1","Filler","",""
"","","","","","sentence","75152","html-keyboard-response","180","305262","0.0-6.0-1.36","30","1","2022-11-15 17:32:17","fb7204e538d3690fa685363130f6b499","189.155.244.165","Mozilla/5.0 (Windows NT 10.0; Win64; x64) AppleWebKit/537.36 (KHTML, like Gecko) Chrome/106.0.0.0 Safari/537.36 OPR/92.0.0.0","WebKit","Opera","92.0.0.0","Windows","10.0","579"," ","","An old man is hammering a nail","1","Filler","",""
"","","","","","fixation","75152","html-keyboard-response","181","305771","0.0-6.0-2.36","30","1","2022-11-15 17:32:17","fb7204e538d3690fa685363130f6b499","189.155.244.165","Mozilla/5.0 (Windows NT 10.0; Win64; x64) AppleWebKit/537.36 (KHTML, like Gecko) Chrome/106.0.0.0 Safari/537.36 OPR/92.0.0.0","WebKit","Opera","92.0.0.0","Windows","10.0","null","null","","<p style=""font-size: 48px;"">+</p>","1","Filler","",""
"","","","","","picture","75152","image-keyboard-response","182","306396","0.0-6.0-3.36","30","1","2022-11-15 17:32:17","fb7204e538d3690fa685363130f6b499","189.155.244.165","Mozilla/5.0 (Windows NT 10.0; Win64; x64) AppleWebKit/537.36 (KHTML, like Gecko) Chrome/106.0.0.0 Safari/537.36 OPR/92.0.0.0","WebKit","Opera","92.0.0.0","Windows","10.0","622","s","","nail.jpg","1","Filler","true",""
"","","","","","fixation","75152","html-keyboard-response","183","307404","0.0-6.0-0.37","30","1","2022-11-15 17:32:17","fb7204e538d3690fa685363130f6b499","189.155.244.165","Mozilla/5.0 (Windows NT 10.0; Win64; x64) AppleWebKit/537.36 (KHTML, like Gecko) Chrome/106.0.0.0 Safari/537.36 OPR/92.0.0.0","WebKit","Opera","92.0.0.0","Windows","10.0","null","null","","<p style=""font-size: 48px;"">+</p>","1","Filler","",""
"","","","","","sentence","75152","html-keyboard-response","184","308101","0.0-6.0-1.37","30","1","2022-11-15 17:32:17","fb7204e538d3690fa685363130f6b499","189.155.244.165","Mozilla/5.0 (Windows NT 10.0; Win64; x64) AppleWebKit/537.36 (KHTML, like Gecko) Chrome/106.0.0.0 Safari/537.36 OPR/92.0.0.0","WebKit","Opera","92.0.0.0","Windows","10.0","693"," ","","A cushion was placed on the magazine","1","Filler","",""
"","","","","","fixation","75152","html-keyboard-response","185","308604","0.0-6.0-2.37","30","1","2022-11-15 17:32:17","fb7204e538d3690fa685363130f6b499","189.155.244.165","Mozilla/5.0 (Windows NT 10.0; Win64; x64) AppleWebKit/537.36 (KHTML, like Gecko) Chrome/106.0.0.0 Safari/537.36 OPR/92.0.0.0","WebKit","Opera","92.0.0.0","Windows","10.0","null","null","","<p style=""font-size: 48px;"">+</p>","1","Filler","",""
"","","","","","picture","75152","image-keyboard-response","186","309581","0.0-6.0-3.37","30","1","2022-11-15 17:32:17","fb7204e538d3690fa685363130f6b499","189.155.244.165","Mozilla/5.0 (Windows NT 10.0; Win64; x64) AppleWebKit/537.36 (KHTML, like Gecko) Chrome/106.0.0.0 Safari/537.36 OPR/92.0.0.0","WebKit","Opera","92.0.0.0","Windows","10.0","971","n","","box.jpg","1","Filler","true",""
"","","","","","fixation","75152","html-keyboard-response","187","310584","0.0-6.0-0.38","30","1","2022-11-15 17:32:17","fb7204e538d3690fa685363130f6b499","189.155.244.165","Mozilla/5.0 (Windows NT 10.0; Win64; x64) AppleWebKit/537.36 (KHTML, like Gecko) Chrome/106.0.0.0 Safari/537.36 OPR/92.0.0.0","WebKit","Opera","92.0.0.0","Windows","10.0","null","null","","<p style=""font-size: 48px;"">+</p>","1","Light_Contradictory","",""
"","","","","","sentence","75152","html-keyboard-response","188","311523","0.0-6.0-1.38","30","1","2022-11-15 17:32:17","fb7204e538d3690fa685363130f6b499","189.155.244.165","Mozilla/5.0 (Windows NT 10.0; Win64; x64) AppleWebKit/537.36 (KHTML, like Gecko) Chrome/106.0.0.0 Safari/537.36 OPR/92.0.0.0","WebKit","Opera","92.0.0.0","Windows","10.0","937"," ","","A balloon dropped and smashed a piece of sushi","1","Light_Contradictory","",""
"","","","","","fixation","75152","html-keyboard-response","189","312026","0.0-6.0-2.38","30","1","2022-11-15 17:32:17","fb7204e538d3690fa685363130f6b499","189.155.244.165","Mozilla/5.0 (Windows NT 10.0; Win64; x64) AppleWebKit/537.36 (KHTML, like Gecko) Chrome/106.0.0.0 Safari/537.36 OPR/92.0.0.0","WebKit","Opera","92.0.0.0","Windows","10.0","null","null","","<p style=""font-size: 48px;"">+</p>","1","Light_Contradictory","",""
"","","","","","picture","75152","image-keyboard-response","190","312700","0.0-6.0-3.38","30","1","2022-11-15 17:32:17","fb7204e538d3690fa685363130f6b499","189.155.244.165","Mozilla/5.0 (Windows NT 10.0; Win64; x64) AppleWebKit/537.36 (KHTML, like Gecko) Chrome/106.0.0.0 Safari/537.36 OPR/92.0.0.0","WebKit","Opera","92.0.0.0","Windows","10.0","667","s","","sushiS.jpg","1","Light_Contradictory","true",""
"","","","","","fixation","75152","html-keyboard-response","191","313703","0.0-6.0-0.39","30","1","2022-11-15 17:32:17","fb7204e538d3690fa685363130f6b499","189.155.244.165","Mozilla/5.0 (Windows NT 10.0; Win64; x64) AppleWebKit/537.36 (KHTML, like Gecko) Chrome/106.0.0.0 Safari/537.36 OPR/92.0.0.0","WebKit","Opera","92.0.0.0","Windows","10.0","null","null","","<p style=""font-size: 48px;"">+</p>","1","Heavy_Matched","",""
"","","","","","sentence","75152","html-keyboard-response","192","315676","0.0-6.0-1.39","30","1","2022-11-15 17:32:17","fb7204e538d3690fa685363130f6b499","189.155.244.165","Mozilla/5.0 (Windows NT 10.0; Win64; x64) AppleWebKit/537.36 (KHTML, like Gecko) Chrome/106.0.0.0 Safari/537.36 OPR/92.0.0.0","WebKit","Opera","92.0.0.0","Windows","10.0","1968"," ","","A bowling ball dropped and smashed an egg","1","Heavy_Matched","",""
"","","","","","fixation","75152","html-keyboard-response","193","316180","0.0-6.0-2.39","30","1","2022-11-15 17:32:17","fb7204e538d3690fa685363130f6b499","189.155.244.165","Mozilla/5.0 (Windows NT 10.0; Win64; x64) AppleWebKit/537.36 (KHTML, like Gecko) Chrome/106.0.0.0 Safari/537.36 OPR/92.0.0.0","WebKit","Opera","92.0.0.0","Windows","10.0","null","null","","<p style=""font-size: 48px;"">+</p>","1","Heavy_Matched","",""
"","","","","","picture","75152","image-keyboard-response","194","318010","0.0-6.0-3.39","30","1","2022-11-15 17:32:17","fb7204e538d3690fa685363130f6b499","189.155.244.165","Mozilla/5.0 (Windows NT 10.0; Win64; x64) AppleWebKit/537.36 (KHTML, like Gecko) Chrome/106.0.0.0 Safari/537.36 OPR/92.0.0.0","WebKit","Opera","92.0.0.0","Windows","10.0","1827","s","","eggS.jpg","1","Heavy_Matched","true",""
"","","","","","fixation","75152","html-keyboard-response","195","319015","0.0-6.0-0.40","30","1","2022-11-15 17:32:17","fb7204e538d3690fa685363130f6b499","189.155.244.165","Mozilla/5.0 (Windows NT 10.0; Win64; x64) AppleWebKit/537.36 (KHTML, like Gecko) Chrome/106.0.0.0 Safari/537.36 OPR/92.0.0.0","WebKit","Opera","92.0.0.0","Windows","10.0","null","null","","<p style=""font-size: 48px;"">+</p>","1","Filler","",""
"","","","","","sentence","75152","html-keyboard-response","196","319541","0.0-6.0-1.40","30","1","2022-11-15 17:32:17","fb7204e538d3690fa685363130f6b499","189.155.244.165","Mozilla/5.0 (Windows NT 10.0; Win64; x64) AppleWebKit/537.36 (KHTML, like Gecko) Chrome/106.0.0.0 Safari/537.36 OPR/92.0.0.0","WebKit","Opera","92.0.0.0","Windows","10.0","518"," ","","A boy is wearing a hat","1","Filler","",""
"","","","","","fixation","75152","html-keyboard-response","197","320044","0.0-6.0-2.40","30","1","2022-11-15 17:32:17","fb7204e538d3690fa685363130f6b499","189.155.244.165","Mozilla/5.0 (Windows NT 10.0; Win64; x64) AppleWebKit/537.36 (KHTML, like Gecko) Chrome/106.0.0.0 Safari/537.36 OPR/92.0.0.0","WebKit","Opera","92.0.0.0","Windows","10.0","null","null","","<p style=""font-size: 48px;"">+</p>","1","Filler","",""
"","","","","","picture","75152","image-keyboard-response","198","320858","0.0-6.0-3.40","30","1","2022-11-15 17:32:17","fb7204e538d3690fa685363130f6b499","189.155.244.165","Mozilla/5.0 (Windows NT 10.0; Win64; x64) AppleWebKit/537.36 (KHTML, like Gecko) Chrome/106.0.0.0 Safari/537.36 OPR/92.0.0.0","WebKit","Opera","92.0.0.0","Windows","10.0","810","s","","hat.jpg","1","Filler","true",""
"","","","","","fixation","75152","html-keyboard-response","199","321862","0.0-6.0-0.41","30","1","2022-11-15 17:32:17","fb7204e538d3690fa685363130f6b499","189.155.244.165","Mozilla/5.0 (Windows NT 10.0; Win64; x64) AppleWebKit/537.36 (KHTML, like Gecko) Chrome/106.0.0.0 Safari/537.36 OPR/92.0.0.0","WebKit","Opera","92.0.0.0","Windows","10.0","null","null","","<p style=""font-size: 48px;"">+</p>","1","Filler","",""
"","","","","","sentence","75152","html-keyboard-response","200","323042","0.0-6.0-1.41","30","1","2022-11-15 17:32:17","fb7204e538d3690fa685363130f6b499","189.155.244.165","Mozilla/5.0 (Windows NT 10.0; Win64; x64) AppleWebKit/537.36 (KHTML, like Gecko) Chrome/106.0.0.0 Safari/537.36 OPR/92.0.0.0","WebKit","Opera","92.0.0.0","Windows","10.0","1176"," ","","A woman is paying with a debit card","1","Filler","",""
"","","","","","fixation","75152","html-keyboard-response","201","323546","0.0-6.0-2.41","30","1","2022-11-15 17:32:17","fb7204e538d3690fa685363130f6b499","189.155.244.165","Mozilla/5.0 (Windows NT 10.0; Win64; x64) AppleWebKit/537.36 (KHTML, like Gecko) Chrome/106.0.0.0 Safari/537.36 OPR/92.0.0.0","WebKit","Opera","92.0.0.0","Windows","10.0","null","null","","<p style=""font-size: 48px;"">+</p>","1","Filler","",""
"","","","","","picture","75152","image-keyboard-response","202","324217","0.0-6.0-3.41","30","1","2022-11-15 17:32:17","fb7204e538d3690fa685363130f6b499","189.155.244.165","Mozilla/5.0 (Windows NT 10.0; Win64; x64) AppleWebKit/537.36 (KHTML, like Gecko) Chrome/106.0.0.0 Safari/537.36 OPR/92.0.0.0","WebKit","Opera","92.0.0.0","Windows","10.0","665","n","","papercup.jpg","1","Filler","true",""
"","","","","","fixation","75152","html-keyboard-response","203","325219","0.0-6.0-0.42","30","1","2022-11-15 17:32:17","fb7204e538d3690fa685363130f6b499","189.155.244.165","Mozilla/5.0 (Windows NT 10.0; Win64; x64) AppleWebKit/537.36 (KHTML, like Gecko) Chrome/106.0.0.0 Safari/537.36 OPR/92.0.0.0","WebKit","Opera","92.0.0.0","Windows","10.0","null","null","","<p style=""font-size: 48px;"">+</p>","1","Filler","",""
"","","","","","sentence","75152","html-keyboard-response","204","325714","0.0-6.0-1.42","30","1","2022-11-15 17:32:17","fb7204e538d3690fa685363130f6b499","189.155.244.165","Mozilla/5.0 (Windows NT 10.0; Win64; x64) AppleWebKit/537.36 (KHTML, like Gecko) Chrome/106.0.0.0 Safari/537.36 OPR/92.0.0.0","WebKit","Opera","92.0.0.0","Windows","10.0","491"," ","","A mouse is eating cheese","1","Filler","",""
"","","","","","fixation","75152","html-keyboard-response","205","326217","0.0-6.0-2.42","30","1","2022-11-15 17:32:17","fb7204e538d3690fa685363130f6b499","189.155.244.165","Mozilla/5.0 (Windows NT 10.0; Win64; x64) AppleWebKit/537.36 (KHTML, like Gecko) Chrome/106.0.0.0 Safari/537.36 OPR/92.0.0.0","WebKit","Opera","92.0.0.0","Windows","10.0","null","null","","<p style=""font-size: 48px;"">+</p>","1","Filler","",""
"","","","","","picture","75152","image-keyboard-response","206","327263","0.0-6.0-3.42","30","1","2022-11-15 17:32:17","fb7204e538d3690fa685363130f6b499","189.155.244.165","Mozilla/5.0 (Windows NT 10.0; Win64; x64) AppleWebKit/537.36 (KHTML, like Gecko) Chrome/106.0.0.0 Safari/537.36 OPR/92.0.0.0","WebKit","Opera","92.0.0.0","Windows","10.0","1031","n","","ring.jpg","1","Filler","true",""
"","","","","","fixation","75152","html-keyboard-response","207","328271","0.0-6.0-0.43","30","1","2022-11-15 17:32:17","fb7204e538d3690fa685363130f6b499","189.155.244.165","Mozilla/5.0 (Windows NT 10.0; Win64; x64) AppleWebKit/537.36 (KHTML, like Gecko) Chrome/106.0.0.0 Safari/537.36 OPR/92.0.0.0","WebKit","Opera","92.0.0.0","Windows","10.0","null","null","","<p style=""font-size: 48px;"">+</p>","1","Heavy_Contradictory","",""
"","","","","","sentence","75152","html-keyboard-response","208","329148","0.0-6.0-1.43","30","1","2022-11-15 17:32:17","fb7204e538d3690fa685363130f6b499","189.155.244.165","Mozilla/5.0 (Windows NT 10.0; Win64; x64) AppleWebKit/537.36 (KHTML, like Gecko) Chrome/106.0.0.0 Safari/537.36 OPR/92.0.0.0","WebKit","Opera","92.0.0.0","Windows","10.0","875"," ","","A bowling ball dropped and touched an iPAD","1","Heavy_Contradictory","",""
"","","","","","fixation","75152","html-keyboard-response","209","329653","0.0-6.0-2.43","30","1","2022-11-15 17:32:17","fb7204e538d3690fa685363130f6b499","189.155.244.165","Mozilla/5.0 (Windows NT 10.0; Win64; x64) AppleWebKit/537.36 (KHTML, like Gecko) Chrome/106.0.0.0 Safari/537.36 OPR/92.0.0.0","WebKit","Opera","92.0.0.0","Windows","10.0","null","null","","<p style=""font-size: 48px;"">+</p>","1","Heavy_Contradictory","",""
"","","","","","picture","75152","image-keyboard-response","210","330332","0.0-6.0-3.43","30","1","2022-11-15 17:32:17","fb7204e538d3690fa685363130f6b499","189.155.244.165","Mozilla/5.0 (Windows NT 10.0; Win64; x64) AppleWebKit/537.36 (KHTML, like Gecko) Chrome/106.0.0.0 Safari/537.36 OPR/92.0.0.0","WebKit","Opera","92.0.0.0","Windows","10.0","674","s","","iPadS.jpg","1","Heavy_Contradictory","true",""
"","","","","","fixation","75152","html-keyboard-response","211","331335","0.0-6.0-0.44","30","1","2022-11-15 17:32:17","fb7204e538d3690fa685363130f6b499","189.155.244.165","Mozilla/5.0 (Windows NT 10.0; Win64; x64) AppleWebKit/537.36 (KHTML, like Gecko) Chrome/106.0.0.0 Safari/537.36 OPR/92.0.0.0","WebKit","Opera","92.0.0.0","Windows","10.0","null","null","","<p style=""font-size: 48px;"">+</p>","1","Filler","",""
"","","","","","sentence","75152","html-keyboard-response","212","332478","0.0-6.0-1.44","30","1","2022-11-15 17:32:17","fb7204e538d3690fa685363130f6b499","189.155.244.165","Mozilla/5.0 (Windows NT 10.0; Win64; x64) AppleWebKit/537.36 (KHTML, like Gecko) Chrome/106.0.0.0 Safari/537.36 OPR/92.0.0.0","WebKit","Opera","92.0.0.0","Windows","10.0","1141"," ","","A police officer is talking on the phone","1","Filler","",""
"","","","","","fixation","75152","html-keyboard-response","213","332985","0.0-6.0-2.44","30","1","2022-11-15 17:32:17","fb7204e538d3690fa685363130f6b499","189.155.244.165","Mozilla/5.0 (Windows NT 10.0; Win64; x64) AppleWebKit/537.36 (KHTML, like Gecko) Chrome/106.0.0.0 Safari/537.36 OPR/92.0.0.0","WebKit","Opera","92.0.0.0","Windows","10.0","null","null","","<p style=""font-size: 48px;"">+</p>","1","Filler","",""
"","","","","","picture","75152","image-keyboard-response","214","333909","0.0-6.0-3.44","30","1","2022-11-15 17:32:17","fb7204e538d3690fa685363130f6b499","189.155.244.165","Mozilla/5.0 (Windows NT 10.0; Win64; x64) AppleWebKit/537.36 (KHTML, like Gecko) Chrome/106.0.0.0 Safari/537.36 OPR/92.0.0.0","WebKit","Opera","92.0.0.0","Windows","10.0","910","n","","tissuebox.jpg","1","Filler","true",""
"","","","","","fixation","75152","html-keyboard-response","215","334913","0.0-6.0-0.45","30","1","2022-11-15 17:32:17","fb7204e538d3690fa685363130f6b499","189.155.244.165","Mozilla/5.0 (Windows NT 10.0; Win64; x64) AppleWebKit/537.36 (KHTML, like Gecko) Chrome/106.0.0.0 Safari/537.36 OPR/92.0.0.0","WebKit","Opera","92.0.0.0","Windows","10.0","null","null","","<p style=""font-size: 48px;"">+</p>","1","Heavy_Matched","",""
"","","","","","sentence","75152","html-keyboard-response","216","335721","0.0-6.0-1.45","30","1","2022-11-15 17:32:17","fb7204e538d3690fa685363130f6b499","189.155.244.165","Mozilla/5.0 (Windows NT 10.0; Win64; x64) AppleWebKit/537.36 (KHTML, like Gecko) Chrome/106.0.0.0 Safari/537.36 OPR/92.0.0.0","WebKit","Opera","92.0.0.0","Windows","10.0","806"," ","","A bowling ball dropped and smashed a porcelain figure","1","Heavy_Matched","",""
"","","","","","fixation","75152","html-keyboard-response","217","336226","0.0-6.0-2.45","30","1","2022-11-15 17:32:17","fb7204e538d3690fa685363130f6b499","189.155.244.165","Mozilla/5.0 (Windows NT 10.0; Win64; x64) AppleWebKit/537.36 (KHTML, like Gecko) Chrome/106.0.0.0 Safari/537.36 OPR/92.0.0.0","WebKit","Opera","92.0.0.0","Windows","10.0","null","null","","<p style=""font-size: 48px;"">+</p>","1","Heavy_Matched","",""
"","","","","","picture","75152","image-keyboard-response","218","337035","0.0-6.0-3.45","30","1","2022-11-15 17:32:17","fb7204e538d3690fa685363130f6b499","189.155.244.165","Mozilla/5.0 (Windows NT 10.0; Win64; x64) AppleWebKit/537.36 (KHTML, like Gecko) Chrome/106.0.0.0 Safari/537.36 OPR/92.0.0.0","WebKit","Opera","92.0.0.0","Windows","10.0","807","s","","figureS.jpg","1","Heavy_Matched","true",""
"","","","","","fixation","75152","html-keyboard-response","219","338039","0.0-6.0-0.46","30","1","2022-11-15 17:32:17","fb7204e538d3690fa685363130f6b499","189.155.244.165","Mozilla/5.0 (Windows NT 10.0; Win64; x64) AppleWebKit/537.36 (KHTML, like Gecko) Chrome/106.0.0.0 Safari/537.36 OPR/92.0.0.0","WebKit","Opera","92.0.0.0","Windows","10.0","null","null","","<p style=""font-size: 48px;"">+</p>","1","Filler","",""
"","","","","","sentence","75152","html-keyboard-response","220","338859","0.0-6.0-1.46","30","1","2022-11-15 17:32:17","fb7204e538d3690fa685363130f6b499","189.155.244.165","Mozilla/5.0 (Windows NT 10.0; Win64; x64) AppleWebKit/537.36 (KHTML, like Gecko) Chrome/106.0.0.0 Safari/537.36 OPR/92.0.0.0","WebKit","Opera","92.0.0.0","Windows","10.0","817"," ","","A woman is taking money out of a wallet","1","Filler","",""
"","","","","","fixation","75152","html-keyboard-response","221","339387","0.0-6.0-2.46","30","1","2022-11-15 17:32:17","fb7204e538d3690fa685363130f6b499","189.155.244.165","Mozilla/5.0 (Windows NT 10.0; Win64; x64) AppleWebKit/537.36 (KHTML, like Gecko) Chrome/106.0.0.0 Safari/537.36 OPR/92.0.0.0","WebKit","Opera","92.0.0.0","Windows","10.0","null","null","","<p style=""font-size: 48px;"">+</p>","1","Filler","",""
"","","","","","picture","75152","image-keyboard-response","222","340187","0.0-6.0-3.46","30","1","2022-11-15 17:32:17","fb7204e538d3690fa685363130f6b499","189.155.244.165","Mozilla/5.0 (Windows NT 10.0; Win64; x64) AppleWebKit/537.36 (KHTML, like Gecko) Chrome/106.0.0.0 Safari/537.36 OPR/92.0.0.0","WebKit","Opera","92.0.0.0","Windows","10.0","796","n","","coconut.jpg","1","Filler","true",""
"","","","","","fixation","75152","html-keyboard-response","223","341205","0.0-6.0-0.47","30","1","2022-11-15 17:32:17","fb7204e538d3690fa685363130f6b499","189.155.244.165","Mozilla/5.0 (Windows NT 10.0; Win64; x64) AppleWebKit/537.36 (KHTML, like Gecko) Chrome/106.0.0.0 Safari/537.36 OPR/92.0.0.0","WebKit","Opera","92.0.0.0","Windows","10.0","null","null","","<p style=""font-size: 48px;"">+</p>","1","Heavy_Contradictory","",""
"","","","","","sentence","75152","html-keyboard-response","224","341914","0.0-6.0-1.47","30","1","2022-11-15 17:32:17","fb7204e538d3690fa685363130f6b499","189.155.244.165","Mozilla/5.0 (Windows NT 10.0; Win64; x64) AppleWebKit/537.36 (KHTML, like Gecko) Chrome/106.0.0.0 Safari/537.36 OPR/92.0.0.0","WebKit","Opera","92.0.0.0","Windows","10.0","706"," ","","A bowling ball dropped and touched a blackberry","1","Heavy_Contradictory","",""
"","","","","","fixation","75152","html-keyboard-response","225","342418","0.0-6.0-2.47","30","1","2022-11-15 17:32:17","fb7204e538d3690fa685363130f6b499","189.155.244.165","Mozilla/5.0 (Windows NT 10.0; Win64; x64) AppleWebKit/537.36 (KHTML, like Gecko) Chrome/106.0.0.0 Safari/537.36 OPR/92.0.0.0","WebKit","Opera","92.0.0.0","Windows","10.0","null","null","","<p style=""font-size: 48px;"">+</p>","1","Heavy_Contradictory","",""
"","","","","","picture","75152","image-keyboard-response","226","343300","0.0-6.0-3.47","30","1","2022-11-15 17:32:17","fb7204e538d3690fa685363130f6b499","189.155.244.165","Mozilla/5.0 (Windows NT 10.0; Win64; x64) AppleWebKit/537.36 (KHTML, like Gecko) Chrome/106.0.0.0 Safari/537.36 OPR/92.0.0.0","WebKit","Opera","92.0.0.0","Windows","10.0","874","s","","blackberryS.jpg","1","Heavy_Contradictory","true",""
"","","","","","fixation","75152","html-keyboard-response","227","344305","0.0-6.0-0.48","30","1","2022-11-15 17:32:17","fb7204e538d3690fa685363130f6b499","189.155.244.165","Mozilla/5.0 (Windows NT 10.0; Win64; x64) AppleWebKit/537.36 (KHTML, like Gecko) Chrome/106.0.0.0 Safari/537.36 OPR/92.0.0.0","WebKit","Opera","92.0.0.0","Windows","10.0","null","null","","<p style=""font-size: 48px;"">+</p>","1","Filler","",""
"","","","","","sentence","75152","html-keyboard-response","228","344869","0.0-6.0-1.48","30","1","2022-11-15 17:32:17","fb7204e538d3690fa685363130f6b499","189.155.244.165","Mozilla/5.0 (Windows NT 10.0; Win64; x64) AppleWebKit/537.36 (KHTML, like Gecko) Chrome/106.0.0.0 Safari/537.36 OPR/92.0.0.0","WebKit","Opera","92.0.0.0","Windows","10.0","561"," ","","A thief is stealing a wallet","1","Filler","",""
"","","","","","fixation","75152","html-keyboard-response","229","345374","0.0-6.0-2.48","30","1","2022-11-15 17:32:17","fb7204e538d3690fa685363130f6b499","189.155.244.165","Mozilla/5.0 (Windows NT 10.0; Win64; x64) AppleWebKit/537.36 (KHTML, like Gecko) Chrome/106.0.0.0 Safari/537.36 OPR/92.0.0.0","WebKit","Opera","92.0.0.0","Windows","10.0","null","null","","<p style=""font-size: 48px;"">+</p>","1","Filler","",""
"","","","","","picture","75152","image-keyboard-response","230","345889","0.0-6.0-3.48","30","1","2022-11-15 17:32:17","fb7204e538d3690fa685363130f6b499","189.155.244.165","Mozilla/5.0 (Windows NT 10.0; Win64; x64) AppleWebKit/537.36 (KHTML, like Gecko) Chrome/106.0.0.0 Safari/537.36 OPR/92.0.0.0","WebKit","Opera","92.0.0.0","Windows","10.0","512","n","","teddybear.jpg","1","Filler","true",""
"","","","","","fixation","75152","html-keyboard-response","231","346893","0.0-6.0-0.49","30","1","2022-11-15 17:32:17","fb7204e538d3690fa685363130f6b499","189.155.244.165","Mozilla/5.0 (Windows NT 10.0; Win64; x64) AppleWebKit/537.36 (KHTML, like Gecko) Chrome/106.0.0.0 Safari/537.36 OPR/92.0.0.0","WebKit","Opera","92.0.0.0","Windows","10.0","null","null","","<p style=""font-size: 48px;"">+</p>","1","Light_Matched","",""
"","","","","","sentence","75152","html-keyboard-response","232","347532","0.0-6.0-1.49","30","1","2022-11-15 17:32:17","fb7204e538d3690fa685363130f6b499","189.155.244.165","Mozilla/5.0 (Windows NT 10.0; Win64; x64) AppleWebKit/537.36 (KHTML, like Gecko) Chrome/106.0.0.0 Safari/537.36 OPR/92.0.0.0","WebKit","Opera","92.0.0.0","Windows","10.0","637"," ","","A balloon dropped and touched an iPhone","1","Light_Matched","",""
