"success","timeout","failed_images","failed_audio","failed_video","typeoftrial","subject","trial_type","trial_index","time_elapsed","internal_node_id","run_id","condition","recorded_at","source_code_version","ip","user_agent","device","browser","browser_version","platform","platform_version","rt","response","Experiment","stimulus","list_number","trialcondition","correct","question_order"
"true","false","[]","[]","[]","preload","30425","preload","0","2243","0.0-0.0","44","2","2022-11-17 12:18:22","fd252370c17a9971d68c1d4354a03c2e","","Mozilla/5.0 (X11; Linux x86_64) AppleWebKit/537.36 (KHTML, like Gecko) Chrome/91.0.4472.27 Safari/537.36","WebKit","Chrome","91.0.4472.27","Linux","","","","","","","","",""
"","","","","","ID","30425","survey-text","1","24811","0.0-1.0","44","2","2022-11-17 12:18:22","fd252370c17a9971d68c1d4354a03c2e","","Mozilla/5.0 (X11; Linux x86_64) AppleWebKit/537.36 (KHTML, like Gecko) Chrome/91.0.4472.27 Safari/537.36","WebKit","Chrome","91.0.4472.27","Linux","","22556","{""ID"":""5563984afdf99b672b5749b6""}","","","","","",""
"","","","","","instructions","30425","html-button-response","2","177410","0.0-2.0","44","2","2022-11-17 12:18:22","fd252370c17a9971d68c1d4354a03c2e","","Mozilla/5.0 (X11; Linux x86_64) AppleWebKit/537.36 (KHTML, like Gecko) Chrome/91.0.4472.27 Safari/537.36","WebKit","Chrome","91.0.4472.27","Linux","","152597","0","","
                    <p style=""font-size:20px;""> Welcome to the experiment! </p>
                    <p style=""font-size:20px;""> In this experiment, you will be asked to make judgments about the content of different sentences.</p>
                    <p style=""font-size:20px;""> On each trial, you will read a sentence, and will be shown a picture immediately following the sentence. </p>
                    <p style=""font-size:20px;""> Your task is to decide whether the object displayed in the picture was mentioned in the sentence or not </p>
                    <p style=""font-size:20px;""> and respond as quickly as possible by pressing <strong>S</strong> for yes or <strong>N</strong> for no. </p>
                    <p style=""font-size:20px;""> You will now do a practice session with feedback and instructions. </p>
                    <p style=""font-size:20px;""> Click the button below to continue.</p>
                    ","","","",""
"","","","","","instructions","30425","html-button-response","3","207484","0.0-3.0","44","2","2022-11-17 12:18:22","fd252370c17a9971d68c1d4354a03c2e","","Mozilla/5.0 (X11; Linux x86_64) AppleWebKit/537.36 (KHTML, like Gecko) Chrome/91.0.4472.27 Safari/537.36","WebKit","Chrome","91.0.4472.27","Linux","","30072","0","","
                    <p style=""font-size:20px;""> You are about to begin the practice test. </p>
                    <p style=""font-size:20px;""> On each trial, a sentence will appear on the screen. You should press SPACEBAR when you have read and understood the sentence.</p>
                    <p style=""font-size:20px;""> After you press SPACEBAR, a picture will appear on the screen. </p>
                    <p style=""font-size:20px;""> You need to indicate whether or not the pictured object was mentioned in the sentence. </p>
                    <p style=""font-size:20px;""> If the object WAS mentioned in the preceding sentence, you should press <strong>S</strong> </p>
                    <p style=""font-size:20px;""> If the object was NOT mentioned in the preceding sentence, you should press <strong>N</strong>. </p>
                    <p style=""font-size:20px;""> Click the button below to continue to the practice session.</p>
                    ","","","",""
"","","","","","fixation","30425","html-keyboard-response","4","208486","0.0-4.0-0.0","44","2","2022-11-17 12:18:22","fd252370c17a9971d68c1d4354a03c2e","","Mozilla/5.0 (X11; Linux x86_64) AppleWebKit/537.36 (KHTML, like Gecko) Chrome/91.0.4472.27 Safari/537.36","WebKit","Chrome","91.0.4472.27","Linux","","null","null","","<p style=""font-size: 48px;"">+</p>","practice","practice_s","",""
"","","","","","sentence","30425","html-keyboard-response","5","231310","0.0-4.0-1.0","44","2","2022-11-17 12:18:22","fd252370c17a9971d68c1d4354a03c2e","","Mozilla/5.0 (X11; Linux x86_64) AppleWebKit/537.36 (KHTML, like Gecko) Chrome/91.0.4472.27 Safari/537.36","WebKit","Chrome","91.0.4472.27","Linux","","22822"," ","","A balloon dropped and touched a cigarette","practice","practice_s","",""
"","","","","","fixation","30425","html-keyboard-response","6","231811","0.0-4.0-2.0","44","2","2022-11-17 12:18:22","fd252370c17a9971d68c1d4354a03c2e","","Mozilla/5.0 (X11; Linux x86_64) AppleWebKit/537.36 (KHTML, like Gecko) Chrome/91.0.4472.27 Safari/537.36","WebKit","Chrome","91.0.4472.27","Linux","","null","null","","<p style=""font-size: 48px;"">+</p>","practice","practice_s","",""
"","","","","","picture","30425","image-keyboard-response","7","233873","0.0-4.0-3.0","44","2","2022-11-17 12:18:22","fd252370c17a9971d68c1d4354a03c2e","","Mozilla/5.0 (X11; Linux x86_64) AppleWebKit/537.36 (KHTML, like Gecko) Chrome/91.0.4472.27 Safari/537.36","WebKit","Chrome","91.0.4472.27","Linux","","2055","s","","cigaretteB.jpg","practice","practice_s","true",""
"","","","","","","","html-keyboard-response","8","235875","0.0-4.0-4.0","44","2","2022-11-17 12:18:22","fd252370c17a9971d68c1d4354a03c2e","","Mozilla/5.0 (X11; Linux x86_64) AppleWebKit/537.36 (KHTML, like Gecko) Chrome/91.0.4472.27 Safari/537.36","WebKit","Chrome","91.0.4472.27","Linux","","null","null","","CORRECT!","","","",""
"","","","","","fixation","30425","html-keyboard-response","9","236876","0.0-4.0-0.1","44","2","2022-11-17 12:18:22","fd252370c17a9971d68c1d4354a03c2e","","Mozilla/5.0 (X11; Linux x86_64) AppleWebKit/537.36 (KHTML, like Gecko) Chrome/91.0.4472.27 Safari/537.36","WebKit","Chrome","91.0.4472.27","Linux","","null","null","","<p style=""font-size: 48px;"">+</p>","practice","practice_n","",""
"","","","","","sentence","30425","html-keyboard-response","10","238828","0.0-4.0-1.1","44","2","2022-11-17 12:18:22","fd252370c17a9971d68c1d4354a03c2e","","Mozilla/5.0 (X11; Linux x86_64) AppleWebKit/537.36 (KHTML, like Gecko) Chrome/91.0.4472.27 Safari/537.36","WebKit","Chrome","91.0.4472.27","Linux","","1951"," ","","A bowling ball dropped and touched a bottle","practice","practice_n","",""
"","","","","","fixation","30425","html-keyboard-response","11","239330","0.0-4.0-2.1","44","2","2022-11-17 12:18:22","fd252370c17a9971d68c1d4354a03c2e","","Mozilla/5.0 (X11; Linux x86_64) AppleWebKit/537.36 (KHTML, like Gecko) Chrome/91.0.4472.27 Safari/537.36","WebKit","Chrome","91.0.4472.27","Linux","","null","null","","<p style=""font-size: 48px;"">+</p>","practice","practice_n","",""
"","","","","","picture","30425","image-keyboard-response","12","240376","0.0-4.0-3.1","44","2","2022-11-17 12:18:22","fd252370c17a9971d68c1d4354a03c2e","","Mozilla/5.0 (X11; Linux x86_64) AppleWebKit/537.36 (KHTML, like Gecko) Chrome/91.0.4472.27 Safari/537.36","WebKit","Chrome","91.0.4472.27","Linux","","1044","n","","bookB.jpg","practice","practice_n","true",""
"","","","","","","","html-keyboard-response","13","242377","0.0-4.0-4.1","44","2","2022-11-17 12:18:22","fd252370c17a9971d68c1d4354a03c2e","","Mozilla/5.0 (X11; Linux x86_64) AppleWebKit/537.36 (KHTML, like Gecko) Chrome/91.0.4472.27 Safari/537.36","WebKit","Chrome","91.0.4472.27","Linux","","null","null","","CORRECT!","","","",""
"","","","","","fixation","30425","html-keyboard-response","14","243379","0.0-4.0-0.2","44","2","2022-11-17 12:18:22","fd252370c17a9971d68c1d4354a03c2e","","Mozilla/5.0 (X11; Linux x86_64) AppleWebKit/537.36 (KHTML, like Gecko) Chrome/91.0.4472.27 Safari/537.36","WebKit","Chrome","91.0.4472.27","Linux","","null","null","","<p style=""font-size: 48px;"">+</p>","practice","practice_n","",""
"","","","","","sentence","30425","html-keyboard-response","15","244922","0.0-4.0-1.2","44","2","2022-11-17 12:18:22","fd252370c17a9971d68c1d4354a03c2e","","Mozilla/5.0 (X11; Linux x86_64) AppleWebKit/537.36 (KHTML, like Gecko) Chrome/91.0.4472.27 Safari/537.36","WebKit","Chrome","91.0.4472.27","Linux","","1540"," ","","A balloon dropped and smashed a cup","practice","practice_n","",""
"","","","","","fixation","30425","html-keyboard-response","16","245423","0.0-4.0-2.2","44","2","2022-11-17 12:18:22","fd252370c17a9971d68c1d4354a03c2e","","Mozilla/5.0 (X11; Linux x86_64) AppleWebKit/537.36 (KHTML, like Gecko) Chrome/91.0.4472.27 Safari/537.36","WebKit","Chrome","91.0.4472.27","Linux","","null","null","","<p style=""font-size: 48px;"">+</p>","practice","practice_n","",""
"","","","","","picture","30425","image-keyboard-response","17","246374","0.0-4.0-3.2","44","2","2022-11-17 12:18:22","fd252370c17a9971d68c1d4354a03c2e","","Mozilla/5.0 (X11; Linux x86_64) AppleWebKit/537.36 (KHTML, like Gecko) Chrome/91.0.4472.27 Safari/537.36","WebKit","Chrome","91.0.4472.27","Linux","","949","n","","bananaB.jpg","practice","practice_n","true",""
"","","","","","","","html-keyboard-response","18","248375","0.0-4.0-4.2","44","2","2022-11-17 12:18:22","fd252370c17a9971d68c1d4354a03c2e","","Mozilla/5.0 (X11; Linux x86_64) AppleWebKit/537.36 (KHTML, like Gecko) Chrome/91.0.4472.27 Safari/537.36","WebKit","Chrome","91.0.4472.27","Linux","","null","null","","CORRECT!","","","",""
"","","","","","fixation","30425","html-keyboard-response","19","249376","0.0-4.0-0.3","44","2","2022-11-17 12:18:22","fd252370c17a9971d68c1d4354a03c2e","","Mozilla/5.0 (X11; Linux x86_64) AppleWebKit/537.36 (KHTML, like Gecko) Chrome/91.0.4472.27 Safari/537.36","WebKit","Chrome","91.0.4472.27","Linux","","null","null","","<p style=""font-size: 48px;"">+</p>","practice","practice_s","",""
"","","","","","sentence","30425","html-keyboard-response","20","250849","0.0-4.0-1.3","44","2","2022-11-17 12:18:22","fd252370c17a9971d68c1d4354a03c2e","","Mozilla/5.0 (X11; Linux x86_64) AppleWebKit/537.36 (KHTML, like Gecko) Chrome/91.0.4472.27 Safari/537.36","WebKit","Chrome","91.0.4472.27","Linux","","1472"," ","","A knife was placed on a hammer","practice","practice_s","",""
"","","","","","fixation","30425","html-keyboard-response","21","251351","0.0-4.0-2.3","44","2","2022-11-17 12:18:22","fd252370c17a9971d68c1d4354a03c2e","","Mozilla/5.0 (X11; Linux x86_64) AppleWebKit/537.36 (KHTML, like Gecko) Chrome/91.0.4472.27 Safari/537.36","WebKit","Chrome","91.0.4472.27","Linux","","null","null","","<p style=""font-size: 48px;"">+</p>","practice","practice_s","",""
"","","","","","picture","30425","image-keyboard-response","22","252740","0.0-4.0-3.3","44","2","2022-11-17 12:18:22","fd252370c17a9971d68c1d4354a03c2e","","Mozilla/5.0 (X11; Linux x86_64) AppleWebKit/537.36 (KHTML, like Gecko) Chrome/91.0.4472.27 Safari/537.36","WebKit","Chrome","91.0.4472.27","Linux","","1388","s","","hammerB.jpg","practice","practice_s","true",""
"","","","","","","","html-keyboard-response","23","254741","0.0-4.0-4.3","44","2","2022-11-17 12:18:22","fd252370c17a9971d68c1d4354a03c2e","","Mozilla/5.0 (X11; Linux x86_64) AppleWebKit/537.36 (KHTML, like Gecko) Chrome/91.0.4472.27 Safari/537.36","WebKit","Chrome","91.0.4472.27","Linux","","null","null","","CORRECT!","","","",""
"","","","","","fixation","30425","html-keyboard-response","24","255743","0.0-4.0-0.4","44","2","2022-11-17 12:18:22","fd252370c17a9971d68c1d4354a03c2e","","Mozilla/5.0 (X11; Linux x86_64) AppleWebKit/537.36 (KHTML, like Gecko) Chrome/91.0.4472.27 Safari/537.36","WebKit","Chrome","91.0.4472.27","Linux","","null","null","","<p style=""font-size: 48px;"">+</p>","practice","practice_n","",""
"","","","","","sentence","30425","html-keyboard-response","25","256384","0.0-4.0-1.4","44","2","2022-11-17 12:18:22","fd252370c17a9971d68c1d4354a03c2e","","Mozilla/5.0 (X11; Linux x86_64) AppleWebKit/537.36 (KHTML, like Gecko) Chrome/91.0.4472.27 Safari/537.36","WebKit","Chrome","91.0.4472.27","Linux","","641"," ","","A fork was placed on a stool","practice","practice_n","",""
"","","","","","fixation","30425","html-keyboard-response","26","256886","0.0-4.0-2.4","44","2","2022-11-17 12:18:22","fd252370c17a9971d68c1d4354a03c2e","","Mozilla/5.0 (X11; Linux x86_64) AppleWebKit/537.36 (KHTML, like Gecko) Chrome/91.0.4472.27 Safari/537.36","WebKit","Chrome","91.0.4472.27","Linux","","null","null","","<p style=""font-size: 48px;"">+</p>","practice","practice_n","",""
"","","","","","picture","30425","image-keyboard-response","27","257755","0.0-4.0-3.4","44","2","2022-11-17 12:18:22","fd252370c17a9971d68c1d4354a03c2e","","Mozilla/5.0 (X11; Linux x86_64) AppleWebKit/537.36 (KHTML, like Gecko) Chrome/91.0.4472.27 Safari/537.36","WebKit","Chrome","91.0.4472.27","Linux","","868","n","","tableB.jpg","practice","practice_n","true",""
"","","","","","","","html-keyboard-response","28","259756","0.0-4.0-4.4","44","2","2022-11-17 12:18:22","fd252370c17a9971d68c1d4354a03c2e","","Mozilla/5.0 (X11; Linux x86_64) AppleWebKit/537.36 (KHTML, like Gecko) Chrome/91.0.4472.27 Safari/537.36","WebKit","Chrome","91.0.4472.27","Linux","","null","null","","CORRECT!","","","",""
"","","","","","fixation","30425","html-keyboard-response","29","260758","0.0-4.0-0.5","44","2","2022-11-17 12:18:22","fd252370c17a9971d68c1d4354a03c2e","","Mozilla/5.0 (X11; Linux x86_64) AppleWebKit/537.36 (KHTML, like Gecko) Chrome/91.0.4472.27 Safari/537.36","WebKit","Chrome","91.0.4472.27","Linux","","null","null","","<p style=""font-size: 48px;"">+</p>","practice","practice_s","",""
"","","","","","sentence","30425","html-keyboard-response","30","263561","0.0-4.0-1.5","44","2","2022-11-17 12:18:22","fd252370c17a9971d68c1d4354a03c2e","","Mozilla/5.0 (X11; Linux x86_64) AppleWebKit/537.36 (KHTML, like Gecko) Chrome/91.0.4472.27 Safari/537.36","WebKit","Chrome","91.0.4472.27","Linux","","2802"," ","","A bowling ball dropped and smashed a teacup","practice","practice_s","",""
"","","","","","fixation","30425","html-keyboard-response","31","264063","0.0-4.0-2.5","44","2","2022-11-17 12:18:22","fd252370c17a9971d68c1d4354a03c2e","","Mozilla/5.0 (X11; Linux x86_64) AppleWebKit/537.36 (KHTML, like Gecko) Chrome/91.0.4472.27 Safari/537.36","WebKit","Chrome","91.0.4472.27","Linux","","null","null","","<p style=""font-size: 48px;"">+</p>","practice","practice_s","",""
"","","","","","picture","30425","image-keyboard-response","32","265465","0.0-4.0-3.5","44","2","2022-11-17 12:18:22","fd252370c17a9971d68c1d4354a03c2e","","Mozilla/5.0 (X11; Linux x86_64) AppleWebKit/537.36 (KHTML, like Gecko) Chrome/91.0.4472.27 Safari/537.36","WebKit","Chrome","91.0.4472.27","Linux","","1400","s","","cupB.jpg","practice","practice_s","true",""
"","","","","","","","html-keyboard-response","33","267467","0.0-4.0-4.5","44","2","2022-11-17 12:18:22","fd252370c17a9971d68c1d4354a03c2e","","Mozilla/5.0 (X11; Linux x86_64) AppleWebKit/537.36 (KHTML, like Gecko) Chrome/91.0.4472.27 Safari/537.36","WebKit","Chrome","91.0.4472.27","Linux","","null","null","","CORRECT!","","","",""
"","","","","","movetoexp","30425","html-button-response","34","280149","0.0-5.0","44","2","2022-11-17 12:18:22","fd252370c17a9971d68c1d4354a03c2e","","Mozilla/5.0 (X11; Linux x86_64) AppleWebKit/537.36 (KHTML, like Gecko) Chrome/91.0.4472.27 Safari/537.36","WebKit","Chrome","91.0.4472.27","Linux","","12681","0","","<p style=""font-size:20px;"">You have now completed the practice session! </p>
                    <p style=""font-size:20px;"">You will now move on to the main experiment, where you will not be provided any feedback. </p>
                    <p style=""font-size:20px;"">Remember, you should press <strong>S</strong> if the pictured object was mentioned in the preceding sentence<br> and <strong>N</strong> if the pictured object was not mentioned in the preceding sentence.</p>
                    <p style=""font-size:20px;"">Please click the button below to continue to the main experiment. </p>","","","",""
"","","","","","fixation","30425","html-keyboard-response","35","281151","0.0-6.0-0.0","44","2","2022-11-17 12:18:22","fd252370c17a9971d68c1d4354a03c2e","","Mozilla/5.0 (X11; Linux x86_64) AppleWebKit/537.36 (KHTML, like Gecko) Chrome/91.0.4472.27 Safari/537.36","WebKit","Chrome","91.0.4472.27","Linux","","null","null","","<p style=""font-size: 48px;"">+</p>","2","Filler","",""
"","","","","","sentence","30425","html-keyboard-response","36","281236","0.0-6.0-1.0","44","2","2022-11-17 12:18:22","fd252370c17a9971d68c1d4354a03c2e","","Mozilla/5.0 (X11; Linux x86_64) AppleWebKit/537.36 (KHTML, like Gecko) Chrome/91.0.4472.27 Safari/537.36","WebKit","Chrome","91.0.4472.27","Linux","","83"," ","","An actress is taking a microphone","2","Filler","",""
"","","","","","fixation","30425","html-keyboard-response","37","281738","0.0-6.0-2.0","44","2","2022-11-17 12:18:22","fd252370c17a9971d68c1d4354a03c2e","","Mozilla/5.0 (X11; Linux x86_64) AppleWebKit/537.36 (KHTML, like Gecko) Chrome/91.0.4472.27 Safari/537.36","WebKit","Chrome","91.0.4472.27","Linux","","null","null","","<p style=""font-size: 48px;"">+</p>","2","Filler","",""
"","","","","","picture","30425","image-keyboard-response","38","282618","0.0-6.0-3.0","44","2","2022-11-17 12:18:22","fd252370c17a9971d68c1d4354a03c2e","","Mozilla/5.0 (X11; Linux x86_64) AppleWebKit/537.36 (KHTML, like Gecko) Chrome/91.0.4472.27 Safari/537.36","WebKit","Chrome","91.0.4472.27","Linux","","878","n","","pants.jpg","2","Filler","true",""
"","","","","","fixation","30425","html-keyboard-response","39","283620","0.0-6.0-0.1","44","2","2022-11-17 12:18:22","fd252370c17a9971d68c1d4354a03c2e","","Mozilla/5.0 (X11; Linux x86_64) AppleWebKit/537.36 (KHTML, like Gecko) Chrome/91.0.4472.27 Safari/537.36","WebKit","Chrome","91.0.4472.27","Linux","","null","null","","<p style=""font-size: 48px;"">+</p>","2","Filler","",""
"","","","","","sentence","30425","html-keyboard-response","40","283756","0.0-6.0-1.1","44","2","2022-11-17 12:18:22","fd252370c17a9971d68c1d4354a03c2e","","Mozilla/5.0 (X11; Linux x86_64) AppleWebKit/537.36 (KHTML, like Gecko) Chrome/91.0.4472.27 Safari/537.36","WebKit","Chrome","91.0.4472.27","Linux","","135"," ","","A remote was placed on the rug","2","Filler","",""
"","","","","","fixation","30425","html-keyboard-response","41","284258","0.0-6.0-2.1","44","2","2022-11-17 12:18:22","fd252370c17a9971d68c1d4354a03c2e","","Mozilla/5.0 (X11; Linux x86_64) AppleWebKit/537.36 (KHTML, like Gecko) Chrome/91.0.4472.27 Safari/537.36","WebKit","Chrome","91.0.4472.27","Linux","","null","null","","<p style=""font-size: 48px;"">+</p>","2","Filler","",""
"","","","","","picture","30425","image-keyboard-response","42","285206","0.0-6.0-3.1","44","2","2022-11-17 12:18:22","fd252370c17a9971d68c1d4354a03c2e","","Mozilla/5.0 (X11; Linux x86_64) AppleWebKit/537.36 (KHTML, like Gecko) Chrome/91.0.4472.27 Safari/537.36","WebKit","Chrome","91.0.4472.27","Linux","","946","n","","CD.jpg","2","Filler","true",""
"","","","","","fixation","30425","html-keyboard-response","43","286208","0.0-6.0-0.2","44","2","2022-11-17 12:18:22","fd252370c17a9971d68c1d4354a03c2e","","Mozilla/5.0 (X11; Linux x86_64) AppleWebKit/537.36 (KHTML, like Gecko) Chrome/91.0.4472.27 Safari/537.36","WebKit","Chrome","91.0.4472.27","Linux","","null","null","","<p style=""font-size: 48px;"">+</p>","2","Filler","",""
"","","","","","sentence","30425","html-keyboard-response","44","287998","0.0-6.0-1.2","44","2","2022-11-17 12:18:22","fd252370c17a9971d68c1d4354a03c2e","","Mozilla/5.0 (X11; Linux x86_64) AppleWebKit/537.36 (KHTML, like Gecko) Chrome/91.0.4472.27 Safari/537.36","WebKit","Chrome","91.0.4472.27","Linux","","1789"," ","","A pencil was placed on the shoe","2","Filler","",""
"","","","","","fixation","30425","html-keyboard-response","45","288501","0.0-6.0-2.2","44","2","2022-11-17 12:18:22","fd252370c17a9971d68c1d4354a03c2e","","Mozilla/5.0 (X11; Linux x86_64) AppleWebKit/537.36 (KHTML, like Gecko) Chrome/91.0.4472.27 Safari/537.36","WebKit","Chrome","91.0.4472.27","Linux","","null","null","","<p style=""font-size: 48px;"">+</p>","2","Filler","",""
"","","","","","picture","30425","image-keyboard-response","46","289292","0.0-6.0-3.2","44","2","2022-11-17 12:18:22","fd252370c17a9971d68c1d4354a03c2e","","Mozilla/5.0 (X11; Linux x86_64) AppleWebKit/537.36 (KHTML, like Gecko) Chrome/91.0.4472.27 Safari/537.36","WebKit","Chrome","91.0.4472.27","Linux","","789","n","","perfume.jpg","2","Filler","true",""
"","","","","","fixation","30425","html-keyboard-response","47","290294","0.0-6.0-0.3","44","2","2022-11-17 12:18:22","fd252370c17a9971d68c1d4354a03c2e","","Mozilla/5.0 (X11; Linux x86_64) AppleWebKit/537.36 (KHTML, like Gecko) Chrome/91.0.4472.27 Safari/537.36","WebKit","Chrome","91.0.4472.27","Linux","","null","null","","<p style=""font-size: 48px;"">+</p>","2","Filler","",""
"","","","","","sentence","30425","html-keyboard-response","48","292291","0.0-6.0-1.3","44","2","2022-11-17 12:18:22","fd252370c17a9971d68c1d4354a03c2e","","Mozilla/5.0 (X11; Linux x86_64) AppleWebKit/537.36 (KHTML, like Gecko) Chrome/91.0.4472.27 Safari/537.36","WebKit","Chrome","91.0.4472.27","Linux","","1995"," ","","An old man is hammering a nail","2","Filler","",""
"","","","","","fixation","30425","html-keyboard-response","49","292792","0.0-6.0-2.3","44","2","2022-11-17 12:18:22","fd252370c17a9971d68c1d4354a03c2e","","Mozilla/5.0 (X11; Linux x86_64) AppleWebKit/537.36 (KHTML, like Gecko) Chrome/91.0.4472.27 Safari/537.36","WebKit","Chrome","91.0.4472.27","Linux","","null","null","","<p style=""font-size: 48px;"">+</p>","2","Filler","",""
"","","","","","picture","30425","image-keyboard-response","50","293592","0.0-6.0-3.3","44","2","2022-11-17 12:18:22","fd252370c17a9971d68c1d4354a03c2e","","Mozilla/5.0 (X11; Linux x86_64) AppleWebKit/537.36 (KHTML, like Gecko) Chrome/91.0.4472.27 Safari/537.36","WebKit","Chrome","91.0.4472.27","Linux","","798","s","","nail.jpg","2","Filler","true",""
"","","","","","fixation","30425","html-keyboard-response","51","294594","0.0-6.0-0.4","44","2","2022-11-17 12:18:22","fd252370c17a9971d68c1d4354a03c2e","","Mozilla/5.0 (X11; Linux x86_64) AppleWebKit/537.36 (KHTML, like Gecko) Chrome/91.0.4472.27 Safari/537.36","WebKit","Chrome","91.0.4472.27","Linux","","null","null","","<p style=""font-size: 48px;"">+</p>","2","Filler","",""
"","","","","","sentence","30425","html-keyboard-response","52","294716","0.0-6.0-1.4","44","2","2022-11-17 12:18:22","fd252370c17a9971d68c1d4354a03c2e","","Mozilla/5.0 (X11; Linux x86_64) AppleWebKit/537.36 (KHTML, like Gecko) Chrome/91.0.4472.27 Safari/537.36","WebKit","Chrome","91.0.4472.27","Linux","","120"," ","","A woman is taking money out of a wallet","2","Filler","",""
"","","","","","fixation","30425","html-keyboard-response","53","295218","0.0-6.0-2.4","44","2","2022-11-17 12:18:22","fd252370c17a9971d68c1d4354a03c2e","","Mozilla/5.0 (X11; Linux x86_64) AppleWebKit/537.36 (KHTML, like Gecko) Chrome/91.0.4472.27 Safari/537.36","WebKit","Chrome","91.0.4472.27","Linux","","null","null","","<p style=""font-size: 48px;"">+</p>","2","Filler","",""
"","","","","","picture","30425","image-keyboard-response","54","295914","0.0-6.0-3.4","44","2","2022-11-17 12:18:22","fd252370c17a9971d68c1d4354a03c2e","","Mozilla/5.0 (X11; Linux x86_64) AppleWebKit/537.36 (KHTML, like Gecko) Chrome/91.0.4472.27 Safari/537.36","WebKit","Chrome","91.0.4472.27","Linux","","694","n","","coconut.jpg","2","Filler","true",""
"","","","","","fixation","30425","html-keyboard-response","55","296917","0.0-6.0-0.5","44","2","2022-11-17 12:18:22","fd252370c17a9971d68c1d4354a03c2e","","Mozilla/5.0 (X11; Linux x86_64) AppleWebKit/537.36 (KHTML, like Gecko) Chrome/91.0.4472.27 Safari/537.36","WebKit","Chrome","91.0.4472.27","Linux","","null","null","","<p style=""font-size: 48px;"">+</p>","2","Heavy_Contradictory","",""
"","","","","","sentence","30425","html-keyboard-response","56","297143","0.0-6.0-1.5","44","2","2022-11-17 12:18:22","fd252370c17a9971d68c1d4354a03c2e","","Mozilla/5.0 (X11; Linux x86_64) AppleWebKit/537.36 (KHTML, like Gecko) Chrome/91.0.4472.27 Safari/537.36","WebKit","Chrome","91.0.4472.27","Linux","","225"," ","","A bowling ball dropped and touched an iPhone","2","Heavy_Contradictory","",""
"","","","","","fixation","30425","html-keyboard-response","57","297645","0.0-6.0-2.5","44","2","2022-11-17 12:18:22","fd252370c17a9971d68c1d4354a03c2e","","Mozilla/5.0 (X11; Linux x86_64) AppleWebKit/537.36 (KHTML, like Gecko) Chrome/91.0.4472.27 Safari/537.36","WebKit","Chrome","91.0.4472.27","Linux","","null","null","","<p style=""font-size: 48px;"">+</p>","2","Heavy_Contradictory","",""
"","","","","","picture","30425","image-keyboard-response","58","298540","0.0-6.0-3.5","44","2","2022-11-17 12:18:22","fd252370c17a9971d68c1d4354a03c2e","","Mozilla/5.0 (X11; Linux x86_64) AppleWebKit/537.36 (KHTML, like Gecko) Chrome/91.0.4472.27 Safari/537.36","WebKit","Chrome","91.0.4472.27","Linux","","892","s","","iphoneS.png","2","Heavy_Contradictory","true",""
"","","","","","fixation","30425","html-keyboard-response","59","299542","0.0-6.0-0.6","44","2","2022-11-17 12:18:22","fd252370c17a9971d68c1d4354a03c2e","","Mozilla/5.0 (X11; Linux x86_64) AppleWebKit/537.36 (KHTML, like Gecko) Chrome/91.0.4472.27 Safari/537.36","WebKit","Chrome","91.0.4472.27","Linux","","null","null","","<p style=""font-size: 48px;"">+</p>","2","Filler","",""
"","","","","","sentence","30425","html-keyboard-response","60","299706","0.0-6.0-1.6","44","2","2022-11-17 12:18:22","fd252370c17a9971d68c1d4354a03c2e","","Mozilla/5.0 (X11; Linux x86_64) AppleWebKit/537.36 (KHTML, like Gecko) Chrome/91.0.4472.27 Safari/537.36","WebKit","Chrome","91.0.4472.27","Linux","","161"," ","","A musician is playing a guitar","2","Filler","",""
"","","","","","fixation","30425","html-keyboard-response","61","300208","0.0-6.0-2.6","44","2","2022-11-17 12:18:22","fd252370c17a9971d68c1d4354a03c2e","","Mozilla/5.0 (X11; Linux x86_64) AppleWebKit/537.36 (KHTML, like Gecko) Chrome/91.0.4472.27 Safari/537.36","WebKit","Chrome","91.0.4472.27","Linux","","null","null","","<p style=""font-size: 48px;"">+</p>","2","Filler","",""
"","","","","","picture","30425","image-keyboard-response","62","301357","0.0-6.0-3.6","44","2","2022-11-17 12:18:22","fd252370c17a9971d68c1d4354a03c2e","","Mozilla/5.0 (X11; Linux x86_64) AppleWebKit/537.36 (KHTML, like Gecko) Chrome/91.0.4472.27 Safari/537.36","WebKit","Chrome","91.0.4472.27","Linux","","1147","s","","guitar.jpg","2","Filler","true",""
"","","","","","fixation","30425","html-keyboard-response","63","302359","0.0-6.0-0.7","44","2","2022-11-17 12:18:22","fd252370c17a9971d68c1d4354a03c2e","","Mozilla/5.0 (X11; Linux x86_64) AppleWebKit/537.36 (KHTML, like Gecko) Chrome/91.0.4472.27 Safari/537.36","WebKit","Chrome","91.0.4472.27","Linux","","null","null","","<p style=""font-size: 48px;"">+</p>","2","Filler","",""
"","","","","","sentence","30425","html-keyboard-response","64","303050","0.0-6.0-1.7","44","2","2022-11-17 12:18:22","fd252370c17a9971d68c1d4354a03c2e","","Mozilla/5.0 (X11; Linux x86_64) AppleWebKit/537.36 (KHTML, like Gecko) Chrome/91.0.4472.27 Safari/537.36","WebKit","Chrome","91.0.4472.27","Linux","","688"," ","","A nurse is taking a syringe","2","Filler","",""
"","","","","","fixation","30425","html-keyboard-response","65","303551","0.0-6.0-2.7","44","2","2022-11-17 12:18:22","fd252370c17a9971d68c1d4354a03c2e","","Mozilla/5.0 (X11; Linux x86_64) AppleWebKit/537.36 (KHTML, like Gecko) Chrome/91.0.4472.27 Safari/537.36","WebKit","Chrome","91.0.4472.27","Linux","","null","null","","<p style=""font-size: 48px;"">+</p>","2","Filler","",""
"","","","","","picture","30425","image-keyboard-response","66","304247","0.0-6.0-3.7","44","2","2022-11-17 12:18:22","fd252370c17a9971d68c1d4354a03c2e","","Mozilla/5.0 (X11; Linux x86_64) AppleWebKit/537.36 (KHTML, like Gecko) Chrome/91.0.4472.27 Safari/537.36","WebKit","Chrome","91.0.4472.27","Linux","","694","n","","headphones.jpg","2","Filler","true",""
"","","","","","fixation","30425","html-keyboard-response","67","305249","0.0-6.0-0.8","44","2","2022-11-17 12:18:22","fd252370c17a9971d68c1d4354a03c2e","","Mozilla/5.0 (X11; Linux x86_64) AppleWebKit/537.36 (KHTML, like Gecko) Chrome/91.0.4472.27 Safari/537.36","WebKit","Chrome","91.0.4472.27","Linux","","null","null","","<p style=""font-size: 48px;"">+</p>","2","Filler","",""
"","","","","","sentence","30425","html-keyboard-response","68","305347","0.0-6.0-1.8","44","2","2022-11-17 12:18:22","fd252370c17a9971d68c1d4354a03c2e","","Mozilla/5.0 (X11; Linux x86_64) AppleWebKit/537.36 (KHTML, like Gecko) Chrome/91.0.4472.27 Safari/537.36","WebKit","Chrome","91.0.4472.27","Linux","","95"," ","","A pilot is reading a book","2","Filler","",""
"","","","","","fixation","30425","html-keyboard-response","69","305849","0.0-6.0-2.8","44","2","2022-11-17 12:18:22","fd252370c17a9971d68c1d4354a03c2e","","Mozilla/5.0 (X11; Linux x86_64) AppleWebKit/537.36 (KHTML, like Gecko) Chrome/91.0.4472.27 Safari/537.36","WebKit","Chrome","91.0.4472.27","Linux","","null","null","","<p style=""font-size: 48px;"">+</p>","2","Filler","",""
"","","","","","picture","30425","image-keyboard-response","70","306700","0.0-6.0-3.8","44","2","2022-11-17 12:18:22","fd252370c17a9971d68c1d4354a03c2e","","Mozilla/5.0 (X11; Linux x86_64) AppleWebKit/537.36 (KHTML, like Gecko) Chrome/91.0.4472.27 Safari/537.36","WebKit","Chrome","91.0.4472.27","Linux","","848","n","","spoon.jpg","2","Filler","true",""
"","","","","","fixation","30425","html-keyboard-response","71","307705","0.0-6.0-0.9","44","2","2022-11-17 12:18:22","fd252370c17a9971d68c1d4354a03c2e","","Mozilla/5.0 (X11; Linux x86_64) AppleWebKit/537.36 (KHTML, like Gecko) Chrome/91.0.4472.27 Safari/537.36","WebKit","Chrome","91.0.4472.27","Linux","","null","null","","<p style=""font-size: 48px;"">+</p>","2","Filler","",""
"","","","","","sentence","30425","html-keyboard-response","72","308965","0.0-6.0-1.9","44","2","2022-11-17 12:18:22","fd252370c17a9971d68c1d4354a03c2e","","Mozilla/5.0 (X11; Linux x86_64) AppleWebKit/537.36 (KHTML, like Gecko) Chrome/91.0.4472.27 Safari/537.36","WebKit","Chrome","91.0.4472.27","Linux","","1257"," ","","A cat is drinking water from a bowl","2","Filler","",""
"","","","","","fixation","30425","html-keyboard-response","73","309468","0.0-6.0-2.9","44","2","2022-11-17 12:18:22","fd252370c17a9971d68c1d4354a03c2e","","Mozilla/5.0 (X11; Linux x86_64) AppleWebKit/537.36 (KHTML, like Gecko) Chrome/91.0.4472.27 Safari/537.36","WebKit","Chrome","91.0.4472.27","Linux","","null","null","","<p style=""font-size: 48px;"">+</p>","2","Filler","",""
"","","","","","picture","30425","image-keyboard-response","74","310645","0.0-6.0-3.9","44","2","2022-11-17 12:18:22","fd252370c17a9971d68c1d4354a03c2e","","Mozilla/5.0 (X11; Linux x86_64) AppleWebKit/537.36 (KHTML, like Gecko) Chrome/91.0.4472.27 Safari/537.36","WebKit","Chrome","91.0.4472.27","Linux","","1174","s","","bowl.jpg","2","Filler","true",""
"","","","","","fixation","30425","html-keyboard-response","75","311648","0.0-6.0-0.10","44","2","2022-11-17 12:18:22","fd252370c17a9971d68c1d4354a03c2e","","Mozilla/5.0 (X11; Linux x86_64) AppleWebKit/537.36 (KHTML, like Gecko) Chrome/91.0.4472.27 Safari/537.36","WebKit","Chrome","91.0.4472.27","Linux","","null","null","","<p style=""font-size: 48px;"">+</p>","2","Filler","",""
"","","","","","sentence","30425","html-keyboard-response","76","313421","0.0-6.0-1.10","44","2","2022-11-17 12:18:22","fd252370c17a9971d68c1d4354a03c2e","","Mozilla/5.0 (X11; Linux x86_64) AppleWebKit/537.36 (KHTML, like Gecko) Chrome/91.0.4472.27 Safari/537.36","WebKit","Chrome","91.0.4472.27","Linux","","1771"," ","","A dentist is drinking a can of cola","2","Filler","",""
"","","","","","fixation","30425","html-keyboard-response","77","313923","0.0-6.0-2.10","44","2","2022-11-17 12:18:22","fd252370c17a9971d68c1d4354a03c2e","","Mozilla/5.0 (X11; Linux x86_64) AppleWebKit/537.36 (KHTML, like Gecko) Chrome/91.0.4472.27 Safari/537.36","WebKit","Chrome","91.0.4472.27","Linux","","null","null","","<p style=""font-size: 48px;"">+</p>","2","Filler","",""
"","","","","","picture","30425","image-keyboard-response","78","314720","0.0-6.0-3.10","44","2","2022-11-17 12:18:22","fd252370c17a9971d68c1d4354a03c2e","","Mozilla/5.0 (X11; Linux x86_64) AppleWebKit/537.36 (KHTML, like Gecko) Chrome/91.0.4472.27 Safari/537.36","WebKit","Chrome","91.0.4472.27","Linux","","793","n","","doll.jpg","2","Filler","true",""
"","","","","","fixation","30425","html-keyboard-response","79","315723","0.0-6.0-0.11","44","2","2022-11-17 12:18:22","fd252370c17a9971d68c1d4354a03c2e","","Mozilla/5.0 (X11; Linux x86_64) AppleWebKit/537.36 (KHTML, like Gecko) Chrome/91.0.4472.27 Safari/537.36","WebKit","Chrome","91.0.4472.27","Linux","","null","null","","<p style=""font-size: 48px;"">+</p>","2","Filler","",""
"","","","","","sentence","30425","html-keyboard-response","80","316561","0.0-6.0-1.11","44","2","2022-11-17 12:18:22","fd252370c17a9971d68c1d4354a03c2e","","Mozilla/5.0 (X11; Linux x86_64) AppleWebKit/537.36 (KHTML, like Gecko) Chrome/91.0.4472.27 Safari/537.36","WebKit","Chrome","91.0.4472.27","Linux","","836"," ","","A fork was placed on the plate","2","Filler","",""
"","","","","","fixation","30425","html-keyboard-response","81","317064","0.0-6.0-2.11","44","2","2022-11-17 12:18:22","fd252370c17a9971d68c1d4354a03c2e","","Mozilla/5.0 (X11; Linux x86_64) AppleWebKit/537.36 (KHTML, like Gecko) Chrome/91.0.4472.27 Safari/537.36","WebKit","Chrome","91.0.4472.27","Linux","","null","null","","<p style=""font-size: 48px;"">+</p>","2","Filler","",""
"","","","","","picture","30425","image-keyboard-response","82","318101","0.0-6.0-3.11","44","2","2022-11-17 12:18:22","fd252370c17a9971d68c1d4354a03c2e","","Mozilla/5.0 (X11; Linux x86_64) AppleWebKit/537.36 (KHTML, like Gecko) Chrome/91.0.4472.27 Safari/537.36","WebKit","Chrome","91.0.4472.27","Linux","","1034","s","","plate.jpg","2","Filler","true",""
"","","","","","fixation","30425","html-keyboard-response","83","319104","0.0-6.0-0.12","44","2","2022-11-17 12:18:22","fd252370c17a9971d68c1d4354a03c2e","","Mozilla/5.0 (X11; Linux x86_64) AppleWebKit/537.36 (KHTML, like Gecko) Chrome/91.0.4472.27 Safari/537.36","WebKit","Chrome","91.0.4472.27","Linux","","null","null","","<p style=""font-size: 48px;"">+</p>","2","Light_Matched","",""
"","","","","","sentence","30425","html-keyboard-response","84","319872","0.0-6.0-1.12","44","2","2022-11-17 12:18:22","fd252370c17a9971d68c1d4354a03c2e","","Mozilla/5.0 (X11; Linux x86_64) AppleWebKit/537.36 (KHTML, like Gecko) Chrome/91.0.4472.27 Safari/537.36","WebKit","Chrome","91.0.4472.27","Linux","","765"," ","","A balloon dropped and touched a strawberry","2","Light_Matched","",""
"","","","","","fixation","30425","html-keyboard-response","85","320375","0.0-6.0-2.12","44","2","2022-11-17 12:18:22","fd252370c17a9971d68c1d4354a03c2e","","Mozilla/5.0 (X11; Linux x86_64) AppleWebKit/537.36 (KHTML, like Gecko) Chrome/91.0.4472.27 Safari/537.36","WebKit","Chrome","91.0.4472.27","Linux","","null","null","","<p style=""font-size: 48px;"">+</p>","2","Light_Matched","",""
"","","","","","picture","30425","image-keyboard-response","86","321334","0.0-6.0-3.12","44","2","2022-11-17 12:18:22","fd252370c17a9971d68c1d4354a03c2e","","Mozilla/5.0 (X11; Linux x86_64) AppleWebKit/537.36 (KHTML, like Gecko) Chrome/91.0.4472.27 Safari/537.36","WebKit","Chrome","91.0.4472.27","Linux","","956","s","","strawberryS.jpg","2","Light_Matched","true",""
"","","","","","fixation","30425","html-keyboard-response","87","322337","0.0-6.0-0.13","44","2","2022-11-17 12:18:22","fd252370c17a9971d68c1d4354a03c2e","","Mozilla/5.0 (X11; Linux x86_64) AppleWebKit/537.36 (KHTML, like Gecko) Chrome/91.0.4472.27 Safari/537.36","WebKit","Chrome","91.0.4472.27","Linux","","null","null","","<p style=""font-size: 48px;"">+</p>","2","Filler","",""
"","","","","","sentence","30425","html-keyboard-response","88","322978","0.0-6.0-1.13","44","2","2022-11-17 12:18:22","fd252370c17a9971d68c1d4354a03c2e","","Mozilla/5.0 (X11; Linux x86_64) AppleWebKit/537.36 (KHTML, like Gecko) Chrome/91.0.4472.27 Safari/537.36","WebKit","Chrome","91.0.4472.27","Linux","","638"," ","","A cook is taking a knife","2","Filler","",""
"","","","","","fixation","30425","html-keyboard-response","89","323480","0.0-6.0-2.13","44","2","2022-11-17 12:18:22","fd252370c17a9971d68c1d4354a03c2e","","Mozilla/5.0 (X11; Linux x86_64) AppleWebKit/537.36 (KHTML, like Gecko) Chrome/91.0.4472.27 Safari/537.36","WebKit","Chrome","91.0.4472.27","Linux","","null","null","","<p style=""font-size: 48px;"">+</p>","2","Filler","",""
"","","","","","picture","30425","image-keyboard-response","90","324265","0.0-6.0-3.13","44","2","2022-11-17 12:18:22","fd252370c17a9971d68c1d4354a03c2e","","Mozilla/5.0 (X11; Linux x86_64) AppleWebKit/537.36 (KHTML, like Gecko) Chrome/91.0.4472.27 Safari/537.36","WebKit","Chrome","91.0.4472.27","Linux","","782","s","","knife.jpg","2","Filler","true",""
"","","","","","fixation","30425","html-keyboard-response","91","325269","0.0-6.0-0.14","44","2","2022-11-17 12:18:22","fd252370c17a9971d68c1d4354a03c2e","","Mozilla/5.0 (X11; Linux x86_64) AppleWebKit/537.36 (KHTML, like Gecko) Chrome/91.0.4472.27 Safari/537.36","WebKit","Chrome","91.0.4472.27","Linux","","null","null","","<p style=""font-size: 48px;"">+</p>","2","Heavy_Matched","",""
"","","","","","sentence","30425","html-keyboard-response","92","325595","0.0-6.0-1.14","44","2","2022-11-17 12:18:22","fd252370c17a9971d68c1d4354a03c2e","","Mozilla/5.0 (X11; Linux x86_64) AppleWebKit/537.36 (KHTML, like Gecko) Chrome/91.0.4472.27 Safari/537.36","WebKit","Chrome","91.0.4472.27","Linux","","323"," ","","A bowling ball dropped and smashed a chocolate ice-cream","2","Heavy_Matched","",""
"","","","","","fixation","30425","html-keyboard-response","93","326098","0.0-6.0-2.14","44","2","2022-11-17 12:18:22","fd252370c17a9971d68c1d4354a03c2e","","Mozilla/5.0 (X11; Linux x86_64) AppleWebKit/537.36 (KHTML, like Gecko) Chrome/91.0.4472.27 Safari/537.36","WebKit","Chrome","91.0.4472.27","Linux","","null","null","","<p style=""font-size: 48px;"">+</p>","2","Heavy_Matched","",""
"","","","","","picture","30425","image-keyboard-response","94","326845","0.0-6.0-3.14","44","2","2022-11-17 12:18:22","fd252370c17a9971d68c1d4354a03c2e","","Mozilla/5.0 (X11; Linux x86_64) AppleWebKit/537.36 (KHTML, like Gecko) Chrome/91.0.4472.27 Safari/537.36","WebKit","Chrome","91.0.4472.27","Linux","","743","s","","icecreamS.jpg","2","Heavy_Matched","true",""
"","","","","","fixation","30425","html-keyboard-response","95","327848","0.0-6.0-0.15","44","2","2022-11-17 12:18:22","fd252370c17a9971d68c1d4354a03c2e","","Mozilla/5.0 (X11; Linux x86_64) AppleWebKit/537.36 (KHTML, like Gecko) Chrome/91.0.4472.27 Safari/537.36","WebKit","Chrome","91.0.4472.27","Linux","","null","null","","<p style=""font-size: 48px;"">+</p>","2","Filler","",""
"","","","","","sentence","30425","html-keyboard-response","96","328147","0.0-6.0-1.15","44","2","2022-11-17 12:18:22","fd252370c17a9971d68c1d4354a03c2e","","Mozilla/5.0 (X11; Linux x86_64) AppleWebKit/537.36 (KHTML, like Gecko) Chrome/91.0.4472.27 Safari/537.36","WebKit","Chrome","91.0.4472.27","Linux","","296"," ","","A boy is wearing a hat","2","Filler","",""
"","","","","","fixation","30425","html-keyboard-response","97","328650","0.0-6.0-2.15","44","2","2022-11-17 12:18:22","fd252370c17a9971d68c1d4354a03c2e","","Mozilla/5.0 (X11; Linux x86_64) AppleWebKit/537.36 (KHTML, like Gecko) Chrome/91.0.4472.27 Safari/537.36","WebKit","Chrome","91.0.4472.27","Linux","","null","null","","<p style=""font-size: 48px;"">+</p>","2","Filler","",""
"","","","","","picture","30425","image-keyboard-response","98","329637","0.0-6.0-3.15","44","2","2022-11-17 12:18:22","fd252370c17a9971d68c1d4354a03c2e","","Mozilla/5.0 (X11; Linux x86_64) AppleWebKit/537.36 (KHTML, like Gecko) Chrome/91.0.4472.27 Safari/537.36","WebKit","Chrome","91.0.4472.27","Linux","","985","s","","hat.jpg","2","Filler","true",""
"","","","","","fixation","30425","html-keyboard-response","99","330640","0.0-6.0-0.16","44","2","2022-11-17 12:18:22","fd252370c17a9971d68c1d4354a03c2e","","Mozilla/5.0 (X11; Linux x86_64) AppleWebKit/537.36 (KHTML, like Gecko) Chrome/91.0.4472.27 Safari/537.36","WebKit","Chrome","91.0.4472.27","Linux","","null","null","","<p style=""font-size: 48px;"">+</p>","2","Filler","",""
"","","","","","sentence","30425","html-keyboard-response","100","331635","0.0-6.0-1.16","44","2","2022-11-17 12:18:22","fd252370c17a9971d68c1d4354a03c2e","","Mozilla/5.0 (X11; Linux x86_64) AppleWebKit/537.36 (KHTML, like Gecko) Chrome/91.0.4472.27 Safari/537.36","WebKit","Chrome","91.0.4472.27","Linux","","992"," ","","A donkey is drinking water.","2","Filler","",""
"","","","","","fixation","30425","html-keyboard-response","101","332138","0.0-6.0-2.16","44","2","2022-11-17 12:18:22","fd252370c17a9971d68c1d4354a03c2e","","Mozilla/5.0 (X11; Linux x86_64) AppleWebKit/537.36 (KHTML, like Gecko) Chrome/91.0.4472.27 Safari/537.36","WebKit","Chrome","91.0.4472.27","Linux","","null","null","","<p style=""font-size: 48px;"">+</p>","2","Filler","",""
"","","","","","picture","30425","image-keyboard-response","102","332809","0.0-6.0-3.16","44","2","2022-11-17 12:18:22","fd252370c17a9971d68c1d4354a03c2e","","Mozilla/5.0 (X11; Linux x86_64) AppleWebKit/537.36 (KHTML, like Gecko) Chrome/91.0.4472.27 Safari/537.36","WebKit","Chrome","91.0.4472.27","Linux","","667","n","","couch.jpg","2","Filler","true",""
"","","","","","fixation","30425","html-keyboard-response","103","333812","0.0-6.0-0.17","44","2","2022-11-17 12:18:22","fd252370c17a9971d68c1d4354a03c2e","","Mozilla/5.0 (X11; Linux x86_64) AppleWebKit/537.36 (KHTML, like Gecko) Chrome/91.0.4472.27 Safari/537.36","WebKit","Chrome","91.0.4472.27","Linux","","null","null","","<p style=""font-size: 48px;"">+</p>","2","Filler","",""
"","","","","","sentence","30425","html-keyboard-response","104","333934","0.0-6.0-1.17","44","2","2022-11-17 12:18:22","fd252370c17a9971d68c1d4354a03c2e","","Mozilla/5.0 (X11; Linux x86_64) AppleWebKit/537.36 (KHTML, like Gecko) Chrome/91.0.4472.27 Safari/537.36","WebKit","Chrome","91.0.4472.27","Linux","","118"," ","","A postman is driving a car","2","Filler","",""
"","","","","","fixation","30425","html-keyboard-response","105","334437","0.0-6.0-2.17","44","2","2022-11-17 12:18:22","fd252370c17a9971d68c1d4354a03c2e","","Mozilla/5.0 (X11; Linux x86_64) AppleWebKit/537.36 (KHTML, like Gecko) Chrome/91.0.4472.27 Safari/537.36","WebKit","Chrome","91.0.4472.27","Linux","","null","null","","<p style=""font-size: 48px;"">+</p>","2","Filler","",""
"","","","","","picture","30425","image-keyboard-response","106","335121","0.0-6.0-3.17","44","2","2022-11-17 12:18:22","fd252370c17a9971d68c1d4354a03c2e","","Mozilla/5.0 (X11; Linux x86_64) AppleWebKit/537.36 (KHTML, like Gecko) Chrome/91.0.4472.27 Safari/537.36","WebKit","Chrome","91.0.4472.27","Linux","","681","s","","car.jpg","2","Filler","true",""
"","","","","","fixation","30425","html-keyboard-response","107","336124","0.0-6.0-0.18","44","2","2022-11-17 12:18:22","fd252370c17a9971d68c1d4354a03c2e","","Mozilla/5.0 (X11; Linux x86_64) AppleWebKit/537.36 (KHTML, like Gecko) Chrome/91.0.4472.27 Safari/537.36","WebKit","Chrome","91.0.4472.27","Linux","","null","null","","<p style=""font-size: 48px;"">+</p>","2","Heavy_Contradictory","",""
"","","","","","sentence","30425","html-keyboard-response","108","336830","0.0-6.0-1.18","44","2","2022-11-17 12:18:22","fd252370c17a9971d68c1d4354a03c2e","","Mozilla/5.0 (X11; Linux x86_64) AppleWebKit/537.36 (KHTML, like Gecko) Chrome/91.0.4472.27 Safari/537.36","WebKit","Chrome","91.0.4472.27","Linux","","702"," ","","A bowling ball dropped and touched a mirror","2","Heavy_Contradictory","",""
"","","","","","fixation","30425","html-keyboard-response","109","337333","0.0-6.0-2.18","44","2","2022-11-17 12:18:22","fd252370c17a9971d68c1d4354a03c2e","","Mozilla/5.0 (X11; Linux x86_64) AppleWebKit/537.36 (KHTML, like Gecko) Chrome/91.0.4472.27 Safari/537.36","WebKit","Chrome","91.0.4472.27","Linux","","null","null","","<p style=""font-size: 48px;"">+</p>","2","Heavy_Contradictory","",""
"","","","","","picture","30425","image-keyboard-response","110","338022","0.0-6.0-3.18","44","2","2022-11-17 12:18:22","fd252370c17a9971d68c1d4354a03c2e","","Mozilla/5.0 (X11; Linux x86_64) AppleWebKit/537.36 (KHTML, like Gecko) Chrome/91.0.4472.27 Safari/537.36","WebKit","Chrome","91.0.4472.27","Linux","","686","s","","mirrorS.jpg","2","Heavy_Contradictory","true",""
"","","","","","fixation","30425","html-keyboard-response","111","339025","0.0-6.0-0.19","44","2","2022-11-17 12:18:22","fd252370c17a9971d68c1d4354a03c2e","","Mozilla/5.0 (X11; Linux x86_64) AppleWebKit/537.36 (KHTML, like Gecko) Chrome/91.0.4472.27 Safari/537.36","WebKit","Chrome","91.0.4472.27","Linux","","null","null","","<p style=""font-size: 48px;"">+</p>","2","Filler","",""
"","","","","","sentence","30425","html-keyboard-response","112","339480","0.0-6.0-1.19","44","2","2022-11-17 12:18:22","fd252370c17a9971d68c1d4354a03c2e","","Mozilla/5.0 (X11; Linux x86_64) AppleWebKit/537.36 (KHTML, like Gecko) Chrome/91.0.4472.27 Safari/537.36","WebKit","Chrome","91.0.4472.27","Linux","","452"," ","","A butterfly is sitting on a flower","2","Filler","",""
"","","","","","fixation","30425","html-keyboard-response","113","339983","0.0-6.0-2.19","44","2","2022-11-17 12:18:22","fd252370c17a9971d68c1d4354a03c2e","","Mozilla/5.0 (X11; Linux x86_64) AppleWebKit/537.36 (KHTML, like Gecko) Chrome/91.0.4472.27 Safari/537.36","WebKit","Chrome","91.0.4472.27","Linux","","null","null","","<p style=""font-size: 48px;"">+</p>","2","Filler","",""
"","","","","","picture","30425","image-keyboard-response","114","340929","0.0-6.0-3.19","44","2","2022-11-17 12:18:22","fd252370c17a9971d68c1d4354a03c2e","","Mozilla/5.0 (X11; Linux x86_64) AppleWebKit/537.36 (KHTML, like Gecko) Chrome/91.0.4472.27 Safari/537.36","WebKit","Chrome","91.0.4472.27","Linux","","942","n","","soap.jpg","2","Filler","true",""
"","","","","","fixation","30425","html-keyboard-response","115","341932","0.0-6.0-0.20","44","2","2022-11-17 12:18:22","fd252370c17a9971d68c1d4354a03c2e","","Mozilla/5.0 (X11; Linux x86_64) AppleWebKit/537.36 (KHTML, like Gecko) Chrome/91.0.4472.27 Safari/537.36","WebKit","Chrome","91.0.4472.27","Linux","","null","null","","<p style=""font-size: 48px;"">+</p>","2","Filler","",""
"","","","","","sentence","30425","html-keyboard-response","116","342612","0.0-6.0-1.20","44","2","2022-11-17 12:18:22","fd252370c17a9971d68c1d4354a03c2e","","Mozilla/5.0 (X11; Linux x86_64) AppleWebKit/537.36 (KHTML, like Gecko) Chrome/91.0.4472.27 Safari/537.36","WebKit","Chrome","91.0.4472.27","Linux","","676"," ","","An owl is sitting on the branch","2","Filler","",""
"","","","","","fixation","30425","html-keyboard-response","117","343116","0.0-6.0-2.20","44","2","2022-11-17 12:18:22","fd252370c17a9971d68c1d4354a03c2e","","Mozilla/5.0 (X11; Linux x86_64) AppleWebKit/537.36 (KHTML, like Gecko) Chrome/91.0.4472.27 Safari/537.36","WebKit","Chrome","91.0.4472.27","Linux","","null","null","","<p style=""font-size: 48px;"">+</p>","2","Filler","",""
"","","","","","picture","30425","image-keyboard-response","118","343907","0.0-6.0-3.20","44","2","2022-11-17 12:18:22","fd252370c17a9971d68c1d4354a03c2e","","Mozilla/5.0 (X11; Linux x86_64) AppleWebKit/537.36 (KHTML, like Gecko) Chrome/91.0.4472.27 Safari/537.36","WebKit","Chrome","91.0.4472.27","Linux","","787","n","","rubberduck.jpg","2","Filler","true",""
"","","","","","fixation","30425","html-keyboard-response","119","344910","0.0-6.0-0.21","44","2","2022-11-17 12:18:22","fd252370c17a9971d68c1d4354a03c2e","","Mozilla/5.0 (X11; Linux x86_64) AppleWebKit/537.36 (KHTML, like Gecko) Chrome/91.0.4472.27 Safari/537.36","WebKit","Chrome","91.0.4472.27","Linux","","null","null","","<p style=""font-size: 48px;"">+</p>","2","Filler","",""
"","","","","","sentence","30425","html-keyboard-response","120","345506","0.0-6.0-1.21","44","2","2022-11-17 12:18:22","fd252370c17a9971d68c1d4354a03c2e","","Mozilla/5.0 (X11; Linux x86_64) AppleWebKit/537.36 (KHTML, like Gecko) Chrome/91.0.4472.27 Safari/537.36","WebKit","Chrome","91.0.4472.27","Linux","","593"," ","","A president is writing in the notebook","2","Filler","",""
"","","","","","fixation","30425","html-keyboard-response","121","346009","0.0-6.0-2.21","44","2","2022-11-17 12:18:22","fd252370c17a9971d68c1d4354a03c2e","","Mozilla/5.0 (X11; Linux x86_64) AppleWebKit/537.36 (KHTML, like Gecko) Chrome/91.0.4472.27 Safari/537.36","WebKit","Chrome","91.0.4472.27","Linux","","null","null","","<p style=""font-size: 48px;"">+</p>","2","Filler","",""
"","","","","","picture","30425","image-keyboard-response","122","346825","0.0-6.0-3.21","44","2","2022-11-17 12:18:22","fd252370c17a9971d68c1d4354a03c2e","","Mozilla/5.0 (X11; Linux x86_64) AppleWebKit/537.36 (KHTML, like Gecko) Chrome/91.0.4472.27 Safari/537.36","WebKit","Chrome","91.0.4472.27","Linux","","812","n","","can.jpg","2","Filler","true",""
"","","","","","fixation","30425","html-keyboard-response","123","347827","0.0-6.0-0.22","44","2","2022-11-17 12:18:22","fd252370c17a9971d68c1d4354a03c2e","","Mozilla/5.0 (X11; Linux x86_64) AppleWebKit/537.36 (KHTML, like Gecko) Chrome/91.0.4472.27 Safari/537.36","WebKit","Chrome","91.0.4472.27","Linux","","null","null","","<p style=""font-size: 48px;"">+</p>","2","Filler","",""
"","","","","","sentence","30425","html-keyboard-response","124","348403","0.0-6.0-1.22","44","2","2022-11-17 12:18:22","fd252370c17a9971d68c1d4354a03c2e","","Mozilla/5.0 (X11; Linux x86_64) AppleWebKit/537.36 (KHTML, like Gecko) Chrome/91.0.4472.27 Safari/537.36","WebKit","Chrome","91.0.4472.27","Linux","","573"," ","","A thief is stealing a wallet","2","Filler","",""
"","","","","","fixation","30425","html-keyboard-response","125","348906","0.0-6.0-2.22","44","2","2022-11-17 12:18:22","fd252370c17a9971d68c1d4354a03c2e","","Mozilla/5.0 (X11; Linux x86_64) AppleWebKit/537.36 (KHTML, like Gecko) Chrome/91.0.4472.27 Safari/537.36","WebKit","Chrome","91.0.4472.27","Linux","","null","null","","<p style=""font-size: 48px;"">+</p>","2","Filler","",""
"","","","","","picture","30425","image-keyboard-response","126","349737","0.0-6.0-3.22","44","2","2022-11-17 12:18:22","fd252370c17a9971d68c1d4354a03c2e","","Mozilla/5.0 (X11; Linux x86_64) AppleWebKit/537.36 (KHTML, like Gecko) Chrome/91.0.4472.27 Safari/537.36","WebKit","Chrome","91.0.4472.27","Linux","","829","n","","teddybear.jpg","2","Filler","true",""
"","","","","","fixation","30425","html-keyboard-response","127","350740","0.0-6.0-0.23","44","2","2022-11-17 12:18:22","fd252370c17a9971d68c1d4354a03c2e","","Mozilla/5.0 (X11; Linux x86_64) AppleWebKit/537.36 (KHTML, like Gecko) Chrome/91.0.4472.27 Safari/537.36","WebKit","Chrome","91.0.4472.27","Linux","","null","null","","<p style=""font-size: 48px;"">+</p>","2","Filler","",""
"","","","","","sentence","30425","html-keyboard-response","128","351215","0.0-6.0-1.23","44","2","2022-11-17 12:18:22","fd252370c17a9971d68c1d4354a03c2e","","Mozilla/5.0 (X11; Linux x86_64) AppleWebKit/537.36 (KHTML, like Gecko) Chrome/91.0.4472.27 Safari/537.36","WebKit","Chrome","91.0.4472.27","Linux","","472"," ","","A toothbrush was placed on the sponge","2","Filler","",""
"","","","","","fixation","30425","html-keyboard-response","129","351718","0.0-6.0-2.23","44","2","2022-11-17 12:18:22","fd252370c17a9971d68c1d4354a03c2e","","Mozilla/5.0 (X11; Linux x86_64) AppleWebKit/537.36 (KHTML, like Gecko) Chrome/91.0.4472.27 Safari/537.36","WebKit","Chrome","91.0.4472.27","Linux","","null","null","","<p style=""font-size: 48px;"">+</p>","2","Filler","",""
"","","","","","picture","30425","image-keyboard-response","130","352809","0.0-6.0-3.23","44","2","2022-11-17 12:18:22","fd252370c17a9971d68c1d4354a03c2e","","Mozilla/5.0 (X11; Linux x86_64) AppleWebKit/537.36 (KHTML, like Gecko) Chrome/91.0.4472.27 Safari/537.36","WebKit","Chrome","91.0.4472.27","Linux","","1088","s","","sponge.jpg","2","Filler","true",""
"","","","","","fixation","30425","html-keyboard-response","131","353813","0.0-6.0-0.24","44","2","2022-11-17 12:18:22","fd252370c17a9971d68c1d4354a03c2e","","Mozilla/5.0 (X11; Linux x86_64) AppleWebKit/537.36 (KHTML, like Gecko) Chrome/91.0.4472.27 Safari/537.36","WebKit","Chrome","91.0.4472.27","Linux","","null","null","","<p style=""font-size: 48px;"">+</p>","2","Light_Contradictory","",""
"","","","","","sentence","30425","html-keyboard-response","132","354188","0.0-6.0-1.24","44","2","2022-11-17 12:18:22","fd252370c17a9971d68c1d4354a03c2e","","Mozilla/5.0 (X11; Linux x86_64) AppleWebKit/537.36 (KHTML, like Gecko) Chrome/91.0.4472.27 Safari/537.36","WebKit","Chrome","91.0.4472.27","Linux","","372"," ","","A balloon dropped and smashed a piece of cake","2","Light_Contradictory","",""
"","","","","","fixation","30425","html-keyboard-response","133","354691","0.0-6.0-2.24","44","2","2022-11-17 12:18:22","fd252370c17a9971d68c1d4354a03c2e","","Mozilla/5.0 (X11; Linux x86_64) AppleWebKit/537.36 (KHTML, like Gecko) Chrome/91.0.4472.27 Safari/537.36","WebKit","Chrome","91.0.4472.27","Linux","","null","null","","<p style=""font-size: 48px;"">+</p>","2","Light_Contradictory","",""
"","","","","","picture","30425","image-keyboard-response","134","356064","0.0-6.0-3.24","44","2","2022-11-17 12:18:22","fd252370c17a9971d68c1d4354a03c2e","","Mozilla/5.0 (X11; Linux x86_64) AppleWebKit/537.36 (KHTML, like Gecko) Chrome/91.0.4472.27 Safari/537.36","WebKit","Chrome","91.0.4472.27","Linux","","1368","n","","cakeS.jpg","2","Light_Contradictory","false",""
"","","","","","fixation","30425","html-keyboard-response","135","357067","0.0-6.0-0.25","44","2","2022-11-17 12:18:22","fd252370c17a9971d68c1d4354a03c2e","","Mozilla/5.0 (X11; Linux x86_64) AppleWebKit/537.36 (KHTML, like Gecko) Chrome/91.0.4472.27 Safari/537.36","WebKit","Chrome","91.0.4472.27","Linux","","null","null","","<p style=""font-size: 48px;"">+</p>","2","Filler","",""
"","","","","","sentence","30425","html-keyboard-response","136","357319","0.0-6.0-1.25","44","2","2022-11-17 12:18:22","fd252370c17a9971d68c1d4354a03c2e","","Mozilla/5.0 (X11; Linux x86_64) AppleWebKit/537.36 (KHTML, like Gecko) Chrome/91.0.4472.27 Safari/537.36","WebKit","Chrome","91.0.4472.27","Linux","","249"," ","","A towel was placed on the TV","2","Filler","",""
"","","","","","fixation","30425","html-keyboard-response","137","357823","0.0-6.0-2.25","44","2","2022-11-17 12:18:22","fd252370c17a9971d68c1d4354a03c2e","","Mozilla/5.0 (X11; Linux x86_64) AppleWebKit/537.36 (KHTML, like Gecko) Chrome/91.0.4472.27 Safari/537.36","WebKit","Chrome","91.0.4472.27","Linux","","null","null","","<p style=""font-size: 48px;"">+</p>","2","Filler","",""
"","","","","","picture","30425","image-keyboard-response","138","359195","0.0-6.0-3.25","44","2","2022-11-17 12:18:22","fd252370c17a9971d68c1d4354a03c2e","","Mozilla/5.0 (X11; Linux x86_64) AppleWebKit/537.36 (KHTML, like Gecko) Chrome/91.0.4472.27 Safari/537.36","WebKit","Chrome","91.0.4472.27","Linux","","1369","n","","pencil.jpg","2","Filler","true",""
"","","","","","fixation","30425","html-keyboard-response","139","360198","0.0-6.0-0.26","44","2","2022-11-17 12:18:22","fd252370c17a9971d68c1d4354a03c2e","","Mozilla/5.0 (X11; Linux x86_64) AppleWebKit/537.36 (KHTML, like Gecko) Chrome/91.0.4472.27 Safari/537.36","WebKit","Chrome","91.0.4472.27","Linux","","null","null","","<p style=""font-size: 48px;"">+</p>","2","Filler","",""
"","","","","","sentence","30425","html-keyboard-response","140","360650","0.0-6.0-1.26","44","2","2022-11-17 12:18:22","fd252370c17a9971d68c1d4354a03c2e","","Mozilla/5.0 (X11; Linux x86_64) AppleWebKit/537.36 (KHTML, like Gecko) Chrome/91.0.4472.27 Safari/537.36","WebKit","Chrome","91.0.4472.27","Linux","","449"," ","","A man is boiling potatoes.","2","Filler","",""
"","","","","","fixation","30425","html-keyboard-response","141","361153","0.0-6.0-2.26","44","2","2022-11-17 12:18:22","fd252370c17a9971d68c1d4354a03c2e","","Mozilla/5.0 (X11; Linux x86_64) AppleWebKit/537.36 (KHTML, like Gecko) Chrome/91.0.4472.27 Safari/537.36","WebKit","Chrome","91.0.4472.27","Linux","","null","null","","<p style=""font-size: 48px;"">+</p>","2","Filler","",""
"","","","","","picture","30425","image-keyboard-response","142","361864","0.0-6.0-3.26","44","2","2022-11-17 12:18:22","fd252370c17a9971d68c1d4354a03c2e","","Mozilla/5.0 (X11; Linux x86_64) AppleWebKit/537.36 (KHTML, like Gecko) Chrome/91.0.4472.27 Safari/537.36","WebKit","Chrome","91.0.4472.27","Linux","","707","n","","cup.jpg","2","Filler","true",""
"","","","","","fixation","30425","html-keyboard-response","143","362868","0.0-6.0-0.27","44","2","2022-11-17 12:18:22","fd252370c17a9971d68c1d4354a03c2e","","Mozilla/5.0 (X11; Linux x86_64) AppleWebKit/537.36 (KHTML, like Gecko) Chrome/91.0.4472.27 Safari/537.36","WebKit","Chrome","91.0.4472.27","Linux","","null","null","","<p style=""font-size: 48px;"">+</p>","2","Heavy_Contradictory","",""
"","","","","","sentence","30425","html-keyboard-response","144","363579","0.0-6.0-1.27","44","2","2022-11-17 12:18:22","fd252370c17a9971d68c1d4354a03c2e","","Mozilla/5.0 (X11; Linux x86_64) AppleWebKit/537.36 (KHTML, like Gecko) Chrome/91.0.4472.27 Safari/537.36","WebKit","Chrome","91.0.4472.27","Linux","","707"," ","","A bowling ball dropped and touched a donut","2","Heavy_Contradictory","",""
"","","","","","fixation","30425","html-keyboard-response","145","364081","0.0-6.0-2.27","44","2","2022-11-17 12:18:22","fd252370c17a9971d68c1d4354a03c2e","","Mozilla/5.0 (X11; Linux x86_64) AppleWebKit/537.36 (KHTML, like Gecko) Chrome/91.0.4472.27 Safari/537.36","WebKit","Chrome","91.0.4472.27","Linux","","null","null","","<p style=""font-size: 48px;"">+</p>","2","Heavy_Contradictory","",""
"","","","","","picture","30425","image-keyboard-response","146","364943","0.0-6.0-3.27","44","2","2022-11-17 12:18:22","fd252370c17a9971d68c1d4354a03c2e","","Mozilla/5.0 (X11; Linux x86_64) AppleWebKit/537.36 (KHTML, like Gecko) Chrome/91.0.4472.27 Safari/537.36","WebKit","Chrome","91.0.4472.27","Linux","","857","s","","donutS.jpg","2","Heavy_Contradictory","true",""
"","","","","","fixation","30425","html-keyboard-response","147","365946","0.0-6.0-0.28","44","2","2022-11-17 12:18:22","fd252370c17a9971d68c1d4354a03c2e","","Mozilla/5.0 (X11; Linux x86_64) AppleWebKit/537.36 (KHTML, like Gecko) Chrome/91.0.4472.27 Safari/537.36","WebKit","Chrome","91.0.4472.27","Linux","","null","null","","<p style=""font-size: 48px;"">+</p>","2","Filler","",""
"","","","","","sentence","30425","html-keyboard-response","148","366003","0.0-6.0-1.28","44","2","2022-11-17 12:18:22","fd252370c17a9971d68c1d4354a03c2e","","Mozilla/5.0 (X11; Linux x86_64) AppleWebKit/537.36 (KHTML, like Gecko) Chrome/91.0.4472.27 Safari/537.36","WebKit","Chrome","91.0.4472.27","Linux","","52"," ","","A student is writing on a board","2","Filler","",""
"","","","","","fixation","30425","html-keyboard-response","149","366507","0.0-6.0-2.28","44","2","2022-11-17 12:18:22","fd252370c17a9971d68c1d4354a03c2e","","Mozilla/5.0 (X11; Linux x86_64) AppleWebKit/537.36 (KHTML, like Gecko) Chrome/91.0.4472.27 Safari/537.36","WebKit","Chrome","91.0.4472.27","Linux","","null","null","","<p style=""font-size: 48px;"">+</p>","2","Filler","",""
"","","","","","picture","30425","image-keyboard-response","150","369037","0.0-6.0-3.28","44","2","2022-11-17 12:18:22","fd252370c17a9971d68c1d4354a03c2e","","Mozilla/5.0 (X11; Linux x86_64) AppleWebKit/537.36 (KHTML, like Gecko) Chrome/91.0.4472.27 Safari/537.36","WebKit","Chrome","91.0.4472.27","Linux","","2526","n","","owl.jpg","2","Filler","true",""
"","","","","","fixation","30425","html-keyboard-response","151","370041","0.0-6.0-0.29","44","2","2022-11-17 12:18:22","fd252370c17a9971d68c1d4354a03c2e","","Mozilla/5.0 (X11; Linux x86_64) AppleWebKit/537.36 (KHTML, like Gecko) Chrome/91.0.4472.27 Safari/537.36","WebKit","Chrome","91.0.4472.27","Linux","","null","null","","<p style=""font-size: 48px;"">+</p>","2","Heavy_Matched","",""
"","","","","","sentence","30425","html-keyboard-response","152","370244","0.0-6.0-1.29","44","2","2022-11-17 12:18:22","fd252370c17a9971d68c1d4354a03c2e","","Mozilla/5.0 (X11; Linux x86_64) AppleWebKit/537.36 (KHTML, like Gecko) Chrome/91.0.4472.27 Safari/537.36","WebKit","Chrome","91.0.4472.27","Linux","","198"," ","","A bowling ball dropped and smashed an egg flan","2","Heavy_Matched","",""
"","","","","","fixation","30425","html-keyboard-response","153","370748","0.0-6.0-2.29","44","2","2022-11-17 12:18:22","fd252370c17a9971d68c1d4354a03c2e","","Mozilla/5.0 (X11; Linux x86_64) AppleWebKit/537.36 (KHTML, like Gecko) Chrome/91.0.4472.27 Safari/537.36","WebKit","Chrome","91.0.4472.27","Linux","","null","null","","<p style=""font-size: 48px;"">+</p>","2","Heavy_Matched","",""
"","","","","","picture","30425","image-keyboard-response","154","372138","0.0-6.0-3.29","44","2","2022-11-17 12:18:22","fd252370c17a9971d68c1d4354a03c2e","","Mozilla/5.0 (X11; Linux x86_64) AppleWebKit/537.36 (KHTML, like Gecko) Chrome/91.0.4472.27 Safari/537.36","WebKit","Chrome","91.0.4472.27","Linux","","1385","n","","eggflanS.jpg","2","Heavy_Matched","false",""
"","","","","","fixation","30425","html-keyboard-response","155","373143","0.0-6.0-0.30","44","2","2022-11-17 12:18:22","fd252370c17a9971d68c1d4354a03c2e","","Mozilla/5.0 (X11; Linux x86_64) AppleWebKit/537.36 (KHTML, like Gecko) Chrome/91.0.4472.27 Safari/537.36","WebKit","Chrome","91.0.4472.27","Linux","","null","null","","<p style=""font-size: 48px;"">+</p>","2","Filler","",""
"","","","","","sentence","30425","html-keyboard-response","156","374246","0.0-6.0-1.30","44","2","2022-11-17 12:18:22","fd252370c17a9971d68c1d4354a03c2e","","Mozilla/5.0 (X11; Linux x86_64) AppleWebKit/537.36 (KHTML, like Gecko) Chrome/91.0.4472.27 Safari/537.36","WebKit","Chrome","91.0.4472.27","Linux","","1099"," ","","A keyboard was placed on the bed","2","Filler","",""
"","","","","","fixation","30425","html-keyboard-response","157","374751","0.0-6.0-2.30","44","2","2022-11-17 12:18:22","fd252370c17a9971d68c1d4354a03c2e","","Mozilla/5.0 (X11; Linux x86_64) AppleWebKit/537.36 (KHTML, like Gecko) Chrome/91.0.4472.27 Safari/537.36","WebKit","Chrome","91.0.4472.27","Linux","","null","null","","<p style=""font-size: 48px;"">+</p>","2","Filler","",""
"","","","","","picture","30425","image-keyboard-response","158","375404","0.0-6.0-3.30","44","2","2022-11-17 12:18:22","fd252370c17a9971d68c1d4354a03c2e","","Mozilla/5.0 (X11; Linux x86_64) AppleWebKit/537.36 (KHTML, like Gecko) Chrome/91.0.4472.27 Safari/537.36","WebKit","Chrome","91.0.4472.27","Linux","","648","n","","bottlecap.jpg","2","Filler","true",""
"","","","","","fixation","30425","html-keyboard-response","159","376407","0.0-6.0-0.31","44","2","2022-11-17 12:18:22","fd252370c17a9971d68c1d4354a03c2e","","Mozilla/5.0 (X11; Linux x86_64) AppleWebKit/537.36 (KHTML, like Gecko) Chrome/91.0.4472.27 Safari/537.36","WebKit","Chrome","91.0.4472.27","Linux","","null","null","","<p style=""font-size: 48px;"">+</p>","2","Filler","",""
"","","","","","sentence","30425","html-keyboard-response","160","376918","0.0-6.0-1.31","44","2","2022-11-17 12:18:22","fd252370c17a9971d68c1d4354a03c2e","","Mozilla/5.0 (X11; Linux x86_64) AppleWebKit/537.36 (KHTML, like Gecko) Chrome/91.0.4472.27 Safari/537.36","WebKit","Chrome","91.0.4472.27","Linux","","508"," ","","A giraffe is playing with a zebra","2","Filler","",""
"","","","","","fixation","30425","html-keyboard-response","161","377423","0.0-6.0-2.31","44","2","2022-11-17 12:18:22","fd252370c17a9971d68c1d4354a03c2e","","Mozilla/5.0 (X11; Linux x86_64) AppleWebKit/537.36 (KHTML, like Gecko) Chrome/91.0.4472.27 Safari/537.36","WebKit","Chrome","91.0.4472.27","Linux","","null","null","","<p style=""font-size: 48px;"">+</p>","2","Filler","",""
"","","","","","picture","30425","image-keyboard-response","162","378530","0.0-6.0-3.31","44","2","2022-11-17 12:18:22","fd252370c17a9971d68c1d4354a03c2e","","Mozilla/5.0 (X11; Linux x86_64) AppleWebKit/537.36 (KHTML, like Gecko) Chrome/91.0.4472.27 Safari/537.36","WebKit","Chrome","91.0.4472.27","Linux","","1102","n","","wallet.jpg","2","Filler","true",""
"","","","","","fixation","30425","html-keyboard-response","163","379534","0.0-6.0-0.32","44","2","2022-11-17 12:18:22","fd252370c17a9971d68c1d4354a03c2e","","Mozilla/5.0 (X11; Linux x86_64) AppleWebKit/537.36 (KHTML, like Gecko) Chrome/91.0.4472.27 Safari/537.36","WebKit","Chrome","91.0.4472.27","Linux","","null","null","","<p style=""font-size: 48px;"">+</p>","2","Filler","",""
"","","","","","sentence","30425","html-keyboard-response","164","379953","0.0-6.0-1.32","44","2","2022-11-17 12:18:22","fd252370c17a9971d68c1d4354a03c2e","","Mozilla/5.0 (X11; Linux x86_64) AppleWebKit/537.36 (KHTML, like Gecko) Chrome/91.0.4472.27 Safari/537.36","WebKit","Chrome","91.0.4472.27","Linux","","416"," ","","A needle was placed on the mouse pad","2","Filler","",""
"","","","","","fixation","30425","html-keyboard-response","165","380458","0.0-6.0-2.32","44","2","2022-11-17 12:18:22","fd252370c17a9971d68c1d4354a03c2e","","Mozilla/5.0 (X11; Linux x86_64) AppleWebKit/537.36 (KHTML, like Gecko) Chrome/91.0.4472.27 Safari/537.36","WebKit","Chrome","91.0.4472.27","Linux","","null","null","","<p style=""font-size: 48px;"">+</p>","2","Filler","",""
"","","","","","picture","30425","image-keyboard-response","166","381390","0.0-6.0-3.32","44","2","2022-11-17 12:18:22","fd252370c17a9971d68c1d4354a03c2e","","Mozilla/5.0 (X11; Linux x86_64) AppleWebKit/537.36 (KHTML, like Gecko) Chrome/91.0.4472.27 Safari/537.36","WebKit","Chrome","91.0.4472.27","Linux","","927","n","","chocolate.jpg","2","Filler","true",""
"","","","","","fixation","30425","html-keyboard-response","167","382394","0.0-6.0-0.33","44","2","2022-11-17 12:18:22","fd252370c17a9971d68c1d4354a03c2e","","Mozilla/5.0 (X11; Linux x86_64) AppleWebKit/537.36 (KHTML, like Gecko) Chrome/91.0.4472.27 Safari/537.36","WebKit","Chrome","91.0.4472.27","Linux","","null","null","","<p style=""font-size: 48px;"">+</p>","2","Light_Matched","",""
"","","","","","sentence","30425","html-keyboard-response","168","382454","0.0-6.0-1.33","44","2","2022-11-17 12:18:22","fd252370c17a9971d68c1d4354a03c2e","","Mozilla/5.0 (X11; Linux x86_64) AppleWebKit/537.36 (KHTML, like Gecko) Chrome/91.0.4472.27 Safari/537.36","WebKit","Chrome","91.0.4472.27","Linux","","56"," ","","A balloon dropped and touched a tile","2","Light_Matched","",""
"","","","","","fixation","30425","html-keyboard-response","169","382959","0.0-6.0-2.33","44","2","2022-11-17 12:18:22","fd252370c17a9971d68c1d4354a03c2e","","Mozilla/5.0 (X11; Linux x86_64) AppleWebKit/537.36 (KHTML, like Gecko) Chrome/91.0.4472.27 Safari/537.36","WebKit","Chrome","91.0.4472.27","Linux","","null","null","","<p style=""font-size: 48px;"">+</p>","2","Light_Matched","",""
"","","","","","picture","30425","image-keyboard-response","170","383865","0.0-6.0-3.33","44","2","2022-11-17 12:18:22","fd252370c17a9971d68c1d4354a03c2e","","Mozilla/5.0 (X11; Linux x86_64) AppleWebKit/537.36 (KHTML, like Gecko) Chrome/91.0.4472.27 Safari/537.36","WebKit","Chrome","91.0.4472.27","Linux","","902","n","","tileS.jpg","2","Light_Matched","false",""
"","","","","","fixation","30425","html-keyboard-response","171","384868","0.0-6.0-0.34","44","2","2022-11-17 12:18:22","fd252370c17a9971d68c1d4354a03c2e","","Mozilla/5.0 (X11; Linux x86_64) AppleWebKit/537.36 (KHTML, like Gecko) Chrome/91.0.4472.27 Safari/537.36","WebKit","Chrome","91.0.4472.27","Linux","","null","null","","<p style=""font-size: 48px;"">+</p>","2","Filler","",""
"","","","","","sentence","30425","html-keyboard-response","172","385239","0.0-6.0-1.34","44","2","2022-11-17 12:18:22","fd252370c17a9971d68c1d4354a03c2e","","Mozilla/5.0 (X11; Linux x86_64) AppleWebKit/537.36 (KHTML, like Gecko) Chrome/91.0.4472.27 Safari/537.36","WebKit","Chrome","91.0.4472.27","Linux","","366"," ","","A woman is paying with a debit card","2","Filler","",""
"","","","","","fixation","30425","html-keyboard-response","173","385743","0.0-6.0-2.34","44","2","2022-11-17 12:18:22","fd252370c17a9971d68c1d4354a03c2e","","Mozilla/5.0 (X11; Linux x86_64) AppleWebKit/537.36 (KHTML, like Gecko) Chrome/91.0.4472.27 Safari/537.36","WebKit","Chrome","91.0.4472.27","Linux","","null","null","","<p style=""font-size: 48px;"">+</p>","2","Filler","",""
"","","","","","picture","30425","image-keyboard-response","174","387138","0.0-6.0-3.34","44","2","2022-11-17 12:18:22","fd252370c17a9971d68c1d4354a03c2e","","Mozilla/5.0 (X11; Linux x86_64) AppleWebKit/537.36 (KHTML, like Gecko) Chrome/91.0.4472.27 Safari/537.36","WebKit","Chrome","91.0.4472.27","Linux","","1390","n","","papercup.jpg","2","Filler","true",""
"","","","","","fixation","30425","html-keyboard-response","175","388142","0.0-6.0-0.35","44","2","2022-11-17 12:18:22","fd252370c17a9971d68c1d4354a03c2e","","Mozilla/5.0 (X11; Linux x86_64) AppleWebKit/537.36 (KHTML, like Gecko) Chrome/91.0.4472.27 Safari/537.36","WebKit","Chrome","91.0.4472.27","Linux","","null","null","","<p style=""font-size: 48px;"">+</p>","2","Filler","",""
"","","","","","sentence","30425","html-keyboard-response","176","388766","0.0-6.0-1.35","44","2","2022-11-17 12:18:22","fd252370c17a9971d68c1d4354a03c2e","","Mozilla/5.0 (X11; Linux x86_64) AppleWebKit/537.36 (KHTML, like Gecko) Chrome/91.0.4472.27 Safari/537.36","WebKit","Chrome","91.0.4472.27","Linux","","619"," ","","An elephant is eating a watermelon","2","Filler","",""
"","","","","","fixation","30425","html-keyboard-response","177","389270","0.0-6.0-2.35","44","2","2022-11-17 12:18:22","fd252370c17a9971d68c1d4354a03c2e","","Mozilla/5.0 (X11; Linux x86_64) AppleWebKit/537.36 (KHTML, like Gecko) Chrome/91.0.4472.27 Safari/537.36","WebKit","Chrome","91.0.4472.27","Linux","","null","null","","<p style=""font-size: 48px;"">+</p>","2","Filler","",""
"","","","","","picture","30425","image-keyboard-response","178","390148","0.0-6.0-3.35","44","2","2022-11-17 12:18:22","fd252370c17a9971d68c1d4354a03c2e","","Mozilla/5.0 (X11; Linux x86_64) AppleWebKit/537.36 (KHTML, like Gecko) Chrome/91.0.4472.27 Safari/537.36","WebKit","Chrome","91.0.4472.27","Linux","","873","s","","watermelon.jpg","2","Filler","true",""
"","","","","","fixation","30425","html-keyboard-response","179","391152","0.0-6.0-0.36","44","2","2022-11-17 12:18:22","fd252370c17a9971d68c1d4354a03c2e","","Mozilla/5.0 (X11; Linux x86_64) AppleWebKit/537.36 (KHTML, like Gecko) Chrome/91.0.4472.27 Safari/537.36","WebKit","Chrome","91.0.4472.27","Linux","","null","null","","<p style=""font-size: 48px;"">+</p>","2","Filler","",""
"","","","","","sentence","30425","html-keyboard-response","180","391777","0.0-6.0-1.36","44","2","2022-11-17 12:18:22","fd252370c17a9971d68c1d4354a03c2e","","Mozilla/5.0 (X11; Linux x86_64) AppleWebKit/537.36 (KHTML, like Gecko) Chrome/91.0.4472.27 Safari/537.36","WebKit","Chrome","91.0.4472.27","Linux","","620"," ","","A photographer is taking a photo of a lion","2","Filler","",""
"","","","","","fixation","30425","html-keyboard-response","181","392281","0.0-6.0-2.36","44","2","2022-11-17 12:18:22","fd252370c17a9971d68c1d4354a03c2e","","Mozilla/5.0 (X11; Linux x86_64) AppleWebKit/537.36 (KHTML, like Gecko) Chrome/91.0.4472.27 Safari/537.36","WebKit","Chrome","91.0.4472.27","Linux","","null","null","","<p style=""font-size: 48px;"">+</p>","2","Filler","",""
"","","","","","picture","30425","image-keyboard-response","182","393064","0.0-6.0-3.36","44","2","2022-11-17 12:18:22","fd252370c17a9971d68c1d4354a03c2e","","Mozilla/5.0 (X11; Linux x86_64) AppleWebKit/537.36 (KHTML, like Gecko) Chrome/91.0.4472.27 Safari/537.36","WebKit","Chrome","91.0.4472.27","Linux","","779","s","","lion.jpg","2","Filler","true",""
"","","","","","fixation","30425","html-keyboard-response","183","394069","0.0-6.0-0.37","44","2","2022-11-17 12:18:22","fd252370c17a9971d68c1d4354a03c2e","","Mozilla/5.0 (X11; Linux x86_64) AppleWebKit/537.36 (KHTML, like Gecko) Chrome/91.0.4472.27 Safari/537.36","WebKit","Chrome","91.0.4472.27","Linux","","null","null","","<p style=""font-size: 48px;"">+</p>","2","Filler","",""
"","","","","","sentence","30425","html-keyboard-response","184","394295","0.0-6.0-1.37","44","2","2022-11-17 12:18:22","fd252370c17a9971d68c1d4354a03c2e","","Mozilla/5.0 (X11; Linux x86_64) AppleWebKit/537.36 (KHTML, like Gecko) Chrome/91.0.4472.27 Safari/537.36","WebKit","Chrome","91.0.4472.27","Linux","","221"," ","","A man is playing with a cat","2","Filler","",""
"","","","","","fixation","30425","html-keyboard-response","185","394799","0.0-6.0-2.37","44","2","2022-11-17 12:18:22","fd252370c17a9971d68c1d4354a03c2e","","Mozilla/5.0 (X11; Linux x86_64) AppleWebKit/537.36 (KHTML, like Gecko) Chrome/91.0.4472.27 Safari/537.36","WebKit","Chrome","91.0.4472.27","Linux","","null","null","","<p style=""font-size: 48px;"">+</p>","2","Filler","",""
"","","","","","picture","30425","image-keyboard-response","186","395487","0.0-6.0-3.37","44","2","2022-11-17 12:18:22","fd252370c17a9971d68c1d4354a03c2e","","Mozilla/5.0 (X11; Linux x86_64) AppleWebKit/537.36 (KHTML, like Gecko) Chrome/91.0.4472.27 Safari/537.36","WebKit","Chrome","91.0.4472.27","Linux","","684","n","","ceramicplate.jpg","2","Filler","true",""
"","","","","","fixation","30425","html-keyboard-response","187","396491","0.0-6.0-0.38","44","2","2022-11-17 12:18:22","fd252370c17a9971d68c1d4354a03c2e","","Mozilla/5.0 (X11; Linux x86_64) AppleWebKit/537.36 (KHTML, like Gecko) Chrome/91.0.4472.27 Safari/537.36","WebKit","Chrome","91.0.4472.27","Linux","","null","null","","<p style=""font-size: 48px;"">+</p>","2","Light_Matched","",""
"","","","","","sentence","30425","html-keyboard-response","188","397116","0.0-6.0-1.38","44","2","2022-11-17 12:18:22","fd252370c17a9971d68c1d4354a03c2e","","Mozilla/5.0 (X11; Linux x86_64) AppleWebKit/537.36 (KHTML, like Gecko) Chrome/91.0.4472.27 Safari/537.36","WebKit","Chrome","91.0.4472.27","Linux","","620"," ","","A balloon dropped and touched a vase","2","Light_Matched","",""
"","","","","","fixation","30425","html-keyboard-response","189","397620","0.0-6.0-2.38","44","2","2022-11-17 12:18:22","fd252370c17a9971d68c1d4354a03c2e","","Mozilla/5.0 (X11; Linux x86_64) AppleWebKit/537.36 (KHTML, like Gecko) Chrome/91.0.4472.27 Safari/537.36","WebKit","Chrome","91.0.4472.27","Linux","","null","null","","<p style=""font-size: 48px;"">+</p>","2","Light_Matched","",""
"","","","","","picture","30425","image-keyboard-response","190","399539","0.0-6.0-3.38","44","2","2022-11-17 12:18:22","fd252370c17a9971d68c1d4354a03c2e","","Mozilla/5.0 (X11; Linux x86_64) AppleWebKit/537.36 (KHTML, like Gecko) Chrome/91.0.4472.27 Safari/537.36","WebKit","Chrome","91.0.4472.27","Linux","","1915","s","","vaseS.jpg","2","Light_Matched","true",""
"","","","","","fixation","30425","html-keyboard-response","191","400542","0.0-6.0-0.39","44","2","2022-11-17 12:18:22","fd252370c17a9971d68c1d4354a03c2e","","Mozilla/5.0 (X11; Linux x86_64) AppleWebKit/537.36 (KHTML, like Gecko) Chrome/91.0.4472.27 Safari/537.36","WebKit","Chrome","91.0.4472.27","Linux","","null","null","","<p style=""font-size: 48px;"">+</p>","2","Filler","",""
"","","","","","sentence","30425","html-keyboard-response","192","401180","0.0-6.0-1.39","44","2","2022-11-17 12:18:22","fd252370c17a9971d68c1d4354a03c2e","","Mozilla/5.0 (X11; Linux x86_64) AppleWebKit/537.36 (KHTML, like Gecko) Chrome/91.0.4472.27 Safari/537.36","WebKit","Chrome","91.0.4472.27","Linux","","632"," ","","A kitten is playing in the sandbox","2","Filler","",""
"","","","","","fixation","30425","html-keyboard-response","193","401685","0.0-6.0-2.39","44","2","2022-11-17 12:18:22","fd252370c17a9971d68c1d4354a03c2e","","Mozilla/5.0 (X11; Linux x86_64) AppleWebKit/537.36 (KHTML, like Gecko) Chrome/91.0.4472.27 Safari/537.36","WebKit","Chrome","91.0.4472.27","Linux","","null","null","","<p style=""font-size: 48px;"">+</p>","2","Filler","",""
"","","","","","picture","30425","image-keyboard-response","194","402586","0.0-6.0-3.39","44","2","2022-11-17 12:18:22","fd252370c17a9971d68c1d4354a03c2e","","Mozilla/5.0 (X11; Linux x86_64) AppleWebKit/537.36 (KHTML, like Gecko) Chrome/91.0.4472.27 Safari/537.36","WebKit","Chrome","91.0.4472.27","Linux","","896","n","","dustbin.jpg","2","Filler","true",""
"","","","","","fixation","30425","html-keyboard-response","195","403591","0.0-6.0-0.40","44","2","2022-11-17 12:18:22","fd252370c17a9971d68c1d4354a03c2e","","Mozilla/5.0 (X11; Linux x86_64) AppleWebKit/537.36 (KHTML, like Gecko) Chrome/91.0.4472.27 Safari/537.36","WebKit","Chrome","91.0.4472.27","Linux","","null","null","","<p style=""font-size: 48px;"">+</p>","2","Light_Contradictory","",""
"","","","","","sentence","30425","html-keyboard-response","196","404274","0.0-6.0-1.40","44","2","2022-11-17 12:18:22","fd252370c17a9971d68c1d4354a03c2e","","Mozilla/5.0 (X11; Linux x86_64) AppleWebKit/537.36 (KHTML, like Gecko) Chrome/91.0.4472.27 Safari/537.36","WebKit","Chrome","91.0.4472.27","Linux","","679"," ","","A balloon dropped and smashed a porcelain figure","2","Light_Contradictory","",""
"","","","","","fixation","30425","html-keyboard-response","197","404779","0.0-6.0-2.40","44","2","2022-11-17 12:18:22","fd252370c17a9971d68c1d4354a03c2e","","Mozilla/5.0 (X11; Linux x86_64) AppleWebKit/537.36 (KHTML, like Gecko) Chrome/91.0.4472.27 Safari/537.36","WebKit","Chrome","91.0.4472.27","Linux","","null","null","","<p style=""font-size: 48px;"">+</p>","2","Light_Contradictory","",""
"","","","","","picture","30425","image-keyboard-response","198","405746","0.0-6.0-3.40","44","2","2022-11-17 12:18:22","fd252370c17a9971d68c1d4354a03c2e","","Mozilla/5.0 (X11; Linux x86_64) AppleWebKit/537.36 (KHTML, like Gecko) Chrome/91.0.4472.27 Safari/537.36","WebKit","Chrome","91.0.4472.27","Linux","","962","n","","figureS.jpg","2","Light_Contradictory","false",""
"","","","","","fixation","30425","html-keyboard-response","199","406751","0.0-6.0-0.41","44","2","2022-11-17 12:18:22","fd252370c17a9971d68c1d4354a03c2e","","Mozilla/5.0 (X11; Linux x86_64) AppleWebKit/537.36 (KHTML, like Gecko) Chrome/91.0.4472.27 Safari/537.36","WebKit","Chrome","91.0.4472.27","Linux","","null","null","","<p style=""font-size: 48px;"">+</p>","2","Heavy_Contradictory","",""
"","","","","","sentence","30425","html-keyboard-response","200","407300","0.0-6.0-1.41","44","2","2022-11-17 12:18:22","fd252370c17a9971d68c1d4354a03c2e","","Mozilla/5.0 (X11; Linux x86_64) AppleWebKit/537.36 (KHTML, like Gecko) Chrome/91.0.4472.27 Safari/537.36","WebKit","Chrome","91.0.4472.27","Linux","","545"," ","","A bowling ball dropped and touched a light bulb","2","Heavy_Contradictory","",""
"","","","","","fixation","30425","html-keyboard-response","201","407805","0.0-6.0-2.41","44","2","2022-11-17 12:18:22","fd252370c17a9971d68c1d4354a03c2e","","Mozilla/5.0 (X11; Linux x86_64) AppleWebKit/537.36 (KHTML, like Gecko) Chrome/91.0.4472.27 Safari/537.36","WebKit","Chrome","91.0.4472.27","Linux","","null","null","","<p style=""font-size: 48px;"">+</p>","2","Heavy_Contradictory","",""
"","","","","","picture","30425","image-keyboard-response","202","408885","0.0-6.0-3.41","44","2","2022-11-17 12:18:22","fd252370c17a9971d68c1d4354a03c2e","","Mozilla/5.0 (X11; Linux x86_64) AppleWebKit/537.36 (KHTML, like Gecko) Chrome/91.0.4472.27 Safari/537.36","WebKit","Chrome","91.0.4472.27","Linux","","1074","s","","lampS.jpg","2","Heavy_Contradictory","true",""
"","","","","","fixation","30425","html-keyboard-response","203","409890","0.0-6.0-0.42","44","2","2022-11-17 12:18:22","fd252370c17a9971d68c1d4354a03c2e","","Mozilla/5.0 (X11; Linux x86_64) AppleWebKit/537.36 (KHTML, like Gecko) Chrome/91.0.4472.27 Safari/537.36","WebKit","Chrome","91.0.4472.27","Linux","","null","null","","<p style=""font-size: 48px;"">+</p>","2","Filler","",""
"","","","","","sentence","30425","html-keyboard-response","204","410152","0.0-6.0-1.42","44","2","2022-11-17 12:18:22","fd252370c17a9971d68c1d4354a03c2e","","Mozilla/5.0 (X11; Linux x86_64) AppleWebKit/537.36 (KHTML, like Gecko) Chrome/91.0.4472.27 Safari/537.36","WebKit","Chrome","91.0.4472.27","Linux","","258"," ","","A cushion was placed on the magazine","2","Filler","",""
"","","","","","fixation","30425","html-keyboard-response","205","410656","0.0-6.0-2.42","44","2","2022-11-17 12:18:22","fd252370c17a9971d68c1d4354a03c2e","","Mozilla/5.0 (X11; Linux x86_64) AppleWebKit/537.36 (KHTML, like Gecko) Chrome/91.0.4472.27 Safari/537.36","WebKit","Chrome","91.0.4472.27","Linux","","null","null","","<p style=""font-size: 48px;"">+</p>","2","Filler","",""
"","","","","","picture","30425","image-keyboard-response","206","411835","0.0-6.0-3.42","44","2","2022-11-17 12:18:22","fd252370c17a9971d68c1d4354a03c2e","","Mozilla/5.0 (X11; Linux x86_64) AppleWebKit/537.36 (KHTML, like Gecko) Chrome/91.0.4472.27 Safari/537.36","WebKit","Chrome","91.0.4472.27","Linux","","1173","n","","box.jpg","2","Filler","true",""
"","","","","","fixation","30425","html-keyboard-response","207","412840","0.0-6.0-0.43","44","2","2022-11-17 12:18:22","fd252370c17a9971d68c1d4354a03c2e","","Mozilla/5.0 (X11; Linux x86_64) AppleWebKit/537.36 (KHTML, like Gecko) Chrome/91.0.4472.27 Safari/537.36","WebKit","Chrome","91.0.4472.27","Linux","","null","null","","<p style=""font-size: 48px;"">+</p>","2","Light_Matched","",""
"","","","","","sentence","30425","html-keyboard-response","208","413526","0.0-6.0-1.43","44","2","2022-11-17 12:18:22","fd252370c17a9971d68c1d4354a03c2e","","Mozilla/5.0 (X11; Linux x86_64) AppleWebKit/537.36 (KHTML, like Gecko) Chrome/91.0.4472.27 Safari/537.36","WebKit","Chrome","91.0.4472.27","Linux","","682"," ","","A balloon dropped and touched a tomato","2","Light_Matched","",""
"","","","","","fixation","30425","html-keyboard-response","209","414031","0.0-6.0-2.43","44","2","2022-11-17 12:18:22","fd252370c17a9971d68c1d4354a03c2e","","Mozilla/5.0 (X11; Linux x86_64) AppleWebKit/537.36 (KHTML, like Gecko) Chrome/91.0.4472.27 Safari/537.36","WebKit","Chrome","91.0.4472.27","Linux","","null","null","","<p style=""font-size: 48px;"">+</p>","2","Light_Matched","",""
"","","","","","picture","30425","image-keyboard-response","210","414757","0.0-6.0-3.43","44","2","2022-11-17 12:18:22","fd252370c17a9971d68c1d4354a03c2e","","Mozilla/5.0 (X11; Linux x86_64) AppleWebKit/537.36 (KHTML, like Gecko) Chrome/91.0.4472.27 Safari/537.36","WebKit","Chrome","91.0.4472.27","Linux","","721","s","","tomatoS.jpg","2","Light_Matched","true",""
"","","","","","fixation","30425","html-keyboard-response","211","415762","0.0-6.0-0.44","44","2","2022-11-17 12:18:22","fd252370c17a9971d68c1d4354a03c2e","","Mozilla/5.0 (X11; Linux x86_64) AppleWebKit/537.36 (KHTML, like Gecko) Chrome/91.0.4472.27 Safari/537.36","WebKit","Chrome","91.0.4472.27","Linux","","null","null","","<p style=""font-size: 48px;"">+</p>","2","Filler","",""
"","","","","","sentence","30425","html-keyboard-response","212","416209","0.0-6.0-1.44","44","2","2022-11-17 12:18:22","fd252370c17a9971d68c1d4354a03c2e","","Mozilla/5.0 (X11; Linux x86_64) AppleWebKit/537.36 (KHTML, like Gecko) Chrome/91.0.4472.27 Safari/537.36","WebKit","Chrome","91.0.4472.27","Linux","","442"," ","","A police officer is talking on the phone","2","Filler","",""
"","","","","","fixation","30425","html-keyboard-response","213","416714","0.0-6.0-2.44","44","2","2022-11-17 12:18:22","fd252370c17a9971d68c1d4354a03c2e","","Mozilla/5.0 (X11; Linux x86_64) AppleWebKit/537.36 (KHTML, like Gecko) Chrome/91.0.4472.27 Safari/537.36","WebKit","Chrome","91.0.4472.27","Linux","","null","null","","<p style=""font-size: 48px;"">+</p>","2","Filler","",""
"","","","","","picture","30425","image-keyboard-response","214","417354","0.0-6.0-3.44","44","2","2022-11-17 12:18:22","fd252370c17a9971d68c1d4354a03c2e","","Mozilla/5.0 (X11; Linux x86_64) AppleWebKit/537.36 (KHTML, like Gecko) Chrome/91.0.4472.27 Safari/537.36","WebKit","Chrome","91.0.4472.27","Linux","","635","n","","tissuebox.jpg","2","Filler","true",""
"","","","","","fixation","30425","html-keyboard-response","215","418357","0.0-6.0-0.45","44","2","2022-11-17 12:18:22","fd252370c17a9971d68c1d4354a03c2e","","Mozilla/5.0 (X11; Linux x86_64) AppleWebKit/537.36 (KHTML, like Gecko) Chrome/91.0.4472.27 Safari/537.36","WebKit","Chrome","91.0.4472.27","Linux","","null","null","","<p style=""font-size: 48px;"">+</p>","2","Filler","",""
"","","","","","sentence","30425","html-keyboard-response","216","418782","0.0-6.0-1.45","44","2","2022-11-17 12:18:22","fd252370c17a9971d68c1d4354a03c2e","","Mozilla/5.0 (X11; Linux x86_64) AppleWebKit/537.36 (KHTML, like Gecko) Chrome/91.0.4472.27 Safari/537.36","WebKit","Chrome","91.0.4472.27","Linux","","420"," ","","An astronaut is putting on a space suit","2","Filler","",""
"","","","","","fixation","30425","html-keyboard-response","217","419287","0.0-6.0-2.45","44","2","2022-11-17 12:18:22","fd252370c17a9971d68c1d4354a03c2e","","Mozilla/5.0 (X11; Linux x86_64) AppleWebKit/537.36 (KHTML, like Gecko) Chrome/91.0.4472.27 Safari/537.36","WebKit","Chrome","91.0.4472.27","Linux","","null","null","","<p style=""font-size: 48px;"">+</p>","2","Filler","",""
"","","","","","picture","30425","image-keyboard-response","218","420043","0.0-6.0-3.45","44","2","2022-11-17 12:18:22","fd252370c17a9971d68c1d4354a03c2e","","Mozilla/5.0 (X11; Linux x86_64) AppleWebKit/537.36 (KHTML, like Gecko) Chrome/91.0.4472.27 Safari/537.36","WebKit","Chrome","91.0.4472.27","Linux","","750","s","","spacesuit.jpg","2","Filler","true",""
"","","","","","fixation","30425","html-keyboard-response","219","421048","0.0-6.0-0.46","44","2","2022-11-17 12:18:22","fd252370c17a9971d68c1d4354a03c2e","","Mozilla/5.0 (X11; Linux x86_64) AppleWebKit/537.36 (KHTML, like Gecko) Chrome/91.0.4472.27 Safari/537.36","WebKit","Chrome","91.0.4472.27","Linux","","null","null","","<p style=""font-size: 48px;"">+</p>","2","Filler","",""
"","","","","","sentence","30425","html-keyboard-response","220","421406","0.0-6.0-1.46","44","2","2022-11-17 12:18:22","fd252370c17a9971d68c1d4354a03c2e","","Mozilla/5.0 (X11; Linux x86_64) AppleWebKit/537.36 (KHTML, like Gecko) Chrome/91.0.4472.27 Safari/537.36","WebKit","Chrome","91.0.4472.27","Linux","","353"," ","","A watch was placed on the laptop","2","Filler","",""
"","","","","","fixation","30425","html-keyboard-response","221","421911","0.0-6.0-2.46","44","2","2022-11-17 12:18:22","fd252370c17a9971d68c1d4354a03c2e","","Mozilla/5.0 (X11; Linux x86_64) AppleWebKit/537.36 (KHTML, like Gecko) Chrome/91.0.4472.27 Safari/537.36","WebKit","Chrome","91.0.4472.27","Linux","","null","null","","<p style=""font-size: 48px;"">+</p>","2","Filler","",""
"","","","","","picture","30425","image-keyboard-response","222","422554","0.0-6.0-3.46","44","2","2022-11-17 12:18:22","fd252370c17a9971d68c1d4354a03c2e","","Mozilla/5.0 (X11; Linux x86_64) AppleWebKit/537.36 (KHTML, like Gecko) Chrome/91.0.4472.27 Safari/537.36","WebKit","Chrome","91.0.4472.27","Linux","","638","n","","bow.jpg","2","Filler","true",""
"","","","","","fixation","30425","html-keyboard-response","223","423559","0.0-6.0-0.47","44","2","2022-11-17 12:18:22","fd252370c17a9971d68c1d4354a03c2e","","Mozilla/5.0 (X11; Linux x86_64) AppleWebKit/537.36 (KHTML, like Gecko) Chrome/91.0.4472.27 Safari/537.36","WebKit","Chrome","91.0.4472.27","Linux","","null","null","","<p style=""font-size: 48px;"">+</p>","2","Filler","",""
"","","","","","sentence","30425","html-keyboard-response","224","423603","0.0-6.0-1.47","44","2","2022-11-17 12:18:22","fd252370c17a9971d68c1d4354a03c2e","","Mozilla/5.0 (X11; Linux x86_64) AppleWebKit/537.36 (KHTML, like Gecko) Chrome/91.0.4472.27 Safari/537.36","WebKit","Chrome","91.0.4472.27","Linux","","40"," ","","A puppy is playing with a ball","2","Filler","",""
"","","","","","fixation","30425","html-keyboard-response","225","424108","0.0-6.0-2.47","44","2","2022-11-17 12:18:22","fd252370c17a9971d68c1d4354a03c2e","","Mozilla/5.0 (X11; Linux x86_64) AppleWebKit/537.36 (KHTML, like Gecko) Chrome/91.0.4472.27 Safari/537.36","WebKit","Chrome","91.0.4472.27","Linux","","null","null","","<p style=""font-size: 48px;"">+</p>","2","Filler","",""
"","","","","","picture","30425","image-keyboard-response","226","424706","0.0-6.0-3.47","44","2","2022-11-17 12:18:22","fd252370c17a9971d68c1d4354a03c2e","","Mozilla/5.0 (X11; Linux x86_64) AppleWebKit/537.36 (KHTML, like Gecko) Chrome/91.0.4472.27 Safari/537.36","WebKit","Chrome","91.0.4472.27","Linux","","593","n","","tennisball.jpg","2","Filler","false",""
"","","","","","fixation","30425","html-keyboard-response","227","425710","0.0-6.0-0.48","44","2","2022-11-17 12:18:22","fd252370c17a9971d68c1d4354a03c2e","","Mozilla/5.0 (X11; Linux x86_64) AppleWebKit/537.36 (KHTML, like Gecko) Chrome/91.0.4472.27 Safari/537.36","WebKit","Chrome","91.0.4472.27","Linux","","null","null","","<p style=""font-size: 48px;"">+</p>","2","Light_Contradictory","",""
"","","","","","sentence","30425","html-keyboard-response","228","426240","0.0-6.0-1.48","44","2","2022-11-17 12:18:22","fd252370c17a9971d68c1d4354a03c2e","","Mozilla/5.0 (X11; Linux x86_64) AppleWebKit/537.36 (KHTML, like Gecko) Chrome/91.0.4472.27 Safari/537.36","WebKit","Chrome","91.0.4472.27","Linux","","525"," ","","A balloon dropped and smashed a cracker","2","Light_Contradictory","",""
"","","","","","fixation","30425","html-keyboard-response","229","426745","0.0-6.0-2.48","44","2","2022-11-17 12:18:22","fd252370c17a9971d68c1d4354a03c2e","","Mozilla/5.0 (X11; Linux x86_64) AppleWebKit/537.36 (KHTML, like Gecko) Chrome/91.0.4472.27 Safari/537.36","WebKit","Chrome","91.0.4472.27","Linux","","null","null","","<p style=""font-size: 48px;"">+</p>","2","Light_Contradictory","",""
"","","","","","picture","30425","image-keyboard-response","230","427548","0.0-6.0-3.48","44","2","2022-11-17 12:18:22","fd252370c17a9971d68c1d4354a03c2e","","Mozilla/5.0 (X11; Linux x86_64) AppleWebKit/537.36 (KHTML, like Gecko) Chrome/91.0.4472.27 Safari/537.36","WebKit","Chrome","91.0.4472.27","Linux","","797","s","","crackerS.jpg","2","Light_Contradictory","true",""
"","","","","","fixation","30425","html-keyboard-response","231","428554","0.0-6.0-0.49","44","2","2022-11-17 12:18:22","fd252370c17a9971d68c1d4354a03c2e","","Mozilla/5.0 (X11; Linux x86_64) AppleWebKit/537.36 (KHTML, like Gecko) Chrome/91.0.4472.27 Safari/537.36","WebKit","Chrome","91.0.4472.27","Linux","","null","null","","<p style=""font-size: 48px;"">+</p>","2","Filler","",""
"","","","","","sentence","30425","html-keyboard-response","232","429064","0.0-6.0-1.49","44","2","2022-11-17 12:18:22","fd252370c17a9971d68c1d4354a03c2e","","Mozilla/5.0 (X11; Linux x86_64) AppleWebKit/537.36 (KHTML, like Gecko) Chrome/91.0.4472.27 Safari/537.36","WebKit","Chrome","91.0.4472.27","Linux","","506"," ","","A cabbage was placed on the table","2","Filler","",""
"","","","","","fixation","30425","html-keyboard-response","233","429569","0.0-6.0-2.49","44","2","2022-11-17 12:18:22","fd252370c17a9971d68c1d4354a03c2e","","Mozilla/5.0 (X11; Linux x86_64) AppleWebKit/537.36 (KHTML, like Gecko) Chrome/91.0.4472.27 Safari/537.36","WebKit","Chrome","91.0.4472.27","Linux","","null","null","","<p style=""font-size: 48px;"">+</p>","2","Filler","",""
"","","","","","picture","30425","image-keyboard-response","234","430356","0.0-6.0-3.49","44","2","2022-11-17 12:18:22","fd252370c17a9971d68c1d4354a03c2e","","Mozilla/5.0 (X11; Linux x86_64) AppleWebKit/537.36 (KHTML, like Gecko) Chrome/91.0.4472.27 Safari/537.36","WebKit","Chrome","91.0.4472.27","Linux","","782","n","","ladder.jpg","2","Filler","true",""
"","","","","","fixation","30425","html-keyboard-response","235","431361","0.0-6.0-0.50","44","2","2022-11-17 12:18:22","fd252370c17a9971d68c1d4354a03c2e","","Mozilla/5.0 (X11; Linux x86_64) AppleWebKit/537.36 (KHTML, like Gecko) Chrome/91.0.4472.27 Safari/537.36","WebKit","Chrome","91.0.4472.27","Linux","","null","null","","<p style=""font-size: 48px;"">+</p>","2","Heavy_Contradictory","",""
"","","","","","sentence","30425","html-keyboard-response","236","432138","0.0-6.0-1.50","44","2","2022-11-17 12:18:22","fd252370c17a9971d68c1d4354a03c2e","","Mozilla/5.0 (X11; Linux x86_64) AppleWebKit/537.36 (KHTML, like Gecko) Chrome/91.0.4472.27 Safari/537.36","WebKit","Chrome","91.0.4472.27","Linux","","773"," ","","A bowling ball dropped and touched a chocolate muffin","2","Heavy_Contradictory","",""
"","","","","","fixation","30425","html-keyboard-response","237","432644","0.0-6.0-2.50","44","2","2022-11-17 12:18:22","fd252370c17a9971d68c1d4354a03c2e","","Mozilla/5.0 (X11; Linux x86_64) AppleWebKit/537.36 (KHTML, like Gecko) Chrome/91.0.4472.27 Safari/537.36","WebKit","Chrome","91.0.4472.27","Linux","","null","null","","<p style=""font-size: 48px;"">+</p>","2","Heavy_Contradictory","",""
"","","","","","picture","30425","image-keyboard-response","238","433371","0.0-6.0-3.50","44","2","2022-11-17 12:18:22","fd252370c17a9971d68c1d4354a03c2e","","Mozilla/5.0 (X11; Linux x86_64) AppleWebKit/537.36 (KHTML, like Gecko) Chrome/91.0.4472.27 Safari/537.36","WebKit","Chrome","91.0.4472.27","Linux","","721","n","","muffinS.jpg","2","Heavy_Contradictory","false",""
"","","","","","fixation","30425","html-keyboard-response","239","434377","0.0-6.0-0.51","44","2","2022-11-17 12:18:22","fd252370c17a9971d68c1d4354a03c2e","","Mozilla/5.0 (X11; Linux x86_64) AppleWebKit/537.36 (KHTML, like Gecko) Chrome/91.0.4472.27 Safari/537.36","WebKit","Chrome","91.0.4472.27","Linux","","null","null","","<p style=""font-size: 48px;"">+</p>","2","Filler","",""
"","","","","","sentence","30425","html-keyboard-response","240","434852","0.0-6.0-1.51","44","2","2022-11-17 12:18:22","fd252370c17a9971d68c1d4354a03c2e","","Mozilla/5.0 (X11; Linux x86_64) AppleWebKit/537.36 (KHTML, like Gecko) Chrome/91.0.4472.27 Safari/537.36","WebKit","Chrome","91.0.4472.27","Linux","","469"," ","","A parrot is eating an apple","2","Filler","",""
"","","","","","fixation","30425","html-keyboard-response","241","435357","0.0-6.0-2.51","44","2","2022-11-17 12:18:22","fd252370c17a9971d68c1d4354a03c2e","","Mozilla/5.0 (X11; Linux x86_64) AppleWebKit/537.36 (KHTML, like Gecko) Chrome/91.0.4472.27 Safari/537.36","WebKit","Chrome","91.0.4472.27","Linux","","null","null","","<p style=""font-size: 48px;"">+</p>","2","Filler","",""
"","","","","","picture","30425","image-keyboard-response","242","436017","0.0-6.0-3.51","44","2","2022-11-17 12:18:22","fd252370c17a9971d68c1d4354a03c2e","","Mozilla/5.0 (X11; Linux x86_64) AppleWebKit/537.36 (KHTML, like Gecko) Chrome/91.0.4472.27 Safari/537.36","WebKit","Chrome","91.0.4472.27","Linux","","656","n","","shirt.jpg","2","Filler","true",""
"","","","","","fixation","30425","html-keyboard-response","243","437023","0.0-6.0-0.52","44","2","2022-11-17 12:18:22","fd252370c17a9971d68c1d4354a03c2e","","Mozilla/5.0 (X11; Linux x86_64) AppleWebKit/537.36 (KHTML, like Gecko) Chrome/91.0.4472.27 Safari/537.36","WebKit","Chrome","91.0.4472.27","Linux","","null","null","","<p style=""font-size: 48px;"">+</p>","2","Filler","",""
"","","","","","sentence","30425","html-keyboard-response","244","437617","0.0-6.0-1.52","44","2","2022-11-17 12:18:22","fd252370c17a9971d68c1d4354a03c2e","","Mozilla/5.0 (X11; Linux x86_64) AppleWebKit/537.36 (KHTML, like Gecko) Chrome/91.0.4472.27 Safari/537.36","WebKit","Chrome","91.0.4472.27","Linux","","590"," ","","A zebra is playing with a horse","2","Filler","",""
"","","","","","fixation","30425","html-keyboard-response","245","438122","0.0-6.0-2.52","44","2","2022-11-17 12:18:22","fd252370c17a9971d68c1d4354a03c2e","","Mozilla/5.0 (X11; Linux x86_64) AppleWebKit/537.36 (KHTML, like Gecko) Chrome/91.0.4472.27 Safari/537.36","WebKit","Chrome","91.0.4472.27","Linux","","null","null","","<p style=""font-size: 48px;"">+</p>","2","Filler","",""
"","","","","","picture","30425","image-keyboard-response","246","438720","0.0-6.0-3.52","44","2","2022-11-17 12:18:22","fd252370c17a9971d68c1d4354a03c2e","","Mozilla/5.0 (X11; Linux x86_64) AppleWebKit/537.36 (KHTML, like Gecko) Chrome/91.0.4472.27 Safari/537.36","WebKit","Chrome","91.0.4472.27","Linux","","592","n","","watch.jpg","2","Filler","true",""
"","","","","","fixation","30425","html-keyboard-response","247","439724","0.0-6.0-0.53","44","2","2022-11-17 12:18:22","fd252370c17a9971d68c1d4354a03c2e","","Mozilla/5.0 (X11; Linux x86_64) AppleWebKit/537.36 (KHTML, like Gecko) Chrome/91.0.4472.27 Safari/537.36","WebKit","Chrome","91.0.4472.27","Linux","","null","null","","<p style=""font-size: 48px;"">+</p>","2","Filler","",""
"","","","","","sentence","30425","html-keyboard-response","248","439896","0.0-6.0-1.53","44","2","2022-11-17 12:18:22","fd252370c17a9971d68c1d4354a03c2e","","Mozilla/5.0 (X11; Linux x86_64) AppleWebKit/537.36 (KHTML, like Gecko) Chrome/91.0.4472.27 Safari/537.36","WebKit","Chrome","91.0.4472.27","Linux","","166"," ","","A teenage girl is playing the piano","2","Filler","",""
"","","","","","fixation","30425","html-keyboard-response","249","440402","0.0-6.0-2.53","44","2","2022-11-17 12:18:22","fd252370c17a9971d68c1d4354a03c2e","","Mozilla/5.0 (X11; Linux x86_64) AppleWebKit/537.36 (KHTML, like Gecko) Chrome/91.0.4472.27 Safari/537.36","WebKit","Chrome","91.0.4472.27","Linux","","null","null","","<p style=""font-size: 48px;"">+</p>","2","Filler","",""
"","","","","","picture","30425","image-keyboard-response","250","441052","0.0-6.0-3.53","44","2","2022-11-17 12:18:22","fd252370c17a9971d68c1d4354a03c2e","","Mozilla/5.0 (X11; Linux x86_64) AppleWebKit/537.36 (KHTML, like Gecko) Chrome/91.0.4472.27 Safari/537.36","WebKit","Chrome","91.0.4472.27","Linux","","644","n","","pillow.jpg","2","Filler","true",""
"","","","","","fixation","30425","html-keyboard-response","251","442057","0.0-6.0-0.54","44","2","2022-11-17 12:18:22","fd252370c17a9971d68c1d4354a03c2e","","Mozilla/5.0 (X11; Linux x86_64) AppleWebKit/537.36 (KHTML, like Gecko) Chrome/91.0.4472.27 Safari/537.36","WebKit","Chrome","91.0.4472.27","Linux","","null","null","","<p style=""font-size: 48px;"">+</p>","2","Filler","",""
"","","","","","sentence","30425","html-keyboard-response","252","442596","0.0-6.0-1.54","44","2","2022-11-17 12:18:22","fd252370c17a9971d68c1d4354a03c2e","","Mozilla/5.0 (X11; Linux x86_64) AppleWebKit/537.36 (KHTML, like Gecko) Chrome/91.0.4472.27 Safari/537.36","WebKit","Chrome","91.0.4472.27","Linux","","535"," ","","A man is shaving his beard","2","Filler","",""
"","","","","","fixation","30425","html-keyboard-response","253","443102","0.0-6.0-2.54","44","2","2022-11-17 12:18:22","fd252370c17a9971d68c1d4354a03c2e","","Mozilla/5.0 (X11; Linux x86_64) AppleWebKit/537.36 (KHTML, like Gecko) Chrome/91.0.4472.27 Safari/537.36","WebKit","Chrome","91.0.4472.27","Linux","","null","null","","<p style=""font-size: 48px;"">+</p>","2","Filler","",""
"","","","","","picture","30425","image-keyboard-response","254","443792","0.0-6.0-3.54","44","2","2022-11-17 12:18:22","fd252370c17a9971d68c1d4354a03c2e","","Mozilla/5.0 (X11; Linux x86_64) AppleWebKit/537.36 (KHTML, like Gecko) Chrome/91.0.4472.27 Safari/537.36","WebKit","Chrome","91.0.4472.27","Linux","","685","n","","clock.jpg","2","Filler","true",""
"","","","","","fixation","30425","html-keyboard-response","255","444797","0.0-6.0-0.55","44","2","2022-11-17 12:18:22","fd252370c17a9971d68c1d4354a03c2e","","Mozilla/5.0 (X11; Linux x86_64) AppleWebKit/537.36 (KHTML, like Gecko) Chrome/91.0.4472.27 Safari/537.36","WebKit","Chrome","91.0.4472.27","Linux","","null","null","","<p style=""font-size: 48px;"">+</p>","2","Filler","",""
