"success","timeout","failed_images","failed_audio","failed_video","typeoftrial","subject","trial_type","trial_index","time_elapsed","internal_node_id","run_id","condition","recorded_at","source_code_version","ip","user_agent","device","browser","browser_version","platform","platform_version","rt","response","Experiment","stimulus","list_number","trialcondition","correct","question_order"
"true","false","[]","[]","[]","preload","11065","preload","0","10107","0.0-0.0","83","4","2022-11-17 12:26:06","fd252370c17a9971d68c1d4354a03c2e","","Mozilla/5.0 (X11; Linux x86_64; rv:106.0) Gecko/20100101 Firefox/106.0","","Firefox","106.0","Linux","","","","","","","","",""
"","","","","","ID","11065","survey-text","1","17460","0.0-1.0","83","4","2022-11-17 12:26:06","fd252370c17a9971d68c1d4354a03c2e","","Mozilla/5.0 (X11; Linux x86_64; rv:106.0) Gecko/20100101 Firefox/106.0","","Firefox","106.0","Linux","","7328","{""ID"":""5ae1c385b0d05100015d0978""}","","","","","",""
"","","","","","instructions","11065","html-button-response","2","47943","0.0-2.0","83","4","2022-11-17 12:26:06","fd252370c17a9971d68c1d4354a03c2e","","Mozilla/5.0 (X11; Linux x86_64; rv:106.0) Gecko/20100101 Firefox/106.0","","Firefox","106.0","Linux","","30476","0","","
                    <p style=""font-size:20px;""> Welcome to the experiment! </p>
                    <p style=""font-size:20px;""> In this experiment, you will be asked to make judgments about the content of different sentences.</p>
                    <p style=""font-size:20px;""> On each trial, you will read a sentence, and will be shown a picture immediately following the sentence. </p>
                    <p style=""font-size:20px;""> Your task is to decide whether the object displayed in the picture was mentioned in the sentence or not </p>
                    <p style=""font-size:20px;""> and respond as quickly as possible by pressing <strong>S</strong> for yes or <strong>N</strong> for no. </p>
                    <p style=""font-size:20px;""> You will now do a practice session with feedback and instructions. </p>
                    <p style=""font-size:20px;""> Click the button below to continue.</p>
                    ","","","",""
"","","","","","instructions","11065","html-button-response","3","83916","0.0-3.0","83","4","2022-11-17 12:26:06","fd252370c17a9971d68c1d4354a03c2e","","Mozilla/5.0 (X11; Linux x86_64; rv:106.0) Gecko/20100101 Firefox/106.0","","Firefox","106.0","Linux","","35962","0","","
                    <p style=""font-size:20px;""> You are about to begin the practice test. </p>
                    <p style=""font-size:20px;""> On each trial, a sentence will appear on the screen. You should press SPACEBAR when you have read and understood the sentence.</p>
                    <p style=""font-size:20px;""> After you press SPACEBAR, a picture will appear on the screen. </p>
                    <p style=""font-size:20px;""> You need to indicate whether or not the pictured object was mentioned in the sentence. </p>
                    <p style=""font-size:20px;""> If the object WAS mentioned in the preceding sentence, you should press <strong>S</strong> </p>
                    <p style=""font-size:20px;""> If the object was NOT mentioned in the preceding sentence, you should press <strong>N</strong>. </p>
                    <p style=""font-size:20px;""> Click the button below to continue to the practice session.</p>
                    ","","","",""
"","","","","","fixation","11065","html-keyboard-response","4","84924","0.0-4.0-0.0","83","4","2022-11-17 12:26:06","fd252370c17a9971d68c1d4354a03c2e","","Mozilla/5.0 (X11; Linux x86_64; rv:106.0) Gecko/20100101 Firefox/106.0","","Firefox","106.0","Linux","","null","null","","<p style=""font-size: 48px;"">+</p>","practice","practice_n","",""
"","","","","","sentence","11065","html-keyboard-response","5","89524","0.0-4.0-1.0","83","4","2022-11-17 12:26:06","fd252370c17a9971d68c1d4354a03c2e","","Mozilla/5.0 (X11; Linux x86_64; rv:106.0) Gecko/20100101 Firefox/106.0","","Firefox","106.0","Linux","","4594"," ","","A balloon dropped and smashed a cup","practice","practice_n","",""
"","","","","","fixation","11065","html-keyboard-response","6","90026","0.0-4.0-2.0","83","4","2022-11-17 12:26:06","fd252370c17a9971d68c1d4354a03c2e","","Mozilla/5.0 (X11; Linux x86_64; rv:106.0) Gecko/20100101 Firefox/106.0","","Firefox","106.0","Linux","","null","null","","<p style=""font-size: 48px;"">+</p>","practice","practice_n","",""
"","","","","","picture","11065","image-keyboard-response","7","92210","0.0-4.0-3.0","83","4","2022-11-17 12:26:06","fd252370c17a9971d68c1d4354a03c2e","","Mozilla/5.0 (X11; Linux x86_64; rv:106.0) Gecko/20100101 Firefox/106.0","","Firefox","106.0","Linux","","2164","n","","bananaB.jpg","practice","practice_n","true",""
"","","","","","","","html-keyboard-response","8","94214","0.0-4.0-4.0","83","4","2022-11-17 12:26:06","fd252370c17a9971d68c1d4354a03c2e","","Mozilla/5.0 (X11; Linux x86_64; rv:106.0) Gecko/20100101 Firefox/106.0","","Firefox","106.0","Linux","","null","null","","CORRECT!","","","",""
"","","","","","fixation","11065","html-keyboard-response","9","95220","0.0-4.0-0.1","83","4","2022-11-17 12:26:06","fd252370c17a9971d68c1d4354a03c2e","","Mozilla/5.0 (X11; Linux x86_64; rv:106.0) Gecko/20100101 Firefox/106.0","","Firefox","106.0","Linux","","null","null","","<p style=""font-size: 48px;"">+</p>","practice","practice_n","",""
"","","","","","sentence","11065","html-keyboard-response","10","98228","0.0-4.0-1.1","83","4","2022-11-17 12:26:06","fd252370c17a9971d68c1d4354a03c2e","","Mozilla/5.0 (X11; Linux x86_64; rv:106.0) Gecko/20100101 Firefox/106.0","","Firefox","106.0","Linux","","3004"," ","","A bowling ball dropped and touched a bottle","practice","practice_n","",""
"","","","","","fixation","11065","html-keyboard-response","11","98735","0.0-4.0-2.1","83","4","2022-11-17 12:26:06","fd252370c17a9971d68c1d4354a03c2e","","Mozilla/5.0 (X11; Linux x86_64; rv:106.0) Gecko/20100101 Firefox/106.0","","Firefox","106.0","Linux","","null","null","","<p style=""font-size: 48px;"">+</p>","practice","practice_n","",""
"","","","","","picture","11065","image-keyboard-response","12","100575","0.0-4.0-3.1","83","4","2022-11-17 12:26:06","fd252370c17a9971d68c1d4354a03c2e","","Mozilla/5.0 (X11; Linux x86_64; rv:106.0) Gecko/20100101 Firefox/106.0","","Firefox","106.0","Linux","","1826","n","","bookB.jpg","practice","practice_n","true",""
"","","","","","","","html-keyboard-response","13","102579","0.0-4.0-4.1","83","4","2022-11-17 12:26:06","fd252370c17a9971d68c1d4354a03c2e","","Mozilla/5.0 (X11; Linux x86_64; rv:106.0) Gecko/20100101 Firefox/106.0","","Firefox","106.0","Linux","","null","null","","CORRECT!","","","",""
"","","","","","fixation","11065","html-keyboard-response","14","103583","0.0-4.0-0.2","83","4","2022-11-17 12:26:06","fd252370c17a9971d68c1d4354a03c2e","","Mozilla/5.0 (X11; Linux x86_64; rv:106.0) Gecko/20100101 Firefox/106.0","","Firefox","106.0","Linux","","null","null","","<p style=""font-size: 48px;"">+</p>","practice","practice_s","",""
"","","","","","sentence","11065","html-keyboard-response","15","106980","0.0-4.0-1.2","83","4","2022-11-17 12:26:06","fd252370c17a9971d68c1d4354a03c2e","","Mozilla/5.0 (X11; Linux x86_64; rv:106.0) Gecko/20100101 Firefox/106.0","","Firefox","106.0","Linux","","3392"," ","","A bowling ball dropped and smashed a teacup","practice","practice_s","",""
"","","","","","fixation","11065","html-keyboard-response","16","107484","0.0-4.0-2.2","83","4","2022-11-17 12:26:06","fd252370c17a9971d68c1d4354a03c2e","","Mozilla/5.0 (X11; Linux x86_64; rv:106.0) Gecko/20100101 Firefox/106.0","","Firefox","106.0","Linux","","null","null","","<p style=""font-size: 48px;"">+</p>","practice","practice_s","",""
"","","","","","picture","11065","image-keyboard-response","17","109316","0.0-4.0-3.2","83","4","2022-11-17 12:26:06","fd252370c17a9971d68c1d4354a03c2e","","Mozilla/5.0 (X11; Linux x86_64; rv:106.0) Gecko/20100101 Firefox/106.0","","Firefox","106.0","Linux","","1818","s","","cupB.jpg","practice","practice_s","true",""
"","","","","","","","html-keyboard-response","18","111320","0.0-4.0-4.2","83","4","2022-11-17 12:26:06","fd252370c17a9971d68c1d4354a03c2e","","Mozilla/5.0 (X11; Linux x86_64; rv:106.0) Gecko/20100101 Firefox/106.0","","Firefox","106.0","Linux","","null","null","","CORRECT!","","","",""
"","","","","","fixation","11065","html-keyboard-response","19","112326","0.0-4.0-0.3","83","4","2022-11-17 12:26:06","fd252370c17a9971d68c1d4354a03c2e","","Mozilla/5.0 (X11; Linux x86_64; rv:106.0) Gecko/20100101 Firefox/106.0","","Firefox","106.0","Linux","","null","null","","<p style=""font-size: 48px;"">+</p>","practice","practice_n","",""
"","","","","","sentence","11065","html-keyboard-response","20","115781","0.0-4.0-1.3","83","4","2022-11-17 12:26:06","fd252370c17a9971d68c1d4354a03c2e","","Mozilla/5.0 (X11; Linux x86_64; rv:106.0) Gecko/20100101 Firefox/106.0","","Firefox","106.0","Linux","","3451"," ","","A fork was placed on a stool","practice","practice_n","",""
"","","","","","fixation","11065","html-keyboard-response","21","116285","0.0-4.0-2.3","83","4","2022-11-17 12:26:06","fd252370c17a9971d68c1d4354a03c2e","","Mozilla/5.0 (X11; Linux x86_64; rv:106.0) Gecko/20100101 Firefox/106.0","","Firefox","106.0","Linux","","null","null","","<p style=""font-size: 48px;"">+</p>","practice","practice_n","",""
"","","","","","picture","11065","image-keyboard-response","22","119086","0.0-4.0-3.3","83","4","2022-11-17 12:26:06","fd252370c17a9971d68c1d4354a03c2e","","Mozilla/5.0 (X11; Linux x86_64; rv:106.0) Gecko/20100101 Firefox/106.0","","Firefox","106.0","Linux","","2786","n","","tableB.jpg","practice","practice_n","true",""
"","","","","","","","html-keyboard-response","23","121090","0.0-4.0-4.3","83","4","2022-11-17 12:26:06","fd252370c17a9971d68c1d4354a03c2e","","Mozilla/5.0 (X11; Linux x86_64; rv:106.0) Gecko/20100101 Firefox/106.0","","Firefox","106.0","Linux","","null","null","","CORRECT!","","","",""
"","","","","","fixation","11065","html-keyboard-response","24","122094","0.0-4.0-0.4","83","4","2022-11-17 12:26:06","fd252370c17a9971d68c1d4354a03c2e","","Mozilla/5.0 (X11; Linux x86_64; rv:106.0) Gecko/20100101 Firefox/106.0","","Firefox","106.0","Linux","","null","null","","<p style=""font-size: 48px;"">+</p>","practice","practice_s","",""
"","","","","","sentence","11065","html-keyboard-response","25","125740","0.0-4.0-1.4","83","4","2022-11-17 12:26:06","fd252370c17a9971d68c1d4354a03c2e","","Mozilla/5.0 (X11; Linux x86_64; rv:106.0) Gecko/20100101 Firefox/106.0","","Firefox","106.0","Linux","","3642"," ","","A knife was placed on a hammer","practice","practice_s","",""
"","","","","","fixation","11065","html-keyboard-response","26","126243","0.0-4.0-2.4","83","4","2022-11-17 12:26:06","fd252370c17a9971d68c1d4354a03c2e","","Mozilla/5.0 (X11; Linux x86_64; rv:106.0) Gecko/20100101 Firefox/106.0","","Firefox","106.0","Linux","","null","null","","<p style=""font-size: 48px;"">+</p>","practice","practice_s","",""
"","","","","","picture","11065","image-keyboard-response","27","130714","0.0-4.0-3.4","83","4","2022-11-17 12:26:06","fd252370c17a9971d68c1d4354a03c2e","","Mozilla/5.0 (X11; Linux x86_64; rv:106.0) Gecko/20100101 Firefox/106.0","","Firefox","106.0","Linux","","4455","s","","hammerB.jpg","practice","practice_s","true",""
"","","","","","","","html-keyboard-response","28","132720","0.0-4.0-4.4","83","4","2022-11-17 12:26:06","fd252370c17a9971d68c1d4354a03c2e","","Mozilla/5.0 (X11; Linux x86_64; rv:106.0) Gecko/20100101 Firefox/106.0","","Firefox","106.0","Linux","","null","null","","CORRECT!","","","",""
"","","","","","fixation","11065","html-keyboard-response","29","133725","0.0-4.0-0.5","83","4","2022-11-17 12:26:06","fd252370c17a9971d68c1d4354a03c2e","","Mozilla/5.0 (X11; Linux x86_64; rv:106.0) Gecko/20100101 Firefox/106.0","","Firefox","106.0","Linux","","null","null","","<p style=""font-size: 48px;"">+</p>","practice","practice_s","",""
"","","","","","sentence","11065","html-keyboard-response","30","136832","0.0-4.0-1.5","83","4","2022-11-17 12:26:06","fd252370c17a9971d68c1d4354a03c2e","","Mozilla/5.0 (X11; Linux x86_64; rv:106.0) Gecko/20100101 Firefox/106.0","","Firefox","106.0","Linux","","3102"," ","","A balloon dropped and touched a cigarette","practice","practice_s","",""
"","","","","","fixation","11065","html-keyboard-response","31","137338","0.0-4.0-2.5","83","4","2022-11-17 12:26:06","fd252370c17a9971d68c1d4354a03c2e","","Mozilla/5.0 (X11; Linux x86_64; rv:106.0) Gecko/20100101 Firefox/106.0","","Firefox","106.0","Linux","","null","null","","<p style=""font-size: 48px;"">+</p>","practice","practice_s","",""
"","","","","","picture","11065","image-keyboard-response","32","139059","0.0-4.0-3.5","83","4","2022-11-17 12:26:06","fd252370c17a9971d68c1d4354a03c2e","","Mozilla/5.0 (X11; Linux x86_64; rv:106.0) Gecko/20100101 Firefox/106.0","","Firefox","106.0","Linux","","1707","s","","cigaretteB.jpg","practice","practice_s","true",""
"","","","","","","","html-keyboard-response","33","141066","0.0-4.0-4.5","83","4","2022-11-17 12:26:06","fd252370c17a9971d68c1d4354a03c2e","","Mozilla/5.0 (X11; Linux x86_64; rv:106.0) Gecko/20100101 Firefox/106.0","","Firefox","106.0","Linux","","null","null","","CORRECT!","","","",""
"","","","","","movetoexp","11065","html-button-response","34","148435","0.0-5.0","83","4","2022-11-17 12:26:06","fd252370c17a9971d68c1d4354a03c2e","","Mozilla/5.0 (X11; Linux x86_64; rv:106.0) Gecko/20100101 Firefox/106.0","","Firefox","106.0","Linux","","7363","0","","<p style=""font-size:20px;"">You have now completed the practice session! </p>
                    <p style=""font-size:20px;"">You will now move on to the main experiment, where you will not be provided any feedback. </p>
                    <p style=""font-size:20px;"">Remember, you should press <strong>S</strong> if the pictured object was mentioned in the preceding sentence<br> and <strong>N</strong> if the pictured object was not mentioned in the preceding sentence.</p>
                    <p style=""font-size:20px;"">Please click the button below to continue to the main experiment. </p>","","","",""
"","","","","","fixation","11065","html-keyboard-response","35","149442","0.0-6.0-0.0","83","4","2022-11-17 12:26:06","fd252370c17a9971d68c1d4354a03c2e","","Mozilla/5.0 (X11; Linux x86_64; rv:106.0) Gecko/20100101 Firefox/106.0","","Firefox","106.0","Linux","","null","null","","<p style=""font-size: 48px;"">+</p>","4","Filler","",""
"","","","","","sentence","11065","html-keyboard-response","36","154638","0.0-6.0-1.0","83","4","2022-11-17 12:26:06","fd252370c17a9971d68c1d4354a03c2e","","Mozilla/5.0 (X11; Linux x86_64; rv:106.0) Gecko/20100101 Firefox/106.0","","Firefox","106.0","Linux","","5190"," ","","A pencil was placed on the shoe","4","Filler","",""
"","","","","","fixation","11065","html-keyboard-response","37","155145","0.0-6.0-2.0","83","4","2022-11-17 12:26:06","fd252370c17a9971d68c1d4354a03c2e","","Mozilla/5.0 (X11; Linux x86_64; rv:106.0) Gecko/20100101 Firefox/106.0","","Firefox","106.0","Linux","","null","null","","<p style=""font-size: 48px;"">+</p>","4","Filler","",""
"","","","","","picture","11065","image-keyboard-response","38","157682","0.0-6.0-3.0","83","4","2022-11-17 12:26:06","fd252370c17a9971d68c1d4354a03c2e","","Mozilla/5.0 (X11; Linux x86_64; rv:106.0) Gecko/20100101 Firefox/106.0","","Firefox","106.0","Linux","","2520","n","","perfume.jpg","4","Filler","true",""
"","","","","","fixation","11065","html-keyboard-response","39","158689","0.0-6.0-0.1","83","4","2022-11-17 12:26:06","fd252370c17a9971d68c1d4354a03c2e","","Mozilla/5.0 (X11; Linux x86_64; rv:106.0) Gecko/20100101 Firefox/106.0","","Firefox","106.0","Linux","","null","null","","<p style=""font-size: 48px;"">+</p>","4","Heavy-Contradictory","",""
"","","","","","sentence","11065","html-keyboard-response","40","161962","0.0-6.0-1.1","83","4","2022-11-17 12:26:06","fd252370c17a9971d68c1d4354a03c2e","","Mozilla/5.0 (X11; Linux x86_64; rv:106.0) Gecko/20100101 Firefox/106.0","","Firefox","106.0","Linux","","3270"," ","","A bowling ball dropped and touched a cracker","4","Heavy-Contradictory","",""
"","","","","","fixation","11065","html-keyboard-response","41","162470","0.0-6.0-2.1","83","4","2022-11-17 12:26:06","fd252370c17a9971d68c1d4354a03c2e","","Mozilla/5.0 (X11; Linux x86_64; rv:106.0) Gecko/20100101 Firefox/106.0","","Firefox","106.0","Linux","","null","null","","<p style=""font-size: 48px;"">+</p>","4","Heavy-Contradictory","",""
"","","","","","picture","11065","image-keyboard-response","42","164104","0.0-6.0-3.1","83","4","2022-11-17 12:26:06","fd252370c17a9971d68c1d4354a03c2e","","Mozilla/5.0 (X11; Linux x86_64; rv:106.0) Gecko/20100101 Firefox/106.0","","Firefox","106.0","Linux","","1613","s","","crackerS.jpg","4","Heavy-Contradictory","true",""
"","","","","","fixation","11065","html-keyboard-response","43","165111","0.0-6.0-0.2","83","4","2022-11-17 12:26:06","fd252370c17a9971d68c1d4354a03c2e","","Mozilla/5.0 (X11; Linux x86_64; rv:106.0) Gecko/20100101 Firefox/106.0","","Firefox","106.0","Linux","","null","null","","<p style=""font-size: 48px;"">+</p>","4","Filler","",""
"","","","","","sentence","11065","html-keyboard-response","44","168665","0.0-6.0-1.2","83","4","2022-11-17 12:26:06","fd252370c17a9971d68c1d4354a03c2e","","Mozilla/5.0 (X11; Linux x86_64; rv:106.0) Gecko/20100101 Firefox/106.0","","Firefox","106.0","Linux","","3550"," ","","A woman is paying with a debit card","4","Filler","",""
"","","","","","fixation","11065","html-keyboard-response","45","169171","0.0-6.0-2.2","83","4","2022-11-17 12:26:06","fd252370c17a9971d68c1d4354a03c2e","","Mozilla/5.0 (X11; Linux x86_64; rv:106.0) Gecko/20100101 Firefox/106.0","","Firefox","106.0","Linux","","null","null","","<p style=""font-size: 48px;"">+</p>","4","Filler","",""
"","","","","","picture","11065","image-keyboard-response","46","170721","0.0-6.0-3.2","83","4","2022-11-17 12:26:06","fd252370c17a9971d68c1d4354a03c2e","","Mozilla/5.0 (X11; Linux x86_64; rv:106.0) Gecko/20100101 Firefox/106.0","","Firefox","106.0","Linux","","1534","n","","papercup.jpg","4","Filler","true",""
"","","","","","fixation","11065","html-keyboard-response","47","171728","0.0-6.0-0.3","83","4","2022-11-17 12:26:06","fd252370c17a9971d68c1d4354a03c2e","","Mozilla/5.0 (X11; Linux x86_64; rv:106.0) Gecko/20100101 Firefox/106.0","","Firefox","106.0","Linux","","null","null","","<p style=""font-size: 48px;"">+</p>","4","Light-Matched","",""
"","","","","","sentence","11065","html-keyboard-response","48","175235","0.0-6.0-1.3","83","4","2022-11-17 12:26:06","fd252370c17a9971d68c1d4354a03c2e","","Mozilla/5.0 (X11; Linux x86_64; rv:106.0) Gecko/20100101 Firefox/106.0","","Firefox","106.0","Linux","","3502"," ","","A balloon dropped and touched an iPAD","4","Light-Matched","",""
"","","","","","fixation","11065","html-keyboard-response","49","175742","0.0-6.0-2.3","83","4","2022-11-17 12:26:06","fd252370c17a9971d68c1d4354a03c2e","","Mozilla/5.0 (X11; Linux x86_64; rv:106.0) Gecko/20100101 Firefox/106.0","","Firefox","106.0","Linux","","null","null","","<p style=""font-size: 48px;"">+</p>","4","Light-Matched","",""
"","","","","","picture","11065","image-keyboard-response","50","178003","0.0-6.0-3.3","83","4","2022-11-17 12:26:06","fd252370c17a9971d68c1d4354a03c2e","","Mozilla/5.0 (X11; Linux x86_64; rv:106.0) Gecko/20100101 Firefox/106.0","","Firefox","106.0","Linux","","2242","s","","iPadS.jpg","4","Light-Matched","true",""
"","","","","","fixation","11065","html-keyboard-response","51","179011","0.0-6.0-0.4","83","4","2022-11-17 12:26:06","fd252370c17a9971d68c1d4354a03c2e","","Mozilla/5.0 (X11; Linux x86_64; rv:106.0) Gecko/20100101 Firefox/106.0","","Firefox","106.0","Linux","","null","null","","<p style=""font-size: 48px;"">+</p>","4","Light-Contradictory","",""
"","","","","","sentence","11065","html-keyboard-response","52","181513","0.0-6.0-1.4","83","4","2022-11-17 12:26:06","fd252370c17a9971d68c1d4354a03c2e","","Mozilla/5.0 (X11; Linux x86_64; rv:106.0) Gecko/20100101 Firefox/106.0","","Firefox","106.0","Linux","","2497"," ","","A balloon dropped and smashed a light bulb","4","Light-Contradictory","",""
"","","","","","fixation","11065","html-keyboard-response","53","182020","0.0-6.0-2.4","83","4","2022-11-17 12:26:06","fd252370c17a9971d68c1d4354a03c2e","","Mozilla/5.0 (X11; Linux x86_64; rv:106.0) Gecko/20100101 Firefox/106.0","","Firefox","106.0","Linux","","null","null","","<p style=""font-size: 48px;"">+</p>","4","Light-Contradictory","",""
"","","","","","picture","11065","image-keyboard-response","54","183072","0.0-6.0-3.4","83","4","2022-11-17 12:26:06","fd252370c17a9971d68c1d4354a03c2e","","Mozilla/5.0 (X11; Linux x86_64; rv:106.0) Gecko/20100101 Firefox/106.0","","Firefox","106.0","Linux","","1033","s","","lampS.jpg","4","Light-Contradictory","true",""
"","","","","","fixation","11065","html-keyboard-response","55","184080","0.0-6.0-0.5","83","4","2022-11-17 12:26:06","fd252370c17a9971d68c1d4354a03c2e","","Mozilla/5.0 (X11; Linux x86_64; rv:106.0) Gecko/20100101 Firefox/106.0","","Firefox","106.0","Linux","","null","null","","<p style=""font-size: 48px;"">+</p>","4","Light-Matched","",""
"","","","","","sentence","11065","html-keyboard-response","56","186408","0.0-6.0-1.5","83","4","2022-11-17 12:26:06","fd252370c17a9971d68c1d4354a03c2e","","Mozilla/5.0 (X11; Linux x86_64; rv:106.0) Gecko/20100101 Firefox/106.0","","Firefox","106.0","Linux","","2319"," ","","A balloon dropped and touched a blackberry","4","Light-Matched","",""
"","","","","","fixation","11065","html-keyboard-response","57","186917","0.0-6.0-2.5","83","4","2022-11-17 12:26:06","fd252370c17a9971d68c1d4354a03c2e","","Mozilla/5.0 (X11; Linux x86_64; rv:106.0) Gecko/20100101 Firefox/106.0","","Firefox","106.0","Linux","","null","null","","<p style=""font-size: 48px;"">+</p>","4","Light-Matched","",""
"","","","","","picture","11065","image-keyboard-response","58","188003","0.0-6.0-3.5","83","4","2022-11-17 12:26:06","fd252370c17a9971d68c1d4354a03c2e","","Mozilla/5.0 (X11; Linux x86_64; rv:106.0) Gecko/20100101 Firefox/106.0","","Firefox","106.0","Linux","","1072","s","","blackberryS.jpg","4","Light-Matched","true",""
"","","","","","fixation","11065","html-keyboard-response","59","189011","0.0-6.0-0.6","83","4","2022-11-17 12:26:06","fd252370c17a9971d68c1d4354a03c2e","","Mozilla/5.0 (X11; Linux x86_64; rv:106.0) Gecko/20100101 Firefox/106.0","","Firefox","106.0","Linux","","null","null","","<p style=""font-size: 48px;"">+</p>","4","Filler","",""
"","","","","","sentence","11065","html-keyboard-response","60","191499","0.0-6.0-1.6","83","4","2022-11-17 12:26:06","fd252370c17a9971d68c1d4354a03c2e","","Mozilla/5.0 (X11; Linux x86_64; rv:106.0) Gecko/20100101 Firefox/106.0","","Firefox","106.0","Linux","","2478"," ","","An astronaut is putting on a space suit","4","Filler","",""
"","","","","","fixation","11065","html-keyboard-response","61","192007","0.0-6.0-2.6","83","4","2022-11-17 12:26:06","fd252370c17a9971d68c1d4354a03c2e","","Mozilla/5.0 (X11; Linux x86_64; rv:106.0) Gecko/20100101 Firefox/106.0","","Firefox","106.0","Linux","","null","null","","<p style=""font-size: 48px;"">+</p>","4","Filler","",""
"","","","","","picture","11065","image-keyboard-response","62","193326","0.0-6.0-3.6","83","4","2022-11-17 12:26:06","fd252370c17a9971d68c1d4354a03c2e","","Mozilla/5.0 (X11; Linux x86_64; rv:106.0) Gecko/20100101 Firefox/106.0","","Firefox","106.0","Linux","","1308","s","","spacesuit.jpg","4","Filler","true",""
"","","","","","fixation","11065","html-keyboard-response","63","194337","0.0-6.0-0.7","83","4","2022-11-17 12:26:06","fd252370c17a9971d68c1d4354a03c2e","","Mozilla/5.0 (X11; Linux x86_64; rv:106.0) Gecko/20100101 Firefox/106.0","","Firefox","106.0","Linux","","null","null","","<p style=""font-size: 48px;"">+</p>","4","Filler","",""
"","","","","","sentence","11065","html-keyboard-response","64","196671","0.0-6.0-1.7","83","4","2022-11-17 12:26:06","fd252370c17a9971d68c1d4354a03c2e","","Mozilla/5.0 (X11; Linux x86_64; rv:106.0) Gecko/20100101 Firefox/106.0","","Firefox","106.0","Linux","","2326"," ","","A police officer is talking on the phone","4","Filler","",""
"","","","","","fixation","11065","html-keyboard-response","65","197179","0.0-6.0-2.7","83","4","2022-11-17 12:26:06","fd252370c17a9971d68c1d4354a03c2e","","Mozilla/5.0 (X11; Linux x86_64; rv:106.0) Gecko/20100101 Firefox/106.0","","Firefox","106.0","Linux","","null","null","","<p style=""font-size: 48px;"">+</p>","4","Filler","",""
"","","","","","picture","11065","image-keyboard-response","66","198578","0.0-6.0-3.7","83","4","2022-11-17 12:26:06","fd252370c17a9971d68c1d4354a03c2e","","Mozilla/5.0 (X11; Linux x86_64; rv:106.0) Gecko/20100101 Firefox/106.0","","Firefox","106.0","Linux","","1391","n","","tissuebox.jpg","4","Filler","true",""
"","","","","","fixation","11065","html-keyboard-response","67","199587","0.0-6.0-0.8","83","4","2022-11-17 12:26:06","fd252370c17a9971d68c1d4354a03c2e","","Mozilla/5.0 (X11; Linux x86_64; rv:106.0) Gecko/20100101 Firefox/106.0","","Firefox","106.0","Linux","","null","null","","<p style=""font-size: 48px;"">+</p>","4","Light-Contradictory","",""
"","","","","","sentence","11065","html-keyboard-response","68","201524","0.0-6.0-1.8","83","4","2022-11-17 12:26:06","fd252370c17a9971d68c1d4354a03c2e","","Mozilla/5.0 (X11; Linux x86_64; rv:106.0) Gecko/20100101 Firefox/106.0","","Firefox","106.0","Linux","","1928"," ","","A balloon dropped and smashed a mirror","4","Light-Contradictory","",""
"","","","","","fixation","11065","html-keyboard-response","69","202033","0.0-6.0-2.8","83","4","2022-11-17 12:26:06","fd252370c17a9971d68c1d4354a03c2e","","Mozilla/5.0 (X11; Linux x86_64; rv:106.0) Gecko/20100101 Firefox/106.0","","Firefox","106.0","Linux","","null","null","","<p style=""font-size: 48px;"">+</p>","4","Light-Contradictory","",""
"","","","","","picture","11065","image-keyboard-response","70","203452","0.0-6.0-3.8","83","4","2022-11-17 12:26:06","fd252370c17a9971d68c1d4354a03c2e","","Mozilla/5.0 (X11; Linux x86_64; rv:106.0) Gecko/20100101 Firefox/106.0","","Firefox","106.0","Linux","","1401","s","","mirrorS.jpg","4","Light-Contradictory","true",""
"","","","","","fixation","11065","html-keyboard-response","71","204461","0.0-6.0-0.9","83","4","2022-11-17 12:26:06","fd252370c17a9971d68c1d4354a03c2e","","Mozilla/5.0 (X11; Linux x86_64; rv:106.0) Gecko/20100101 Firefox/106.0","","Firefox","106.0","Linux","","null","null","","<p style=""font-size: 48px;"">+</p>","4","Heavy-Matched","",""
"","","","","","sentence","11065","html-keyboard-response","72","206489","0.0-6.0-1.9","83","4","2022-11-17 12:26:06","fd252370c17a9971d68c1d4354a03c2e","","Mozilla/5.0 (X11; Linux x86_64; rv:106.0) Gecko/20100101 Firefox/106.0","","Firefox","106.0","Linux","","2019"," ","","A bowling ball  dropped and smashed a tomato","4","Heavy-Matched","",""
"","","","","","fixation","11065","html-keyboard-response","73","206999","0.0-6.0-2.9","83","4","2022-11-17 12:26:06","fd252370c17a9971d68c1d4354a03c2e","","Mozilla/5.0 (X11; Linux x86_64; rv:106.0) Gecko/20100101 Firefox/106.0","","Firefox","106.0","Linux","","null","null","","<p style=""font-size: 48px;"">+</p>","4","Heavy-Matched","",""
"","","","","","picture","11065","image-keyboard-response","74","207892","0.0-6.0-3.9","83","4","2022-11-17 12:26:06","fd252370c17a9971d68c1d4354a03c2e","","Mozilla/5.0 (X11; Linux x86_64; rv:106.0) Gecko/20100101 Firefox/106.0","","Firefox","106.0","Linux","","874","s","","tomatoS.jpg","4","Heavy-Matched","true",""
"","","","","","fixation","11065","html-keyboard-response","75","208903","0.0-6.0-0.10","83","4","2022-11-17 12:26:06","fd252370c17a9971d68c1d4354a03c2e","","Mozilla/5.0 (X11; Linux x86_64; rv:106.0) Gecko/20100101 Firefox/106.0","","Firefox","106.0","Linux","","null","null","","<p style=""font-size: 48px;"">+</p>","4","Filler","",""
"","","","","","sentence","11065","html-keyboard-response","76","210885","0.0-6.0-1.10","83","4","2022-11-17 12:26:06","fd252370c17a9971d68c1d4354a03c2e","","Mozilla/5.0 (X11; Linux x86_64; rv:106.0) Gecko/20100101 Firefox/106.0","","Firefox","106.0","Linux","","1973"," ","","A cushion was placed on the magazine","4","Filler","",""
"","","","","","fixation","11065","html-keyboard-response","77","211394","0.0-6.0-2.10","83","4","2022-11-17 12:26:06","fd252370c17a9971d68c1d4354a03c2e","","Mozilla/5.0 (X11; Linux x86_64; rv:106.0) Gecko/20100101 Firefox/106.0","","Firefox","106.0","Linux","","null","null","","<p style=""font-size: 48px;"">+</p>","4","Filler","",""
"","","","","","picture","11065","image-keyboard-response","78","215934","0.0-6.0-3.10","83","4","2022-11-17 12:26:06","fd252370c17a9971d68c1d4354a03c2e","","Mozilla/5.0 (X11; Linux x86_64; rv:106.0) Gecko/20100101 Firefox/106.0","","Firefox","106.0","Linux","","4529","n","","box.jpg","4","Filler","true",""
"","","","","","fixation","11065","html-keyboard-response","79","216942","0.0-6.0-0.11","83","4","2022-11-17 12:26:06","fd252370c17a9971d68c1d4354a03c2e","","Mozilla/5.0 (X11; Linux x86_64; rv:106.0) Gecko/20100101 Firefox/106.0","","Firefox","106.0","Linux","","null","null","","<p style=""font-size: 48px;"">+</p>","4","Filler","",""
"","","","","","sentence","11065","html-keyboard-response","80","218562","0.0-6.0-1.11","83","4","2022-11-17 12:26:06","fd252370c17a9971d68c1d4354a03c2e","","Mozilla/5.0 (X11; Linux x86_64; rv:106.0) Gecko/20100101 Firefox/106.0","","Firefox","106.0","Linux","","1609"," ","","A puppy is playing with a ball","4","Filler","",""
"","","","","","fixation","11065","html-keyboard-response","81","219073","0.0-6.0-2.11","83","4","2022-11-17 12:26:06","fd252370c17a9971d68c1d4354a03c2e","","Mozilla/5.0 (X11; Linux x86_64; rv:106.0) Gecko/20100101 Firefox/106.0","","Firefox","106.0","Linux","","null","null","","<p style=""font-size: 48px;"">+</p>","4","Filler","",""
"","","","","","picture","11065","image-keyboard-response","82","220248","0.0-6.0-3.11","83","4","2022-11-17 12:26:06","fd252370c17a9971d68c1d4354a03c2e","","Mozilla/5.0 (X11; Linux x86_64; rv:106.0) Gecko/20100101 Firefox/106.0","","Firefox","106.0","Linux","","1164","s","","tennisball.jpg","4","Filler","true",""
"","","","","","fixation","11065","html-keyboard-response","83","221254","0.0-6.0-0.12","83","4","2022-11-17 12:26:06","fd252370c17a9971d68c1d4354a03c2e","","Mozilla/5.0 (X11; Linux x86_64; rv:106.0) Gecko/20100101 Firefox/106.0","","Firefox","106.0","Linux","","null","null","","<p style=""font-size: 48px;"">+</p>","4","Heavy-Matched","",""
"","","","","","sentence","11065","html-keyboard-response","84","223311","0.0-6.0-1.12","83","4","2022-11-17 12:26:06","fd252370c17a9971d68c1d4354a03c2e","","Mozilla/5.0 (X11; Linux x86_64; rv:106.0) Gecko/20100101 Firefox/106.0","","Firefox","106.0","Linux","","2046"," ","","A bowling ball dropped and smashed a strawberry","4","Heavy-Matched","",""
"","","","","","fixation","11065","html-keyboard-response","85","223821","0.0-6.0-2.12","83","4","2022-11-17 12:26:06","fd252370c17a9971d68c1d4354a03c2e","","Mozilla/5.0 (X11; Linux x86_64; rv:106.0) Gecko/20100101 Firefox/106.0","","Firefox","106.0","Linux","","null","null","","<p style=""font-size: 48px;"">+</p>","4","Heavy-Matched","",""
"","","","","","picture","11065","image-keyboard-response","86","224709","0.0-6.0-3.12","83","4","2022-11-17 12:26:06","fd252370c17a9971d68c1d4354a03c2e","","Mozilla/5.0 (X11; Linux x86_64; rv:106.0) Gecko/20100101 Firefox/106.0","","Firefox","106.0","Linux","","871","s","","strawberryS.jpg","4","Heavy-Matched","true",""
"","","","","","fixation","11065","html-keyboard-response","87","225719","0.0-6.0-0.13","83","4","2022-11-17 12:26:06","fd252370c17a9971d68c1d4354a03c2e","","Mozilla/5.0 (X11; Linux x86_64; rv:106.0) Gecko/20100101 Firefox/106.0","","Firefox","106.0","Linux","","null","null","","<p style=""font-size: 48px;"">+</p>","4","Filler","",""
"","","","","","sentence","11065","html-keyboard-response","88","228268","0.0-6.0-1.13","83","4","2022-11-17 12:26:06","fd252370c17a9971d68c1d4354a03c2e","","Mozilla/5.0 (X11; Linux x86_64; rv:106.0) Gecko/20100101 Firefox/106.0","","Firefox","106.0","Linux","","2539"," ","","A cabbage was placed on the table","4","Filler","",""
"","","","","","fixation","11065","html-keyboard-response","89","228778","0.0-6.0-2.13","83","4","2022-11-17 12:26:06","fd252370c17a9971d68c1d4354a03c2e","","Mozilla/5.0 (X11; Linux x86_64; rv:106.0) Gecko/20100101 Firefox/106.0","","Firefox","106.0","Linux","","null","null","","<p style=""font-size: 48px;"">+</p>","4","Filler","",""
"","","","","","picture","11065","image-keyboard-response","90","229937","0.0-6.0-3.13","83","4","2022-11-17 12:26:06","fd252370c17a9971d68c1d4354a03c2e","","Mozilla/5.0 (X11; Linux x86_64; rv:106.0) Gecko/20100101 Firefox/106.0","","Firefox","106.0","Linux","","1140","n","","ladder.jpg","4","Filler","true",""
"","","","","","fixation","11065","html-keyboard-response","91","230947","0.0-6.0-0.14","83","4","2022-11-17 12:26:06","fd252370c17a9971d68c1d4354a03c2e","","Mozilla/5.0 (X11; Linux x86_64; rv:106.0) Gecko/20100101 Firefox/106.0","","Firefox","106.0","Linux","","null","null","","<p style=""font-size: 48px;"">+</p>","4","Filler","",""
"","","","","","sentence","11065","html-keyboard-response","92","232853","0.0-6.0-1.14","83","4","2022-11-17 12:26:06","fd252370c17a9971d68c1d4354a03c2e","","Mozilla/5.0 (X11; Linux x86_64; rv:106.0) Gecko/20100101 Firefox/106.0","","Firefox","106.0","Linux","","1895"," ","","A butterfly is sitting on a flower","4","Filler","",""
"","","","","","fixation","11065","html-keyboard-response","93","233363","0.0-6.0-2.14","83","4","2022-11-17 12:26:06","fd252370c17a9971d68c1d4354a03c2e","","Mozilla/5.0 (X11; Linux x86_64; rv:106.0) Gecko/20100101 Firefox/106.0","","Firefox","106.0","Linux","","null","null","","<p style=""font-size: 48px;"">+</p>","4","Filler","",""
"","","","","","picture","11065","image-keyboard-response","94","234873","0.0-6.0-3.14","83","4","2022-11-17 12:26:06","fd252370c17a9971d68c1d4354a03c2e","","Mozilla/5.0 (X11; Linux x86_64; rv:106.0) Gecko/20100101 Firefox/106.0","","Firefox","106.0","Linux","","1492","n","","soap.jpg","4","Filler","true",""
"","","","","","fixation","11065","html-keyboard-response","95","235881","0.0-6.0-0.15","83","4","2022-11-17 12:26:06","fd252370c17a9971d68c1d4354a03c2e","","Mozilla/5.0 (X11; Linux x86_64; rv:106.0) Gecko/20100101 Firefox/106.0","","Firefox","106.0","Linux","","null","null","","<p style=""font-size: 48px;"">+</p>","4","Filler","",""
"","","","","","sentence","11065","html-keyboard-response","96","238035","0.0-6.0-1.15","83","4","2022-11-17 12:26:06","fd252370c17a9971d68c1d4354a03c2e","","Mozilla/5.0 (X11; Linux x86_64; rv:106.0) Gecko/20100101 Firefox/106.0","","Firefox","106.0","Linux","","2142"," ","","A fork was placed on the plate","4","Filler","",""
"","","","","","fixation","11065","html-keyboard-response","97","238542","0.0-6.0-2.15","83","4","2022-11-17 12:26:06","fd252370c17a9971d68c1d4354a03c2e","","Mozilla/5.0 (X11; Linux x86_64; rv:106.0) Gecko/20100101 Firefox/106.0","","Firefox","106.0","Linux","","null","null","","<p style=""font-size: 48px;"">+</p>","4","Filler","",""
"","","","","","picture","11065","image-keyboard-response","98","239908","0.0-6.0-3.15","83","4","2022-11-17 12:26:06","fd252370c17a9971d68c1d4354a03c2e","","Mozilla/5.0 (X11; Linux x86_64; rv:106.0) Gecko/20100101 Firefox/106.0","","Firefox","106.0","Linux","","1348","s","","plate.jpg","4","Filler","true",""
"","","","","","fixation","11065","html-keyboard-response","99","240920","0.0-6.0-0.16","83","4","2022-11-17 12:26:06","fd252370c17a9971d68c1d4354a03c2e","","Mozilla/5.0 (X11; Linux x86_64; rv:106.0) Gecko/20100101 Firefox/106.0","","Firefox","106.0","Linux","","null","null","","<p style=""font-size: 48px;"">+</p>","4","Light-Contradictory","",""
"","","","","","sentence","11065","html-keyboard-response","100","243241","0.0-6.0-1.16","83","4","2022-11-17 12:26:06","fd252370c17a9971d68c1d4354a03c2e","","Mozilla/5.0 (X11; Linux x86_64; rv:106.0) Gecko/20100101 Firefox/106.0","","Firefox","106.0","Linux","","2309"," ","","A balloon dropped and smashed a donut","4","Light-Contradictory","",""
"","","","","","fixation","11065","html-keyboard-response","101","243749","0.0-6.0-2.16","83","4","2022-11-17 12:26:06","fd252370c17a9971d68c1d4354a03c2e","","Mozilla/5.0 (X11; Linux x86_64; rv:106.0) Gecko/20100101 Firefox/106.0","","Firefox","106.0","Linux","","null","null","","<p style=""font-size: 48px;"">+</p>","4","Light-Contradictory","",""
"","","","","","picture","11065","image-keyboard-response","102","244799","0.0-6.0-3.16","83","4","2022-11-17 12:26:06","fd252370c17a9971d68c1d4354a03c2e","","Mozilla/5.0 (X11; Linux x86_64; rv:106.0) Gecko/20100101 Firefox/106.0","","Firefox","106.0","Linux","","1028","s","","donutS.jpg","4","Light-Contradictory","true",""
"","","","","","fixation","11065","html-keyboard-response","103","245811","0.0-6.0-0.17","83","4","2022-11-17 12:26:06","fd252370c17a9971d68c1d4354a03c2e","","Mozilla/5.0 (X11; Linux x86_64; rv:106.0) Gecko/20100101 Firefox/106.0","","Firefox","106.0","Linux","","null","null","","<p style=""font-size: 48px;"">+</p>","4","Filler","",""
"","","","","","sentence","11065","html-keyboard-response","104","248406","0.0-6.0-1.17","83","4","2022-11-17 12:26:06","fd252370c17a9971d68c1d4354a03c2e","","Mozilla/5.0 (X11; Linux x86_64; rv:106.0) Gecko/20100101 Firefox/106.0","","Firefox","106.0","Linux","","2583"," ","","An old man is hammering a nail","4","Filler","",""
"","","","","","fixation","11065","html-keyboard-response","105","248914","0.0-6.0-2.17","83","4","2022-11-17 12:26:06","fd252370c17a9971d68c1d4354a03c2e","","Mozilla/5.0 (X11; Linux x86_64; rv:106.0) Gecko/20100101 Firefox/106.0","","Firefox","106.0","Linux","","null","null","","<p style=""font-size: 48px;"">+</p>","4","Filler","",""
"","","","","","picture","11065","image-keyboard-response","106","250273","0.0-6.0-3.17","83","4","2022-11-17 12:26:06","fd252370c17a9971d68c1d4354a03c2e","","Mozilla/5.0 (X11; Linux x86_64; rv:106.0) Gecko/20100101 Firefox/106.0","","Firefox","106.0","Linux","","1340","s","","nail.jpg","4","Filler","true",""
"","","","","","fixation","11065","html-keyboard-response","107","251284","0.0-6.0-0.18","83","4","2022-11-17 12:26:06","fd252370c17a9971d68c1d4354a03c2e","","Mozilla/5.0 (X11; Linux x86_64; rv:106.0) Gecko/20100101 Firefox/106.0","","Firefox","106.0","Linux","","null","null","","<p style=""font-size: 48px;"">+</p>","4","Light-Contradictory","",""
"","","","","","sentence","11065","html-keyboard-response","108","254206","0.0-6.0-1.18","83","4","2022-11-17 12:26:06","fd252370c17a9971d68c1d4354a03c2e","","Mozilla/5.0 (X11; Linux x86_64; rv:106.0) Gecko/20100101 Firefox/106.0","","Firefox","106.0","Linux","","2912"," ","","A balloon dropped and smashed a rice cake","4","Light-Contradictory","",""
"","","","","","fixation","11065","html-keyboard-response","109","254719","0.0-6.0-2.18","83","4","2022-11-17 12:26:06","fd252370c17a9971d68c1d4354a03c2e","","Mozilla/5.0 (X11; Linux x86_64; rv:106.0) Gecko/20100101 Firefox/106.0","","Firefox","106.0","Linux","","null","null","","<p style=""font-size: 48px;"">+</p>","4","Light-Contradictory","",""
"","","","","","picture","11065","image-keyboard-response","110","255795","0.0-6.0-3.18","83","4","2022-11-17 12:26:06","fd252370c17a9971d68c1d4354a03c2e","","Mozilla/5.0 (X11; Linux x86_64; rv:106.0) Gecko/20100101 Firefox/106.0","","Firefox","106.0","Linux","","1055","s","","tortitaS.jpg","4","Light-Contradictory","true",""
"","","","","","fixation","11065","html-keyboard-response","111","256809","0.0-6.0-0.19","83","4","2022-11-17 12:26:06","fd252370c17a9971d68c1d4354a03c2e","","Mozilla/5.0 (X11; Linux x86_64; rv:106.0) Gecko/20100101 Firefox/106.0","","Firefox","106.0","Linux","","null","null","","<p style=""font-size: 48px;"">+</p>","4","Filler","",""
"","","","","","sentence","11065","html-keyboard-response","112","258877","0.0-6.0-1.19","83","4","2022-11-17 12:26:06","fd252370c17a9971d68c1d4354a03c2e","","Mozilla/5.0 (X11; Linux x86_64; rv:106.0) Gecko/20100101 Firefox/106.0","","Firefox","106.0","Linux","","2056"," ","","A man is playing with a cat","4","Filler","",""
"","","","","","fixation","11065","html-keyboard-response","113","259391","0.0-6.0-2.19","83","4","2022-11-17 12:26:06","fd252370c17a9971d68c1d4354a03c2e","","Mozilla/5.0 (X11; Linux x86_64; rv:106.0) Gecko/20100101 Firefox/106.0","","Firefox","106.0","Linux","","null","null","","<p style=""font-size: 48px;"">+</p>","4","Filler","",""
"","","","","","picture","11065","image-keyboard-response","114","261091","0.0-6.0-3.19","83","4","2022-11-17 12:26:06","fd252370c17a9971d68c1d4354a03c2e","","Mozilla/5.0 (X11; Linux x86_64; rv:106.0) Gecko/20100101 Firefox/106.0","","Firefox","106.0","Linux","","1689","n","","ceramicplate.jpg","4","Filler","true",""
"","","","","","fixation","11065","html-keyboard-response","115","262101","0.0-6.0-0.20","83","4","2022-11-17 12:26:06","fd252370c17a9971d68c1d4354a03c2e","","Mozilla/5.0 (X11; Linux x86_64; rv:106.0) Gecko/20100101 Firefox/106.0","","Firefox","106.0","Linux","","null","null","","<p style=""font-size: 48px;"">+</p>","4","Filler","",""
"","","","","","sentence","11065","html-keyboard-response","116","265683","0.0-6.0-1.20","83","4","2022-11-17 12:26:06","fd252370c17a9971d68c1d4354a03c2e","","Mozilla/5.0 (X11; Linux x86_64; rv:106.0) Gecko/20100101 Firefox/106.0","","Firefox","106.0","Linux","","3570"," ","","An actress is taking a microphone","4","Filler","",""
"","","","","","fixation","11065","html-keyboard-response","117","266194","0.0-6.0-2.20","83","4","2022-11-17 12:26:06","fd252370c17a9971d68c1d4354a03c2e","","Mozilla/5.0 (X11; Linux x86_64; rv:106.0) Gecko/20100101 Firefox/106.0","","Firefox","106.0","Linux","","null","null","","<p style=""font-size: 48px;"">+</p>","4","Filler","",""
"","","","","","picture","11065","image-keyboard-response","118","268283","0.0-6.0-3.20","83","4","2022-11-17 12:26:06","fd252370c17a9971d68c1d4354a03c2e","","Mozilla/5.0 (X11; Linux x86_64; rv:106.0) Gecko/20100101 Firefox/106.0","","Firefox","106.0","Linux","","2068","n","","pants.jpg","4","Filler","true",""
"","","","","","fixation","11065","html-keyboard-response","119","269292","0.0-6.0-0.21","83","4","2022-11-17 12:26:06","fd252370c17a9971d68c1d4354a03c2e","","Mozilla/5.0 (X11; Linux x86_64; rv:106.0) Gecko/20100101 Firefox/106.0","","Firefox","106.0","Linux","","null","null","","<p style=""font-size: 48px;"">+</p>","4","Light-Matched","",""
"","","","","","sentence","11065","html-keyboard-response","120","272486","0.0-6.0-1.21","83","4","2022-11-17 12:26:06","fd252370c17a9971d68c1d4354a03c2e","","Mozilla/5.0 (X11; Linux x86_64; rv:106.0) Gecko/20100101 Firefox/106.0","","Firefox","106.0","Linux","","3178"," ","","A balloon dropped and touched an egg flan","4","Light-Matched","",""
"","","","","","fixation","11065","html-keyboard-response","121","272998","0.0-6.0-2.21","83","4","2022-11-17 12:26:06","fd252370c17a9971d68c1d4354a03c2e","","Mozilla/5.0 (X11; Linux x86_64; rv:106.0) Gecko/20100101 Firefox/106.0","","Firefox","106.0","Linux","","null","null","","<p style=""font-size: 48px;"">+</p>","4","Light-Matched","",""
"","","","","","picture","11065","image-keyboard-response","122","277325","0.0-6.0-3.21","83","4","2022-11-17 12:26:06","fd252370c17a9971d68c1d4354a03c2e","","Mozilla/5.0 (X11; Linux x86_64; rv:106.0) Gecko/20100101 Firefox/106.0","","Firefox","106.0","Linux","","4305","s","","eggflanS.jpg","4","Light-Matched","true",""
"","","","","","fixation","11065","html-keyboard-response","123","278335","0.0-6.0-0.22","83","4","2022-11-17 12:26:06","fd252370c17a9971d68c1d4354a03c2e","","Mozilla/5.0 (X11; Linux x86_64; rv:106.0) Gecko/20100101 Firefox/106.0","","Firefox","106.0","Linux","","null","null","","<p style=""font-size: 48px;"">+</p>","4","Filler","",""
"","","","","","sentence","11065","html-keyboard-response","124","280881","0.0-6.0-1.22","83","4","2022-11-17 12:26:06","fd252370c17a9971d68c1d4354a03c2e","","Mozilla/5.0 (X11; Linux x86_64; rv:106.0) Gecko/20100101 Firefox/106.0","","Firefox","106.0","Linux","","2536"," ","","A man is shaving his beard","4","Filler","",""
"","","","","","fixation","11065","html-keyboard-response","125","281392","0.0-6.0-2.22","83","4","2022-11-17 12:26:06","fd252370c17a9971d68c1d4354a03c2e","","Mozilla/5.0 (X11; Linux x86_64; rv:106.0) Gecko/20100101 Firefox/106.0","","Firefox","106.0","Linux","","null","null","","<p style=""font-size: 48px;"">+</p>","4","Filler","",""
"","","","","","picture","11065","image-keyboard-response","126","282548","0.0-6.0-3.22","83","4","2022-11-17 12:26:06","fd252370c17a9971d68c1d4354a03c2e","","Mozilla/5.0 (X11; Linux x86_64; rv:106.0) Gecko/20100101 Firefox/106.0","","Firefox","106.0","Linux","","1137","n","","clock.jpg","4","Filler","true",""
"","","","","","fixation","11065","html-keyboard-response","127","283557","0.0-6.0-0.23","83","4","2022-11-17 12:26:06","fd252370c17a9971d68c1d4354a03c2e","","Mozilla/5.0 (X11; Linux x86_64; rv:106.0) Gecko/20100101 Firefox/106.0","","Firefox","106.0","Linux","","null","null","","<p style=""font-size: 48px;"">+</p>","4","Light-Matched","",""
"","","","","","sentence","11065","html-keyboard-response","128","286239","0.0-6.0-1.23","83","4","2022-11-17 12:26:06","fd252370c17a9971d68c1d4354a03c2e","","Mozilla/5.0 (X11; Linux x86_64; rv:106.0) Gecko/20100101 Firefox/106.0","","Firefox","106.0","Linux","","2668"," ","","A balloon dropped and touched a banana","4","Light-Matched","",""
"","","","","","fixation","11065","html-keyboard-response","129","286751","0.0-6.0-2.23","83","4","2022-11-17 12:26:06","fd252370c17a9971d68c1d4354a03c2e","","Mozilla/5.0 (X11; Linux x86_64; rv:106.0) Gecko/20100101 Firefox/106.0","","Firefox","106.0","Linux","","null","null","","<p style=""font-size: 48px;"">+</p>","4","Light-Matched","",""
"","","","","","picture","11065","image-keyboard-response","130","287693","0.0-6.0-3.23","83","4","2022-11-17 12:26:06","fd252370c17a9971d68c1d4354a03c2e","","Mozilla/5.0 (X11; Linux x86_64; rv:106.0) Gecko/20100101 Firefox/106.0","","Firefox","106.0","Linux","","922","s","","bananaS.jpg","4","Light-Matched","true",""
"","","","","","fixation","11065","html-keyboard-response","131","288704","0.0-6.0-0.24","83","4","2022-11-17 12:26:06","fd252370c17a9971d68c1d4354a03c2e","","Mozilla/5.0 (X11; Linux x86_64; rv:106.0) Gecko/20100101 Firefox/106.0","","Firefox","106.0","Linux","","null","null","","<p style=""font-size: 48px;"">+</p>","4","Filler","",""
"","","","","","sentence","11065","html-keyboard-response","132","291334","0.0-6.0-1.24","83","4","2022-11-17 12:26:06","fd252370c17a9971d68c1d4354a03c2e","","Mozilla/5.0 (X11; Linux x86_64; rv:106.0) Gecko/20100101 Firefox/106.0","","Firefox","106.0","Linux","","2624"," ","","A towel was placed on the TV","4","Filler","",""
"","","","","","fixation","11065","html-keyboard-response","133","291848","0.0-6.0-2.24","83","4","2022-11-17 12:26:06","fd252370c17a9971d68c1d4354a03c2e","","Mozilla/5.0 (X11; Linux x86_64; rv:106.0) Gecko/20100101 Firefox/106.0","","Firefox","106.0","Linux","","null","null","","<p style=""font-size: 48px;"">+</p>","4","Filler","",""
"","","","","","picture","11065","image-keyboard-response","134","293248","0.0-6.0-3.24","83","4","2022-11-17 12:26:06","fd252370c17a9971d68c1d4354a03c2e","","Mozilla/5.0 (X11; Linux x86_64; rv:106.0) Gecko/20100101 Firefox/106.0","","Firefox","106.0","Linux","","1381","n","","pencil.jpg","4","Filler","true",""
"","","","","","fixation","11065","html-keyboard-response","135","294263","0.0-6.0-0.25","83","4","2022-11-17 12:26:06","fd252370c17a9971d68c1d4354a03c2e","","Mozilla/5.0 (X11; Linux x86_64; rv:106.0) Gecko/20100101 Firefox/106.0","","Firefox","106.0","Linux","","null","null","","<p style=""font-size: 48px;"">+</p>","4","Filler","",""
"","","","","","sentence","11065","html-keyboard-response","136","296593","0.0-6.0-1.25","83","4","2022-11-17 12:26:06","fd252370c17a9971d68c1d4354a03c2e","","Mozilla/5.0 (X11; Linux x86_64; rv:106.0) Gecko/20100101 Firefox/106.0","","Firefox","106.0","Linux","","2317"," ","","A giraffe is playing with a zebra","4","Filler","",""
"","","","","","fixation","11065","html-keyboard-response","137","297105","0.0-6.0-2.25","83","4","2022-11-17 12:26:06","fd252370c17a9971d68c1d4354a03c2e","","Mozilla/5.0 (X11; Linux x86_64; rv:106.0) Gecko/20100101 Firefox/106.0","","Firefox","106.0","Linux","","null","null","","<p style=""font-size: 48px;"">+</p>","4","Filler","",""
"","","","","","picture","11065","image-keyboard-response","138","298236","0.0-6.0-3.25","83","4","2022-11-17 12:26:06","fd252370c17a9971d68c1d4354a03c2e","","Mozilla/5.0 (X11; Linux x86_64; rv:106.0) Gecko/20100101 Firefox/106.0","","Firefox","106.0","Linux","","1114","n","","wallet.jpg","4","Filler","true",""
"","","","","","fixation","11065","html-keyboard-response","139","299249","0.0-6.0-0.26","83","4","2022-11-17 12:26:06","fd252370c17a9971d68c1d4354a03c2e","","Mozilla/5.0 (X11; Linux x86_64; rv:106.0) Gecko/20100101 Firefox/106.0","","Firefox","106.0","Linux","","null","null","","<p style=""font-size: 48px;"">+</p>","4","Heavy-Matched","",""
"","","","","","sentence","11065","html-keyboard-response","140","301986","0.0-6.0-1.26","83","4","2022-11-17 12:26:06","fd252370c17a9971d68c1d4354a03c2e","","Mozilla/5.0 (X11; Linux x86_64; rv:106.0) Gecko/20100101 Firefox/106.0","","Firefox","106.0","Linux","","2725"," ","","A bowling ball dropped and smashed a piece of sushi","4","Heavy-Matched","",""
"","","","","","fixation","11065","html-keyboard-response","141","302499","0.0-6.0-2.26","83","4","2022-11-17 12:26:06","fd252370c17a9971d68c1d4354a03c2e","","Mozilla/5.0 (X11; Linux x86_64; rv:106.0) Gecko/20100101 Firefox/106.0","","Firefox","106.0","Linux","","null","null","","<p style=""font-size: 48px;"">+</p>","4","Heavy-Matched","",""
"","","","","","picture","11065","image-keyboard-response","142","303376","0.0-6.0-3.26","83","4","2022-11-17 12:26:06","fd252370c17a9971d68c1d4354a03c2e","","Mozilla/5.0 (X11; Linux x86_64; rv:106.0) Gecko/20100101 Firefox/106.0","","Firefox","106.0","Linux","","855","s","","sushiS.jpg","4","Heavy-Matched","true",""
"","","","","","fixation","11065","html-keyboard-response","143","304388","0.0-6.0-0.27","83","4","2022-11-17 12:26:06","fd252370c17a9971d68c1d4354a03c2e","","Mozilla/5.0 (X11; Linux x86_64; rv:106.0) Gecko/20100101 Firefox/106.0","","Firefox","106.0","Linux","","null","null","","<p style=""font-size: 48px;"">+</p>","4","Filler","",""
"","","","","","sentence","11065","html-keyboard-response","144","306499","0.0-6.0-1.27","83","4","2022-11-17 12:26:06","fd252370c17a9971d68c1d4354a03c2e","","Mozilla/5.0 (X11; Linux x86_64; rv:106.0) Gecko/20100101 Firefox/106.0","","Firefox","106.0","Linux","","2097"," ","","A postman is driving a car","4","Filler","",""
"","","","","","fixation","11065","html-keyboard-response","145","307014","0.0-6.0-2.27","83","4","2022-11-17 12:26:06","fd252370c17a9971d68c1d4354a03c2e","","Mozilla/5.0 (X11; Linux x86_64; rv:106.0) Gecko/20100101 Firefox/106.0","","Firefox","106.0","Linux","","null","null","","<p style=""font-size: 48px;"">+</p>","4","Filler","",""
"","","","","","picture","11065","image-keyboard-response","146","310258","0.0-6.0-3.27","83","4","2022-11-17 12:26:06","fd252370c17a9971d68c1d4354a03c2e","","Mozilla/5.0 (X11; Linux x86_64; rv:106.0) Gecko/20100101 Firefox/106.0","","Firefox","106.0","Linux","","3221","s","","car.jpg","4","Filler","true",""
"","","","","","fixation","11065","html-keyboard-response","147","311269","0.0-6.0-0.28","83","4","2022-11-17 12:26:06","fd252370c17a9971d68c1d4354a03c2e","","Mozilla/5.0 (X11; Linux x86_64; rv:106.0) Gecko/20100101 Firefox/106.0","","Firefox","106.0","Linux","","null","null","","<p style=""font-size: 48px;"">+</p>","4","Light-Contradictory","",""
"","","","","","sentence","11065","html-keyboard-response","148","313309","0.0-6.0-1.28","83","4","2022-11-17 12:26:06","fd252370c17a9971d68c1d4354a03c2e","","Mozilla/5.0 (X11; Linux x86_64; rv:106.0) Gecko/20100101 Firefox/106.0","","Firefox","106.0","Linux","","2028"," ","","A balloon dropped and smashed a chocolate muffin","4","Light-Contradictory","",""
"","","","","","fixation","11065","html-keyboard-response","149","313822","0.0-6.0-2.28","83","4","2022-11-17 12:26:06","fd252370c17a9971d68c1d4354a03c2e","","Mozilla/5.0 (X11; Linux x86_64; rv:106.0) Gecko/20100101 Firefox/106.0","","Firefox","106.0","Linux","","null","null","","<p style=""font-size: 48px;"">+</p>","4","Light-Contradictory","",""
"","","","","","picture","11065","image-keyboard-response","150","314722","0.0-6.0-3.28","83","4","2022-11-17 12:26:06","fd252370c17a9971d68c1d4354a03c2e","","Mozilla/5.0 (X11; Linux x86_64; rv:106.0) Gecko/20100101 Firefox/106.0","","Firefox","106.0","Linux","","878","s","","muffinS.jpg","4","Light-Contradictory","true",""
"","","","","","fixation","11065","html-keyboard-response","151","315737","0.0-6.0-0.29","83","4","2022-11-17 12:26:06","fd252370c17a9971d68c1d4354a03c2e","","Mozilla/5.0 (X11; Linux x86_64; rv:106.0) Gecko/20100101 Firefox/106.0","","Firefox","106.0","Linux","","null","null","","<p style=""font-size: 48px;"">+</p>","4","Filler","",""
"","","","","","sentence","11065","html-keyboard-response","152","317378","0.0-6.0-1.29","83","4","2022-11-17 12:26:06","fd252370c17a9971d68c1d4354a03c2e","","Mozilla/5.0 (X11; Linux x86_64; rv:106.0) Gecko/20100101 Firefox/106.0","","Firefox","106.0","Linux","","1627"," ","","A thief is stealing a wallet","4","Filler","",""
"","","","","","fixation","11065","html-keyboard-response","153","317891","0.0-6.0-2.29","83","4","2022-11-17 12:26:06","fd252370c17a9971d68c1d4354a03c2e","","Mozilla/5.0 (X11; Linux x86_64; rv:106.0) Gecko/20100101 Firefox/106.0","","Firefox","106.0","Linux","","null","null","","<p style=""font-size: 48px;"">+</p>","4","Filler","",""
"","","","","","picture","11065","image-keyboard-response","154","319134","0.0-6.0-3.29","83","4","2022-11-17 12:26:06","fd252370c17a9971d68c1d4354a03c2e","","Mozilla/5.0 (X11; Linux x86_64; rv:106.0) Gecko/20100101 Firefox/106.0","","Firefox","106.0","Linux","","1220","n","","teddybear.jpg","4","Filler","true",""
"","","","","","fixation","11065","html-keyboard-response","155","320147","0.0-6.0-0.30","83","4","2022-11-17 12:26:06","fd252370c17a9971d68c1d4354a03c2e","","Mozilla/5.0 (X11; Linux x86_64; rv:106.0) Gecko/20100101 Firefox/106.0","","Firefox","106.0","Linux","","null","null","","<p style=""font-size: 48px;"">+</p>","4","Filler","",""
"","","","","","sentence","11065","html-keyboard-response","156","322059","0.0-6.0-1.30","83","4","2022-11-17 12:26:06","fd252370c17a9971d68c1d4354a03c2e","","Mozilla/5.0 (X11; Linux x86_64; rv:106.0) Gecko/20100101 Firefox/106.0","","Firefox","106.0","Linux","","1895"," ","","A pilot is reading a book","4","Filler","",""
"","","","","","fixation","11065","html-keyboard-response","157","322573","0.0-6.0-2.30","83","4","2022-11-17 12:26:06","fd252370c17a9971d68c1d4354a03c2e","","Mozilla/5.0 (X11; Linux x86_64; rv:106.0) Gecko/20100101 Firefox/106.0","","Firefox","106.0","Linux","","null","null","","<p style=""font-size: 48px;"">+</p>","4","Filler","",""
"","","","","","picture","11065","image-keyboard-response","158","324196","0.0-6.0-3.30","83","4","2022-11-17 12:26:06","fd252370c17a9971d68c1d4354a03c2e","","Mozilla/5.0 (X11; Linux x86_64; rv:106.0) Gecko/20100101 Firefox/106.0","","Firefox","106.0","Linux","","1603","n","","spoon.jpg","4","Filler","true",""
"","","","","","fixation","11065","html-keyboard-response","159","325206","0.0-6.0-0.31","83","4","2022-11-17 12:26:06","fd252370c17a9971d68c1d4354a03c2e","","Mozilla/5.0 (X11; Linux x86_64; rv:106.0) Gecko/20100101 Firefox/106.0","","Firefox","106.0","Linux","","null","null","","<p style=""font-size: 48px;"">+</p>","4","Filler","",""
"","","","","","sentence","11065","html-keyboard-response","160","326664","0.0-6.0-1.31","83","4","2022-11-17 12:26:06","fd252370c17a9971d68c1d4354a03c2e","","Mozilla/5.0 (X11; Linux x86_64; rv:106.0) Gecko/20100101 Firefox/106.0","","Firefox","106.0","Linux","","1447"," ","","A mouse is eating cheese","4","Filler","",""
"","","","","","fixation","11065","html-keyboard-response","161","327177","0.0-6.0-2.31","83","4","2022-11-17 12:26:06","fd252370c17a9971d68c1d4354a03c2e","","Mozilla/5.0 (X11; Linux x86_64; rv:106.0) Gecko/20100101 Firefox/106.0","","Firefox","106.0","Linux","","null","null","","<p style=""font-size: 48px;"">+</p>","4","Filler","",""
"","","","","","picture","11065","image-keyboard-response","162","328337","0.0-6.0-3.31","83","4","2022-11-17 12:26:06","fd252370c17a9971d68c1d4354a03c2e","","Mozilla/5.0 (X11; Linux x86_64; rv:106.0) Gecko/20100101 Firefox/106.0","","Firefox","106.0","Linux","","1138","n","","ring.jpg","4","Filler","true",""
"","","","","","fixation","11065","html-keyboard-response","163","329350","0.0-6.0-0.32","83","4","2022-11-17 12:26:06","fd252370c17a9971d68c1d4354a03c2e","","Mozilla/5.0 (X11; Linux x86_64; rv:106.0) Gecko/20100101 Firefox/106.0","","Firefox","106.0","Linux","","null","null","","<p style=""font-size: 48px;"">+</p>","4","Filler","",""
"","","","","","sentence","11065","html-keyboard-response","164","331141","0.0-6.0-1.32","83","4","2022-11-17 12:26:06","fd252370c17a9971d68c1d4354a03c2e","","Mozilla/5.0 (X11; Linux x86_64; rv:106.0) Gecko/20100101 Firefox/106.0","","Firefox","106.0","Linux","","1782"," ","","A musician is playing a guitar","4","Filler","",""
"","","","","","fixation","11065","html-keyboard-response","165","331654","0.0-6.0-2.32","83","4","2022-11-17 12:26:06","fd252370c17a9971d68c1d4354a03c2e","","Mozilla/5.0 (X11; Linux x86_64; rv:106.0) Gecko/20100101 Firefox/106.0","","Firefox","106.0","Linux","","null","null","","<p style=""font-size: 48px;"">+</p>","4","Filler","",""
"","","","","","picture","11065","image-keyboard-response","166","333127","0.0-6.0-3.32","83","4","2022-11-17 12:26:06","fd252370c17a9971d68c1d4354a03c2e","","Mozilla/5.0 (X11; Linux x86_64; rv:106.0) Gecko/20100101 Firefox/106.0","","Firefox","106.0","Linux","","1447","s","","guitar.jpg","4","Filler","true",""
"","","","","","fixation","11065","html-keyboard-response","167","334148","0.0-6.0-0.33","83","4","2022-11-17 12:26:06","fd252370c17a9971d68c1d4354a03c2e","","Mozilla/5.0 (X11; Linux x86_64; rv:106.0) Gecko/20100101 Firefox/106.0","","Firefox","106.0","Linux","","null","null","","<p style=""font-size: 48px;"">+</p>","4","Filler","",""
"","","","","","sentence","11065","html-keyboard-response","168","336333","0.0-6.0-1.33","83","4","2022-11-17 12:26:06","fd252370c17a9971d68c1d4354a03c2e","","Mozilla/5.0 (X11; Linux x86_64; rv:106.0) Gecko/20100101 Firefox/106.0","","Firefox","106.0","Linux","","2162"," ","","A kitten is playing in the sandbox","4","Filler","",""
"","","","","","fixation","11065","html-keyboard-response","169","336856","0.0-6.0-2.33","83","4","2022-11-17 12:26:06","fd252370c17a9971d68c1d4354a03c2e","","Mozilla/5.0 (X11; Linux x86_64; rv:106.0) Gecko/20100101 Firefox/106.0","","Firefox","106.0","Linux","","null","null","","<p style=""font-size: 48px;"">+</p>","4","Filler","",""
"","","","","","picture","11065","image-keyboard-response","170","339112","0.0-6.0-3.33","83","4","2022-11-17 12:26:06","fd252370c17a9971d68c1d4354a03c2e","","Mozilla/5.0 (X11; Linux x86_64; rv:106.0) Gecko/20100101 Firefox/106.0","","Firefox","106.0","Linux","","2232","n","","dustbin.jpg","4","Filler","true",""
"","","","","","fixation","11065","html-keyboard-response","171","340129","0.0-6.0-0.34","83","4","2022-11-17 12:26:06","fd252370c17a9971d68c1d4354a03c2e","","Mozilla/5.0 (X11; Linux x86_64; rv:106.0) Gecko/20100101 Firefox/106.0","","Firefox","106.0","Linux","","null","null","","<p style=""font-size: 48px;"">+</p>","4","Filler","",""
"","","","","","sentence","11065","html-keyboard-response","172","342747","0.0-6.0-1.34","83","4","2022-11-17 12:26:06","fd252370c17a9971d68c1d4354a03c2e","","Mozilla/5.0 (X11; Linux x86_64; rv:106.0) Gecko/20100101 Firefox/106.0","","Firefox","106.0","Linux","","2602"," ","","A teenage girl is playing the piano","4","Filler","",""
"","","","","","fixation","11065","html-keyboard-response","173","343264","0.0-6.0-2.34","83","4","2022-11-17 12:26:06","fd252370c17a9971d68c1d4354a03c2e","","Mozilla/5.0 (X11; Linux x86_64; rv:106.0) Gecko/20100101 Firefox/106.0","","Firefox","106.0","Linux","","null","null","","<p style=""font-size: 48px;"">+</p>","4","Filler","",""
"","","","","","picture","11065","image-keyboard-response","174","344474","0.0-6.0-3.34","83","4","2022-11-17 12:26:06","fd252370c17a9971d68c1d4354a03c2e","","Mozilla/5.0 (X11; Linux x86_64; rv:106.0) Gecko/20100101 Firefox/106.0","","Firefox","106.0","Linux","","1182","n","","pillow.jpg","4","Filler","true",""
"","","","","","fixation","11065","html-keyboard-response","175","345486","0.0-6.0-0.35","83","4","2022-11-17 12:26:06","fd252370c17a9971d68c1d4354a03c2e","","Mozilla/5.0 (X11; Linux x86_64; rv:106.0) Gecko/20100101 Firefox/106.0","","Firefox","106.0","Linux","","null","null","","<p style=""font-size: 48px;"">+</p>","4","Light-Matched","",""
"","","","","","sentence","11065","html-keyboard-response","176","347977","0.0-6.0-1.35","83","4","2022-11-17 12:26:06","fd252370c17a9971d68c1d4354a03c2e","","Mozilla/5.0 (X11; Linux x86_64; rv:106.0) Gecko/20100101 Firefox/106.0","","Firefox","106.0","Linux","","2474"," ","","A balloon dropped and touched a chocolate ice-cream","4","Light-Matched","",""
"","","","","","fixation","11065","html-keyboard-response","177","348486","0.0-6.0-2.35","83","4","2022-11-17 12:26:06","fd252370c17a9971d68c1d4354a03c2e","","Mozilla/5.0 (X11; Linux x86_64; rv:106.0) Gecko/20100101 Firefox/106.0","","Firefox","106.0","Linux","","null","null","","<p style=""font-size: 48px;"">+</p>","4","Light-Matched","",""
"","","","","","picture","11065","image-keyboard-response","178","349638","0.0-6.0-3.35","83","4","2022-11-17 12:26:06","fd252370c17a9971d68c1d4354a03c2e","","Mozilla/5.0 (X11; Linux x86_64; rv:106.0) Gecko/20100101 Firefox/106.0","","Firefox","106.0","Linux","","1128","s","","icecreamS.jpg","4","Light-Matched","true",""
"","","","","","fixation","11065","html-keyboard-response","179","350652","0.0-6.0-0.36","83","4","2022-11-17 12:26:06","fd252370c17a9971d68c1d4354a03c2e","","Mozilla/5.0 (X11; Linux x86_64; rv:106.0) Gecko/20100101 Firefox/106.0","","Firefox","106.0","Linux","","null","null","","<p style=""font-size: 48px;"">+</p>","4","Heavy-Contradictory","",""
"","","","","","sentence","11065","html-keyboard-response","180","352802","0.0-6.0-1.36","83","4","2022-11-17 12:26:06","fd252370c17a9971d68c1d4354a03c2e","","Mozilla/5.0 (X11; Linux x86_64; rv:106.0) Gecko/20100101 Firefox/106.0","","Firefox","106.0","Linux","","2133"," ","","A bowling ball dropped and touched a wineglass","4","Heavy-Contradictory","",""
"","","","","","fixation","11065","html-keyboard-response","181","353318","0.0-6.0-2.36","83","4","2022-11-17 12:26:06","fd252370c17a9971d68c1d4354a03c2e","","Mozilla/5.0 (X11; Linux x86_64; rv:106.0) Gecko/20100101 Firefox/106.0","","Firefox","106.0","Linux","","null","null","","<p style=""font-size: 48px;"">+</p>","4","Heavy-Contradictory","",""
"","","","","","picture","11065","image-keyboard-response","182","354227","0.0-6.0-3.36","83","4","2022-11-17 12:26:06","fd252370c17a9971d68c1d4354a03c2e","","Mozilla/5.0 (X11; Linux x86_64; rv:106.0) Gecko/20100101 Firefox/106.0","","Firefox","106.0","Linux","","891","s","","wineglassS.jpg","4","Heavy-Contradictory","true",""
"","","","","","fixation","11065","html-keyboard-response","183","355242","0.0-6.0-0.37","83","4","2022-11-17 12:26:06","fd252370c17a9971d68c1d4354a03c2e","","Mozilla/5.0 (X11; Linux x86_64; rv:106.0) Gecko/20100101 Firefox/106.0","","Firefox","106.0","Linux","","null","null","","<p style=""font-size: 48px;"">+</p>","4","Filler","",""
"","","","","","sentence","11065","html-keyboard-response","184","357940","0.0-6.0-1.37","83","4","2022-11-17 12:26:06","fd252370c17a9971d68c1d4354a03c2e","","Mozilla/5.0 (X11; Linux x86_64; rv:106.0) Gecko/20100101 Firefox/106.0","","Firefox","106.0","Linux","","2680"," ","","A dentist is drinking a can of cola","4","Filler","",""
"","","","","","fixation","11065","html-keyboard-response","185","358453","0.0-6.0-2.37","83","4","2022-11-17 12:26:06","fd252370c17a9971d68c1d4354a03c2e","","Mozilla/5.0 (X11; Linux x86_64; rv:106.0) Gecko/20100101 Firefox/106.0","","Firefox","106.0","Linux","","null","null","","<p style=""font-size: 48px;"">+</p>","4","Filler","",""
"","","","","","picture","11065","image-keyboard-response","186","359496","0.0-6.0-3.37","83","4","2022-11-17 12:26:06","fd252370c17a9971d68c1d4354a03c2e","","Mozilla/5.0 (X11; Linux x86_64; rv:106.0) Gecko/20100101 Firefox/106.0","","Firefox","106.0","Linux","","1029","n","","doll.jpg","4","Filler","true",""
"","","","","","fixation","11065","html-keyboard-response","187","360510","0.0-6.0-0.38","83","4","2022-11-17 12:26:06","fd252370c17a9971d68c1d4354a03c2e","","Mozilla/5.0 (X11; Linux x86_64; rv:106.0) Gecko/20100101 Firefox/106.0","","Firefox","106.0","Linux","","null","null","","<p style=""font-size: 48px;"">+</p>","4","Filler","",""
"","","","","","sentence","11065","html-keyboard-response","188","362214","0.0-6.0-1.38","83","4","2022-11-17 12:26:06","fd252370c17a9971d68c1d4354a03c2e","","Mozilla/5.0 (X11; Linux x86_64; rv:106.0) Gecko/20100101 Firefox/106.0","","Firefox","106.0","Linux","","1686"," ","","A horse is chewing hay","4","Filler","",""
"","","","","","fixation","11065","html-keyboard-response","189","362727","0.0-6.0-2.38","83","4","2022-11-17 12:26:06","fd252370c17a9971d68c1d4354a03c2e","","Mozilla/5.0 (X11; Linux x86_64; rv:106.0) Gecko/20100101 Firefox/106.0","","Firefox","106.0","Linux","","null","null","","<p style=""font-size: 48px;"">+</p>","4","Filler","",""
"","","","","","picture","11065","image-keyboard-response","190","364875","0.0-6.0-3.38","83","4","2022-11-17 12:26:06","fd252370c17a9971d68c1d4354a03c2e","","Mozilla/5.0 (X11; Linux x86_64; rv:106.0) Gecko/20100101 Firefox/106.0","","Firefox","106.0","Linux","","2128","n","","purse.jpg","4","Filler","true",""
"","","","","","fixation","11065","html-keyboard-response","191","365890","0.0-6.0-0.39","83","4","2022-11-17 12:26:06","fd252370c17a9971d68c1d4354a03c2e","","Mozilla/5.0 (X11; Linux x86_64; rv:106.0) Gecko/20100101 Firefox/106.0","","Firefox","106.0","Linux","","null","null","","<p style=""font-size: 48px;"">+</p>","4","Filler","",""
"","","","","","sentence","11065","html-keyboard-response","192","368511","0.0-6.0-1.39","83","4","2022-11-17 12:26:06","fd252370c17a9971d68c1d4354a03c2e","","Mozilla/5.0 (X11; Linux x86_64; rv:106.0) Gecko/20100101 Firefox/106.0","","Firefox","106.0","Linux","","2604"," ","","A needle was placed on the mouse pad","4","Filler","",""
"","","","","","fixation","11065","html-keyboard-response","193","369021","0.0-6.0-2.39","83","4","2022-11-17 12:26:06","fd252370c17a9971d68c1d4354a03c2e","","Mozilla/5.0 (X11; Linux x86_64; rv:106.0) Gecko/20100101 Firefox/106.0","","Firefox","106.0","Linux","","null","null","","<p style=""font-size: 48px;"">+</p>","4","Filler","",""
"","","","","","picture","11065","image-keyboard-response","194","371946","0.0-6.0-3.39","83","4","2022-11-17 12:26:06","fd252370c17a9971d68c1d4354a03c2e","","Mozilla/5.0 (X11; Linux x86_64; rv:106.0) Gecko/20100101 Firefox/106.0","","Firefox","106.0","Linux","","2903","n","","chocolate.jpg","4","Filler","true",""
"","","","","","fixation","11065","html-keyboard-response","195","372962","0.0-6.0-0.40","83","4","2022-11-17 12:26:06","fd252370c17a9971d68c1d4354a03c2e","","Mozilla/5.0 (X11; Linux x86_64; rv:106.0) Gecko/20100101 Firefox/106.0","","Firefox","106.0","Linux","","null","null","","<p style=""font-size: 48px;"">+</p>","4","Filler","",""
"","","","","","sentence","11065","html-keyboard-response","196","375026","0.0-6.0-1.40","83","4","2022-11-17 12:26:06","fd252370c17a9971d68c1d4354a03c2e","","Mozilla/5.0 (X11; Linux x86_64; rv:106.0) Gecko/20100101 Firefox/106.0","","Firefox","106.0","Linux","","2046"," ","","A toothbrush was placed on the sponge","4","Filler","",""
"","","","","","fixation","11065","html-keyboard-response","197","375542","0.0-6.0-2.40","83","4","2022-11-17 12:26:06","fd252370c17a9971d68c1d4354a03c2e","","Mozilla/5.0 (X11; Linux x86_64; rv:106.0) Gecko/20100101 Firefox/106.0","","Firefox","106.0","Linux","","null","null","","<p style=""font-size: 48px;"">+</p>","4","Filler","",""
"","","","","","picture","11065","image-keyboard-response","198","377564","0.0-6.0-3.40","83","4","2022-11-17 12:26:06","fd252370c17a9971d68c1d4354a03c2e","","Mozilla/5.0 (X11; Linux x86_64; rv:106.0) Gecko/20100101 Firefox/106.0","","Firefox","106.0","Linux","","2000","s","","sponge.jpg","4","Filler","true",""
"","","","","","fixation","11065","html-keyboard-response","199","378577","0.0-6.0-0.41","83","4","2022-11-17 12:26:06","fd252370c17a9971d68c1d4354a03c2e","","Mozilla/5.0 (X11; Linux x86_64; rv:106.0) Gecko/20100101 Firefox/106.0","","Firefox","106.0","Linux","","null","null","","<p style=""font-size: 48px;"">+</p>","4","Light-Matched","",""
"","","","","","sentence","11065","html-keyboard-response","200","381250","0.0-6.0-1.41","83","4","2022-11-17 12:26:06","fd252370c17a9971d68c1d4354a03c2e","","Mozilla/5.0 (X11; Linux x86_64; rv:106.0) Gecko/20100101 Firefox/106.0","","Firefox","106.0","Linux","","2658"," ","","A balloon dropped and touched glasses","4","Light-Matched","",""
"","","","","","fixation","11065","html-keyboard-response","201","381763","0.0-6.0-2.41","83","4","2022-11-17 12:26:06","fd252370c17a9971d68c1d4354a03c2e","","Mozilla/5.0 (X11; Linux x86_64; rv:106.0) Gecko/20100101 Firefox/106.0","","Firefox","106.0","Linux","","null","null","","<p style=""font-size: 48px;"">+</p>","4","Light-Matched","",""
"","","","","","picture","11065","image-keyboard-response","202","383058","0.0-6.0-3.41","83","4","2022-11-17 12:26:06","fd252370c17a9971d68c1d4354a03c2e","","Mozilla/5.0 (X11; Linux x86_64; rv:106.0) Gecko/20100101 Firefox/106.0","","Firefox","106.0","Linux","","1271","s","","glassesS.jpg","4","Light-Matched","true",""
"","","","","","fixation","11065","html-keyboard-response","203","384072","0.0-6.0-0.42","83","4","2022-11-17 12:26:06","fd252370c17a9971d68c1d4354a03c2e","","Mozilla/5.0 (X11; Linux x86_64; rv:106.0) Gecko/20100101 Firefox/106.0","","Firefox","106.0","Linux","","null","null","","<p style=""font-size: 48px;"">+</p>","4","Heavy-Matched","",""
"","","","","","sentence","11065","html-keyboard-response","204","386866","0.0-6.0-1.42","83","4","2022-11-17 12:26:06","fd252370c17a9971d68c1d4354a03c2e","","Mozilla/5.0 (X11; Linux x86_64; rv:106.0) Gecko/20100101 Firefox/106.0","","Firefox","106.0","Linux","","2780"," ","","A bowling ball  dropped and smashed a ceramic plate","4","Heavy-Matched","",""
"","","","","","fixation","11065","html-keyboard-response","205","387382","0.0-6.0-2.42","83","4","2022-11-17 12:26:06","fd252370c17a9971d68c1d4354a03c2e","","Mozilla/5.0 (X11; Linux x86_64; rv:106.0) Gecko/20100101 Firefox/106.0","","Firefox","106.0","Linux","","null","null","","<p style=""font-size: 48px;"">+</p>","4","Heavy-Matched","",""
"","","","","","picture","11065","image-keyboard-response","206","388673","0.0-6.0-3.42","83","4","2022-11-17 12:26:06","fd252370c17a9971d68c1d4354a03c2e","","Mozilla/5.0 (X11; Linux x86_64; rv:106.0) Gecko/20100101 Firefox/106.0","","Firefox","106.0","Linux","","1264","s","","plateS.jpg","4","Heavy-Matched","true",""
"","","","","","fixation","11065","html-keyboard-response","207","389688","0.0-6.0-0.43","83","4","2022-11-17 12:26:06","fd252370c17a9971d68c1d4354a03c2e","","Mozilla/5.0 (X11; Linux x86_64; rv:106.0) Gecko/20100101 Firefox/106.0","","Firefox","106.0","Linux","","null","null","","<p style=""font-size: 48px;"">+</p>","4","Filler","",""
"","","","","","sentence","11065","html-keyboard-response","208","391766","0.0-6.0-1.43","83","4","2022-11-17 12:26:06","fd252370c17a9971d68c1d4354a03c2e","","Mozilla/5.0 (X11; Linux x86_64; rv:106.0) Gecko/20100101 Firefox/106.0","","Firefox","106.0","Linux","","2063"," ","","A parrot is eating an apple","4","Filler","",""
"","","","","","fixation","11065","html-keyboard-response","209","392283","0.0-6.0-2.43","83","4","2022-11-17 12:26:06","fd252370c17a9971d68c1d4354a03c2e","","Mozilla/5.0 (X11; Linux x86_64; rv:106.0) Gecko/20100101 Firefox/106.0","","Firefox","106.0","Linux","","null","null","","<p style=""font-size: 48px;"">+</p>","4","Filler","",""
"","","","","","picture","11065","image-keyboard-response","210","393144","0.0-6.0-3.43","83","4","2022-11-17 12:26:06","fd252370c17a9971d68c1d4354a03c2e","","Mozilla/5.0 (X11; Linux x86_64; rv:106.0) Gecko/20100101 Firefox/106.0","","Firefox","106.0","Linux","","827","n","","shirt.jpg","4","Filler","true",""
"","","","","","fixation","11065","html-keyboard-response","211","394166","0.0-6.0-0.44","83","4","2022-11-17 12:26:06","fd252370c17a9971d68c1d4354a03c2e","","Mozilla/5.0 (X11; Linux x86_64; rv:106.0) Gecko/20100101 Firefox/106.0","","Firefox","106.0","Linux","","null","null","","<p style=""font-size: 48px;"">+</p>","4","Filler","",""
"","","","","","sentence","11065","html-keyboard-response","212","397185","0.0-6.0-1.44","83","4","2022-11-17 12:26:06","fd252370c17a9971d68c1d4354a03c2e","","Mozilla/5.0 (X11; Linux x86_64; rv:106.0) Gecko/20100101 Firefox/106.0","","Firefox","106.0","Linux","","3003"," ","","A student is writing on a board","4","Filler","",""
"","","","","","fixation","11065","html-keyboard-response","213","397710","0.0-6.0-2.44","83","4","2022-11-17 12:26:06","fd252370c17a9971d68c1d4354a03c2e","","Mozilla/5.0 (X11; Linux x86_64; rv:106.0) Gecko/20100101 Firefox/106.0","","Firefox","106.0","Linux","","null","null","","<p style=""font-size: 48px;"">+</p>","4","Filler","",""
"","","","","","picture","11065","image-keyboard-response","214","399155","0.0-6.0-3.44","83","4","2022-11-17 12:26:06","fd252370c17a9971d68c1d4354a03c2e","","Mozilla/5.0 (X11; Linux x86_64; rv:106.0) Gecko/20100101 Firefox/106.0","","Firefox","106.0","Linux","","1417","n","","owl.jpg","4","Filler","true",""
"","","","","","fixation","11065","html-keyboard-response","215","400178","0.0-6.0-0.45","83","4","2022-11-17 12:26:06","fd252370c17a9971d68c1d4354a03c2e","","Mozilla/5.0 (X11; Linux x86_64; rv:106.0) Gecko/20100101 Firefox/106.0","","Firefox","106.0","Linux","","null","null","","<p style=""font-size: 48px;"">+</p>","4","Filler","",""
"","","","","","sentence","11065","html-keyboard-response","216","401900","0.0-6.0-1.45","83","4","2022-11-17 12:26:06","fd252370c17a9971d68c1d4354a03c2e","","Mozilla/5.0 (X11; Linux x86_64; rv:106.0) Gecko/20100101 Firefox/106.0","","Firefox","106.0","Linux","","1699"," ","","A boy is wearing a hat","4","Filler","",""
"","","","","","fixation","11065","html-keyboard-response","217","402412","0.0-6.0-2.45","83","4","2022-11-17 12:26:06","fd252370c17a9971d68c1d4354a03c2e","","Mozilla/5.0 (X11; Linux x86_64; rv:106.0) Gecko/20100101 Firefox/106.0","","Firefox","106.0","Linux","","null","null","","<p style=""font-size: 48px;"">+</p>","4","Filler","",""
"","","","","","picture","11065","image-keyboard-response","218","403535","0.0-6.0-3.45","83","4","2022-11-17 12:26:06","fd252370c17a9971d68c1d4354a03c2e","","Mozilla/5.0 (X11; Linux x86_64; rv:106.0) Gecko/20100101 Firefox/106.0","","Firefox","106.0","Linux","","1099","s","","hat.jpg","4","Filler","true",""
"","","","","","fixation","11065","html-keyboard-response","219","404551","0.0-6.0-0.46","83","4","2022-11-17 12:26:06","fd252370c17a9971d68c1d4354a03c2e","","Mozilla/5.0 (X11; Linux x86_64; rv:106.0) Gecko/20100101 Firefox/106.0","","Firefox","106.0","Linux","","null","null","","<p style=""font-size: 48px;"">+</p>","4","Filler","",""
"","","","","","sentence","11065","html-keyboard-response","220","406490","0.0-6.0-1.46","83","4","2022-11-17 12:26:06","fd252370c17a9971d68c1d4354a03c2e","","Mozilla/5.0 (X11; Linux x86_64; rv:106.0) Gecko/20100101 Firefox/106.0","","Firefox","106.0","Linux","","1923"," ","","A man is boiling potatoes.","4","Filler","",""
"","","","","","fixation","11065","html-keyboard-response","221","407004","0.0-6.0-2.46","83","4","2022-11-17 12:26:06","fd252370c17a9971d68c1d4354a03c2e","","Mozilla/5.0 (X11; Linux x86_64; rv:106.0) Gecko/20100101 Firefox/106.0","","Firefox","106.0","Linux","","null","null","","<p style=""font-size: 48px;"">+</p>","4","Filler","",""
"","","","","","picture","11065","image-keyboard-response","222","409545","0.0-6.0-3.46","83","4","2022-11-17 12:26:06","fd252370c17a9971d68c1d4354a03c2e","","Mozilla/5.0 (X11; Linux x86_64; rv:106.0) Gecko/20100101 Firefox/106.0","","Firefox","106.0","Linux","","2521","n","","cup.jpg","4","Filler","true",""
"","","","","","fixation","11065","html-keyboard-response","223","410561","0.0-6.0-0.47","83","4","2022-11-17 12:26:06","fd252370c17a9971d68c1d4354a03c2e","","Mozilla/5.0 (X11; Linux x86_64; rv:106.0) Gecko/20100101 Firefox/106.0","","Firefox","106.0","Linux","","null","null","","<p style=""font-size: 48px;"">+</p>","4","Filler","",""
"","","","","","sentence","11065","html-keyboard-response","224","412908","0.0-6.0-1.47","83","4","2022-11-17 12:26:06","fd252370c17a9971d68c1d4354a03c2e","","Mozilla/5.0 (X11; Linux x86_64; rv:106.0) Gecko/20100101 Firefox/106.0","","Firefox","106.0","Linux","","2333"," ","","A zebra is playing with a horse","4","Filler","",""
"","","","","","fixation","11065","html-keyboard-response","225","413424","0.0-6.0-2.47","83","4","2022-11-17 12:26:06","fd252370c17a9971d68c1d4354a03c2e","","Mozilla/5.0 (X11; Linux x86_64; rv:106.0) Gecko/20100101 Firefox/106.0","","Firefox","106.0","Linux","","null","null","","<p style=""font-size: 48px;"">+</p>","4","Filler","",""
"","","","","","picture","11065","image-keyboard-response","226","414651","0.0-6.0-3.47","83","4","2022-11-17 12:26:06","fd252370c17a9971d68c1d4354a03c2e","","Mozilla/5.0 (X11; Linux x86_64; rv:106.0) Gecko/20100101 Firefox/106.0","","Firefox","106.0","Linux","","1203","n","","watch.jpg","4","Filler","true",""
"","","","","","fixation","11065","html-keyboard-response","227","415667","0.0-6.0-0.48","83","4","2022-11-17 12:26:06","fd252370c17a9971d68c1d4354a03c2e","","Mozilla/5.0 (X11; Linux x86_64; rv:106.0) Gecko/20100101 Firefox/106.0","","Firefox","106.0","Linux","","null","null","","<p style=""font-size: 48px;"">+</p>","4","Heavy-Matched","",""
"","","","","","sentence","11065","html-keyboard-response","228","417664","0.0-6.0-1.48","83","4","2022-11-17 12:26:06","fd252370c17a9971d68c1d4354a03c2e","","Mozilla/5.0 (X11; Linux x86_64; rv:106.0) Gecko/20100101 Firefox/106.0","","Firefox","106.0","Linux","","1979"," ","","A bowling ball  dropped and smashed a vase","4","Heavy-Matched","",""
"","","","","","fixation","11065","html-keyboard-response","229","418177","0.0-6.0-2.48","83","4","2022-11-17 12:26:06","fd252370c17a9971d68c1d4354a03c2e","","Mozilla/5.0 (X11; Linux x86_64; rv:106.0) Gecko/20100101 Firefox/106.0","","Firefox","106.0","Linux","","null","null","","<p style=""font-size: 48px;"">+</p>","4","Heavy-Matched","",""
"","","","","","picture","11065","image-keyboard-response","230","420123","0.0-6.0-3.48","83","4","2022-11-17 12:26:06","fd252370c17a9971d68c1d4354a03c2e","","Mozilla/5.0 (X11; Linux x86_64; rv:106.0) Gecko/20100101 Firefox/106.0","","Firefox","106.0","Linux","","1923","s","","vaseS.jpg","4","Heavy-Matched","true",""
"","","","","","fixation","11065","html-keyboard-response","231","421135","0.0-6.0-0.49","83","4","2022-11-17 12:26:06","fd252370c17a9971d68c1d4354a03c2e","","Mozilla/5.0 (X11; Linux x86_64; rv:106.0) Gecko/20100101 Firefox/106.0","","Firefox","106.0","Linux","","null","null","","<p style=""font-size: 48px;"">+</p>","4","Filler","",""
"","","","","","sentence","11065","html-keyboard-response","232","423842","0.0-6.0-1.49","83","4","2022-11-17 12:26:06","fd252370c17a9971d68c1d4354a03c2e","","Mozilla/5.0 (X11; Linux x86_64; rv:106.0) Gecko/20100101 Firefox/106.0","","Firefox","106.0","Linux","","2688"," ","","A ring was placed on the newspaper","4","Filler","",""
"","","","","","fixation","11065","html-keyboard-response","233","424359","0.0-6.0-2.49","83","4","2022-11-17 12:26:06","fd252370c17a9971d68c1d4354a03c2e","","Mozilla/5.0 (X11; Linux x86_64; rv:106.0) Gecko/20100101 Firefox/106.0","","Firefox","106.0","Linux","","null","null","","<p style=""font-size: 48px;"">+</p>","4","Filler","",""
"","","","","","picture","11065","image-keyboard-response","234","425677","0.0-6.0-3.49","83","4","2022-11-17 12:26:06","fd252370c17a9971d68c1d4354a03c2e","","Mozilla/5.0 (X11; Linux x86_64; rv:106.0) Gecko/20100101 Firefox/106.0","","Firefox","106.0","Linux","","1293","n","","cat.jpg","4","Filler","true",""
"","","","","","fixation","11065","html-keyboard-response","235","426692","0.0-6.0-0.50","83","4","2022-11-17 12:26:06","fd252370c17a9971d68c1d4354a03c2e","","Mozilla/5.0 (X11; Linux x86_64; rv:106.0) Gecko/20100101 Firefox/106.0","","Firefox","106.0","Linux","","null","null","","<p style=""font-size: 48px;"">+</p>","4","Filler","",""
"","","","","","sentence","11065","html-keyboard-response","236","428597","0.0-6.0-1.50","83","4","2022-11-17 12:26:06","fd252370c17a9971d68c1d4354a03c2e","","Mozilla/5.0 (X11; Linux x86_64; rv:106.0) Gecko/20100101 Firefox/106.0","","Firefox","106.0","Linux","","1887"," ","","A thermometer was placed on the box","4","Filler","",""
"","","","","","fixation","11065","html-keyboard-response","237","429111","0.0-6.0-2.50","83","4","2022-11-17 12:26:06","fd252370c17a9971d68c1d4354a03c2e","","Mozilla/5.0 (X11; Linux x86_64; rv:106.0) Gecko/20100101 Firefox/106.0","","Firefox","106.0","Linux","","null","null","","<p style=""font-size: 48px;"">+</p>","4","Filler","",""
"","","","","","picture","11065","image-keyboard-response","238","430587","0.0-6.0-3.50","83","4","2022-11-17 12:26:06","fd252370c17a9971d68c1d4354a03c2e","","Mozilla/5.0 (X11; Linux x86_64; rv:106.0) Gecko/20100101 Firefox/106.0","","Firefox","106.0","Linux","","1452","n","","button.jpg","4","Filler","true",""
"","","","","","fixation","11065","html-keyboard-response","239","431601","0.0-6.0-0.51","83","4","2022-11-17 12:26:06","fd252370c17a9971d68c1d4354a03c2e","","Mozilla/5.0 (X11; Linux x86_64; rv:106.0) Gecko/20100101 Firefox/106.0","","Firefox","106.0","Linux","","null","null","","<p style=""font-size: 48px;"">+</p>","4","Heavy-Contradictory","",""
"","","","","","sentence","11065","html-keyboard-response","240","433598","0.0-6.0-1.51","83","4","2022-11-17 12:26:06","fd252370c17a9971d68c1d4354a03c2e","","Mozilla/5.0 (X11; Linux x86_64; rv:106.0) Gecko/20100101 Firefox/106.0","","Firefox","106.0","Linux","","1975"," ","","A bowling ball dropped and touched an egg","4","Heavy-Contradictory","",""
"","","","","","fixation","11065","html-keyboard-response","241","434115","0.0-6.0-2.51","83","4","2022-11-17 12:26:06","fd252370c17a9971d68c1d4354a03c2e","","Mozilla/5.0 (X11; Linux x86_64; rv:106.0) Gecko/20100101 Firefox/106.0","","Firefox","106.0","Linux","","null","null","","<p style=""font-size: 48px;"">+</p>","4","Heavy-Contradictory","",""
"","","","","","picture","11065","image-keyboard-response","242","435024","0.0-6.0-3.51","83","4","2022-11-17 12:26:06","fd252370c17a9971d68c1d4354a03c2e","","Mozilla/5.0 (X11; Linux x86_64; rv:106.0) Gecko/20100101 Firefox/106.0","","Firefox","106.0","Linux","","883","s","","eggS.jpg","4","Heavy-Contradictory","true",""
"","","","","","fixation","11065","html-keyboard-response","243","436040","0.0-6.0-0.52","83","4","2022-11-17 12:26:06","fd252370c17a9971d68c1d4354a03c2e","","Mozilla/5.0 (X11; Linux x86_64; rv:106.0) Gecko/20100101 Firefox/106.0","","Firefox","106.0","Linux","","null","null","","<p style=""font-size: 48px;"">+</p>","4","Filler","",""
"","","","","","sentence","11065","html-keyboard-response","244","437371","0.0-6.0-1.52","83","4","2022-11-17 12:26:06","fd252370c17a9971d68c1d4354a03c2e","","Mozilla/5.0 (X11; Linux x86_64; rv:106.0) Gecko/20100101 Firefox/106.0","","Firefox","106.0","Linux","","1314"," ","","A donkey is drinking water.","4","Filler","",""
"","","","","","fixation","11065","html-keyboard-response","245","437885","0.0-6.0-2.52","83","4","2022-11-17 12:26:06","fd252370c17a9971d68c1d4354a03c2e","","Mozilla/5.0 (X11; Linux x86_64; rv:106.0) Gecko/20100101 Firefox/106.0","","Firefox","106.0","Linux","","null","null","","<p style=""font-size: 48px;"">+</p>","4","Filler","",""
"","","","","","picture","11065","image-keyboard-response","246","439432","0.0-6.0-3.52","83","4","2022-11-17 12:26:06","fd252370c17a9971d68c1d4354a03c2e","","Mozilla/5.0 (X11; Linux x86_64; rv:106.0) Gecko/20100101 Firefox/106.0","","Firefox","106.0","Linux","","1525","n","","couch.jpg","4","Filler","true",""
"","","","","","fixation","11065","html-keyboard-response","247","440447","0.0-6.0-0.53","83","4","2022-11-17 12:26:06","fd252370c17a9971d68c1d4354a03c2e","","Mozilla/5.0 (X11; Linux x86_64; rv:106.0) Gecko/20100101 Firefox/106.0","","Firefox","106.0","Linux","","null","null","","<p style=""font-size: 48px;"">+</p>","4","Filler","",""
"","","","","","sentence","11065","html-keyboard-response","248","442633","0.0-6.0-1.53","83","4","2022-11-17 12:26:06","fd252370c17a9971d68c1d4354a03c2e","","Mozilla/5.0 (X11; Linux x86_64; rv:106.0) Gecko/20100101 Firefox/106.0","","Firefox","106.0","Linux","","2168"," ","","A watch was placed on the laptop","4","Filler","",""
"","","","","","fixation","11065","html-keyboard-response","249","443148","0.0-6.0-2.53","83","4","2022-11-17 12:26:06","fd252370c17a9971d68c1d4354a03c2e","","Mozilla/5.0 (X11; Linux x86_64; rv:106.0) Gecko/20100101 Firefox/106.0","","Firefox","106.0","Linux","","null","null","","<p style=""font-size: 48px;"">+</p>","4","Filler","",""
"","","","","","picture","11065","image-keyboard-response","250","444784","0.0-6.0-3.53","83","4","2022-11-17 12:26:06","fd252370c17a9971d68c1d4354a03c2e","","Mozilla/5.0 (X11; Linux x86_64; rv:106.0) Gecko/20100101 Firefox/106.0","","Firefox","106.0","Linux","","1615","n","","bow.jpg","4","Filler","true",""
"","","","","","fixation","11065","html-keyboard-response","251","445800","0.0-6.0-0.54","83","4","2022-11-17 12:26:06","fd252370c17a9971d68c1d4354a03c2e","","Mozilla/5.0 (X11; Linux x86_64; rv:106.0) Gecko/20100101 Firefox/106.0","","Firefox","106.0","Linux","","null","null","","<p style=""font-size: 48px;"">+</p>","4","Light-Contradictory","",""
"","","","","","sentence","11065","html-keyboard-response","252","448251","0.0-6.0-1.54","83","4","2022-11-17 12:26:06","fd252370c17a9971d68c1d4354a03c2e","","Mozilla/5.0 (X11; Linux x86_64; rv:106.0) Gecko/20100101 Firefox/106.0","","Firefox","106.0","Linux","","2432"," ","","A balloon dropped and smashed an iPhone","4","Light-Contradictory","",""
"","","","","","fixation","11065","html-keyboard-response","253","448769","0.0-6.0-2.54","83","4","2022-11-17 12:26:06","fd252370c17a9971d68c1d4354a03c2e","","Mozilla/5.0 (X11; Linux x86_64; rv:106.0) Gecko/20100101 Firefox/106.0","","Firefox","106.0","Linux","","null","null","","<p style=""font-size: 48px;"">+</p>","4","Light-Contradictory","",""
"","","","","","picture","11065","image-keyboard-response","254","449687","0.0-6.0-3.54","83","4","2022-11-17 12:26:06","fd252370c17a9971d68c1d4354a03c2e","","Mozilla/5.0 (X11; Linux x86_64; rv:106.0) Gecko/20100101 Firefox/106.0","","Firefox","106.0","Linux","","890","s","","iphoneS.png","4","Light-Contradictory","true",""
"","","","","","fixation","11065","html-keyboard-response","255","450705","0.0-6.0-0.55","83","4","2022-11-17 12:26:06","fd252370c17a9971d68c1d4354a03c2e","","Mozilla/5.0 (X11; Linux x86_64; rv:106.0) Gecko/20100101 Firefox/106.0","","Firefox","106.0","Linux","","null","null","","<p style=""font-size: 48px;"">+</p>","4","Filler","",""
"","","","","","sentence","11065","html-keyboard-response","256","452958","0.0-6.0-1.55","83","4","2022-11-17 12:26:06","fd252370c17a9971d68c1d4354a03c2e","","Mozilla/5.0 (X11; Linux x86_64; rv:106.0) Gecko/20100101 Firefox/106.0","","Firefox","106.0","Linux","","2233"," ","","A nurse is taking a syringe","4","Filler","",""
"","","","","","fixation","11065","html-keyboard-response","257","453474","0.0-6.0-2.55","83","4","2022-11-17 12:26:06","fd252370c17a9971d68c1d4354a03c2e","","Mozilla/5.0 (X11; Linux x86_64; rv:106.0) Gecko/20100101 Firefox/106.0","","Firefox","106.0","Linux","","null","null","","<p style=""font-size: 48px;"">+</p>","4","Filler","",""
"","","","","","picture","11065","image-keyboard-response","258","455205","0.0-6.0-3.55","83","4","2022-11-17 12:26:06","fd252370c17a9971d68c1d4354a03c2e","","Mozilla/5.0 (X11; Linux x86_64; rv:106.0) Gecko/20100101 Firefox/106.0","","Firefox","106.0","Linux","","1708","n","","headphones.jpg","4","Filler","true",""
"","","","","","fixation","11065","html-keyboard-response","259","456222","0.0-6.0-0.56","83","4","2022-11-17 12:26:06","fd252370c17a9971d68c1d4354a03c2e","","Mozilla/5.0 (X11; Linux x86_64; rv:106.0) Gecko/20100101 Firefox/106.0","","Firefox","106.0","Linux","","null","null","","<p style=""font-size: 48px;"">+</p>","4","Filler","",""
"","","","","","sentence","11065","html-keyboard-response","260","458059","0.0-6.0-1.56","83","4","2022-11-17 12:26:06","fd252370c17a9971d68c1d4354a03c2e","","Mozilla/5.0 (X11; Linux x86_64; rv:106.0) Gecko/20100101 Firefox/106.0","","Firefox","106.0","Linux","","1812"," ","","A keyboard was placed on the bed","4","Filler","",""
"","","","","","fixation","11065","html-keyboard-response","261","458585","0.0-6.0-2.56","83","4","2022-11-17 12:26:06","fd252370c17a9971d68c1d4354a03c2e","","Mozilla/5.0 (X11; Linux x86_64; rv:106.0) Gecko/20100101 Firefox/106.0","","Firefox","106.0","Linux","","null","null","","<p style=""font-size: 48px;"">+</p>","4","Filler","",""
"","","","","","picture","11065","image-keyboard-response","262","461254","0.0-6.0-3.56","83","4","2022-11-17 12:26:06","fd252370c17a9971d68c1d4354a03c2e","","Mozilla/5.0 (X11; Linux x86_64; rv:106.0) Gecko/20100101 Firefox/106.0","","Firefox","106.0","Linux","","2642","n","","bottlecap.jpg","4","Filler","true",""
"","","","","","fixation","11065","html-keyboard-response","263","462281","0.0-6.0-0.57","83","4","2022-11-17 12:26:06","fd252370c17a9971d68c1d4354a03c2e","","Mozilla/5.0 (X11; Linux x86_64; rv:106.0) Gecko/20100101 Firefox/106.0","","Firefox","106.0","Linux","","null","null","","<p style=""font-size: 48px;"">+</p>","4","Filler","",""
"","","","","","sentence","11065","html-keyboard-response","264","465590","0.0-6.0-1.57","83","4","2022-11-17 12:26:06","fd252370c17a9971d68c1d4354a03c2e","","Mozilla/5.0 (X11; Linux x86_64; rv:106.0) Gecko/20100101 Firefox/106.0","","Firefox","106.0","Linux","","3287"," ","","A president is writing in the notebook","4","Filler","",""
"","","","","","fixation","11065","html-keyboard-response","265","466107","0.0-6.0-2.57","83","4","2022-11-17 12:26:06","fd252370c17a9971d68c1d4354a03c2e","","Mozilla/5.0 (X11; Linux x86_64; rv:106.0) Gecko/20100101 Firefox/106.0","","Firefox","106.0","Linux","","null","null","","<p style=""font-size: 48px;"">+</p>","4","Filler","",""
"","","","","","picture","11065","image-keyboard-response","266","467292","0.0-6.0-3.57","83","4","2022-11-17 12:26:06","fd252370c17a9971d68c1d4354a03c2e","","Mozilla/5.0 (X11; Linux x86_64; rv:106.0) Gecko/20100101 Firefox/106.0","","Firefox","106.0","Linux","","1157","n","","can.jpg","4","Filler","true",""
"","","","","","fixation","11065","html-keyboard-response","267","468309","0.0-6.0-0.58","83","4","2022-11-17 12:26:06","fd252370c17a9971d68c1d4354a03c2e","","Mozilla/5.0 (X11; Linux x86_64; rv:106.0) Gecko/20100101 Firefox/106.0","","Firefox","106.0","Linux","","null","null","","<p style=""font-size: 48px;"">+</p>","4","Filler","",""
"","","","","","sentence","11065","html-keyboard-response","268","470352","0.0-6.0-1.58","83","4","2022-11-17 12:26:06","fd252370c17a9971d68c1d4354a03c2e","","Mozilla/5.0 (X11; Linux x86_64; rv:106.0) Gecko/20100101 Firefox/106.0","","Firefox","106.0","Linux","","2018"," ","","A remote was placed on the rug","4","Filler","",""
"","","","","","fixation","11065","html-keyboard-response","269","470868","0.0-6.0-2.58","83","4","2022-11-17 12:26:06","fd252370c17a9971d68c1d4354a03c2e","","Mozilla/5.0 (X11; Linux x86_64; rv:106.0) Gecko/20100101 Firefox/106.0","","Firefox","106.0","Linux","","null","null","","<p style=""font-size: 48px;"">+</p>","4","Filler","",""
"","","","","","picture","11065","image-keyboard-response","270","472179","0.0-6.0-3.58","83","4","2022-11-17 12:26:06","fd252370c17a9971d68c1d4354a03c2e","","Mozilla/5.0 (X11; Linux x86_64; rv:106.0) Gecko/20100101 Firefox/106.0","","Firefox","106.0","Linux","","1287","n","","CD.jpg","4","Filler","true",""
"","","","","","fixation","11065","html-keyboard-response","271","473197","0.0-6.0-0.59","83","4","2022-11-17 12:26:06","fd252370c17a9971d68c1d4354a03c2e","","Mozilla/5.0 (X11; Linux x86_64; rv:106.0) Gecko/20100101 Firefox/106.0","","Firefox","106.0","Linux","","null","null","","<p style=""font-size: 48px;"">+</p>","4","Filler","",""
"","","","","","sentence","11065","html-keyboard-response","272","475433","0.0-6.0-1.59","83","4","2022-11-17 12:26:06","fd252370c17a9971d68c1d4354a03c2e","","Mozilla/5.0 (X11; Linux x86_64; rv:106.0) Gecko/20100101 Firefox/106.0","","Firefox","106.0","Linux","","2214"," ","","A cook is taking a knife","4","Filler","",""
"","","","","","fixation","11065","html-keyboard-response","273","475951","0.0-6.0-2.59","83","4","2022-11-17 12:26:06","fd252370c17a9971d68c1d4354a03c2e","","Mozilla/5.0 (X11; Linux x86_64; rv:106.0) Gecko/20100101 Firefox/106.0","","Firefox","106.0","Linux","","null","null","","<p style=""font-size: 48px;"">+</p>","4","Filler","",""
"","","","","","picture","11065","image-keyboard-response","274","477099","0.0-6.0-3.59","83","4","2022-11-17 12:26:06","fd252370c17a9971d68c1d4354a03c2e","","Mozilla/5.0 (X11; Linux x86_64; rv:106.0) Gecko/20100101 Firefox/106.0","","Firefox","106.0","Linux","","1125","s","","knife.jpg","4","Filler","true",""
"","","","","","fixation","11065","html-keyboard-response","275","478117","0.0-6.0-0.60","83","4","2022-11-17 12:26:06","fd252370c17a9971d68c1d4354a03c2e","","Mozilla/5.0 (X11; Linux x86_64; rv:106.0) Gecko/20100101 Firefox/106.0","","Firefox","106.0","Linux","","null","null","","<p style=""font-size: 48px;"">+</p>","4","Filler","",""
"","","","","","sentence","11065","html-keyboard-response","276","480793","0.0-6.0-1.60","83","4","2022-11-17 12:26:06","fd252370c17a9971d68c1d4354a03c2e","","Mozilla/5.0 (X11; Linux x86_64; rv:106.0) Gecko/20100101 Firefox/106.0","","Firefox","106.0","Linux","","2655"," ","","A photographer is taking a photo of a lion","4","Filler","",""
"","","","","","fixation","11065","html-keyboard-response","277","481309","0.0-6.0-2.60","83","4","2022-11-17 12:26:06","fd252370c17a9971d68c1d4354a03c2e","","Mozilla/5.0 (X11; Linux x86_64; rv:106.0) Gecko/20100101 Firefox/106.0","","Firefox","106.0","Linux","","null","null","","<p style=""font-size: 48px;"">+</p>","4","Filler","",""
"","","","","","picture","11065","image-keyboard-response","278","482608","0.0-6.0-3.60","83","4","2022-11-17 12:26:06","fd252370c17a9971d68c1d4354a03c2e","","Mozilla/5.0 (X11; Linux x86_64; rv:106.0) Gecko/20100101 Firefox/106.0","","Firefox","106.0","Linux","","1272","s","","lion.jpg","4","Filler","true",""
"","","","","","fixation","11065","html-keyboard-response","279","483625","0.0-6.0-0.61","83","4","2022-11-17 12:26:06","fd252370c17a9971d68c1d4354a03c2e","","Mozilla/5.0 (X11; Linux x86_64; rv:106.0) Gecko/20100101 Firefox/106.0","","Firefox","106.0","Linux","","null","null","","<p style=""font-size: 48px;"">+</p>","4","Filler","",""
"","","","","","sentence","11065","html-keyboard-response","280","485149","0.0-6.0-1.61","83","4","2022-11-17 12:26:06","fd252370c17a9971d68c1d4354a03c2e","","Mozilla/5.0 (X11; Linux x86_64; rv:106.0) Gecko/20100101 Firefox/106.0","","Firefox","106.0","Linux","","1500"," ","","A hairdresser is taking scissors","4","Filler","",""
"","","","","","fixation","11065","html-keyboard-response","281","485667","0.0-6.0-2.61","83","4","2022-11-17 12:26:06","fd252370c17a9971d68c1d4354a03c2e","","Mozilla/5.0 (X11; Linux x86_64; rv:106.0) Gecko/20100101 Firefox/106.0","","Firefox","106.0","Linux","","null","null","","<p style=""font-size: 48px;"">+</p>","4","Filler","",""
"","","","","","picture","11065","image-keyboard-response","282","486891","0.0-6.0-3.61","83","4","2022-11-17 12:26:06","fd252370c17a9971d68c1d4354a03c2e","","Mozilla/5.0 (X11; Linux x86_64; rv:106.0) Gecko/20100101 Firefox/106.0","","Firefox","106.0","Linux","","1200","n","","sock.jpg","4","Filler","true",""
"","","","","","fixation","11065","html-keyboard-response","283","487910","0.0-6.0-0.62","83","4","2022-11-17 12:26:06","fd252370c17a9971d68c1d4354a03c2e","","Mozilla/5.0 (X11; Linux x86_64; rv:106.0) Gecko/20100101 Firefox/106.0","","Firefox","106.0","Linux","","null","null","","<p style=""font-size: 48px;"">+</p>","4","Filler","",""
"","","","","","sentence","11065","html-keyboard-response","284","490079","0.0-6.0-1.62","83","4","2022-11-17 12:26:06","fd252370c17a9971d68c1d4354a03c2e","","Mozilla/5.0 (X11; Linux x86_64; rv:106.0) Gecko/20100101 Firefox/106.0","","Firefox","106.0","Linux","","2152"," ","","An elephant is eating a watermelon","4","Filler","",""
"","","","","","fixation","11065","html-keyboard-response","285","490598","0.0-6.0-2.62","83","4","2022-11-17 12:26:06","fd252370c17a9971d68c1d4354a03c2e","","Mozilla/5.0 (X11; Linux x86_64; rv:106.0) Gecko/20100101 Firefox/106.0","","Firefox","106.0","Linux","","null","null","","<p style=""font-size: 48px;"">+</p>","4","Filler","",""
"","","","","","picture","11065","image-keyboard-response","286","491794","0.0-6.0-3.62","83","4","2022-11-17 12:26:06","fd252370c17a9971d68c1d4354a03c2e","","Mozilla/5.0 (X11; Linux x86_64; rv:106.0) Gecko/20100101 Firefox/106.0","","Firefox","106.0","Linux","","1169","s","","watermelon.jpg","4","Filler","true",""
"","","","","","fixation","11065","html-keyboard-response","287","492814","0.0-6.0-0.63","83","4","2022-11-17 12:26:06","fd252370c17a9971d68c1d4354a03c2e","","Mozilla/5.0 (X11; Linux x86_64; rv:106.0) Gecko/20100101 Firefox/106.0","","Firefox","106.0","Linux","","null","null","","<p style=""font-size: 48px;"">+</p>","4","Heavy-Contradictory","",""
"","","","","","sentence","11065","html-keyboard-response","288","494680","0.0-6.0-1.63","83","4","2022-11-17 12:26:06","fd252370c17a9971d68c1d4354a03c2e","","Mozilla/5.0 (X11; Linux x86_64; rv:106.0) Gecko/20100101 Firefox/106.0","","Firefox","106.0","Linux","","1844"," ","","A bowling ball dropped and touched a TV","4","Heavy-Contradictory","",""
"","","","","","fixation","11065","html-keyboard-response","289","495196","0.0-6.0-2.63","83","4","2022-11-17 12:26:06","fd252370c17a9971d68c1d4354a03c2e","","Mozilla/5.0 (X11; Linux x86_64; rv:106.0) Gecko/20100101 Firefox/106.0","","Firefox","106.0","Linux","","null","null","","<p style=""font-size: 48px;"">+</p>","4","Heavy-Contradictory","",""
"","","","","","picture","11065","image-keyboard-response","290","496188","0.0-6.0-3.63","83","4","2022-11-17 12:26:06","fd252370c17a9971d68c1d4354a03c2e","","Mozilla/5.0 (X11; Linux x86_64; rv:106.0) Gecko/20100101 Firefox/106.0","","Firefox","106.0","Linux","","968","s","","tvS.jpg","4","Heavy-Contradictory","true",""
