"success","timeout","failed_images","failed_audio","failed_video","typeoftrial","subject","trial_type","trial_index","time_elapsed","internal_node_id","run_id","condition","recorded_at","source_code_version","ip","user_agent","device","browser","browser_version","platform","platform_version","rt","response","Experiment","stimulus","list_number","trialcondition","correct","question_order"
"true","false","[]","[]","[]","preload","5564","preload","0","2986","0.0-0.0","1","3","2022-11-17 14:24:53","27f05a78553e1e210bb6d9ff2204662f","","Mozilla/5.0 (Windows NT 10.0; Win64; x64) AppleWebKit/537.36 (KHTML, like Gecko) Chrome/107.0.0.0 Safari/537.36","WebKit","Chrome","107.0.0.0","Windows","10.0","","","","","","","",""
"","","","","","ID","5564","survey-text","1","7095","0.0-1.0","1","3","2022-11-17 14:24:53","27f05a78553e1e210bb6d9ff2204662f","","Mozilla/5.0 (Windows NT 10.0; Win64; x64) AppleWebKit/537.36 (KHTML, like Gecko) Chrome/107.0.0.0 Safari/537.36","WebKit","Chrome","107.0.0.0","Windows","10.0","4098","{""ID"":""601a6c49e466342812c5bb2f""}","","","","","",""
"","","","","","instructions","5564","html-button-response","2","37328","0.0-2.0","1","3","2022-11-17 14:24:53","27f05a78553e1e210bb6d9ff2204662f","","Mozilla/5.0 (Windows NT 10.0; Win64; x64) AppleWebKit/537.36 (KHTML, like Gecko) Chrome/107.0.0.0 Safari/537.36","WebKit","Chrome","107.0.0.0","Windows","10.0","30230","0","","
                    <p style=""font-size:20px;""> Welcome to the experiment! </p>
                    <p style=""font-size:20px;""> In this experiment, you will be asked to make judgments about the content of different sentences.</p>
                    <p style=""font-size:20px;""> On each trial, you will read a sentence, and will be shown a picture immediately following the sentence. </p>
                    <p style=""font-size:20px;""> Your task is to decide whether the object displayed in the picture was mentioned in the sentence or not </p>
                    <p style=""font-size:20px;""> and respond as quickly as possible by pressing <strong>S</strong> for yes or <strong>N</strong> for no. </p>
                    <p style=""font-size:20px;""> You will now do a practice session with feedback and instructions. </p>
                    <p style=""font-size:20px;""> Click the button below to continue.</p>
                    ","","","",""
"","","","","","instructions","5564","html-button-response","3","65932","0.0-3.0","1","3","2022-11-17 14:24:53","27f05a78553e1e210bb6d9ff2204662f","","Mozilla/5.0 (Windows NT 10.0; Win64; x64) AppleWebKit/537.36 (KHTML, like Gecko) Chrome/107.0.0.0 Safari/537.36","WebKit","Chrome","107.0.0.0","Windows","10.0","28601","0","","
                    <p style=""font-size:20px;""> You are about to begin the practice test. </p>
                    <p style=""font-size:20px;""> On each trial, a sentence will appear on the screen. You should press SPACEBAR when you have read and understood the sentence.</p>
                    <p style=""font-size:20px;""> After you press SPACEBAR, a picture will appear on the screen. </p>
                    <p style=""font-size:20px;""> You need to indicate whether or not the pictured object was mentioned in the sentence. </p>
                    <p style=""font-size:20px;""> If the object WAS mentioned in the preceding sentence, you should press <strong>S</strong> </p>
                    <p style=""font-size:20px;""> If the object was NOT mentioned in the preceding sentence, you should press <strong>N</strong>. </p>
                    <p style=""font-size:20px;""> Click the button below to continue to the practice session.</p>
                    ","","","",""
"","","","","","fixation","5564","html-keyboard-response","4","66938","0.0-4.0-0.0","1","3","2022-11-17 14:24:53","27f05a78553e1e210bb6d9ff2204662f","","Mozilla/5.0 (Windows NT 10.0; Win64; x64) AppleWebKit/537.36 (KHTML, like Gecko) Chrome/107.0.0.0 Safari/537.36","WebKit","Chrome","107.0.0.0","Windows","10.0","null","null","","<p style=""font-size: 48px;"">+</p>","practice","practice_s","",""
"","","","","","sentence","5564","html-keyboard-response","5","70797","0.0-4.0-1.0","1","3","2022-11-17 14:24:53","27f05a78553e1e210bb6d9ff2204662f","","Mozilla/5.0 (Windows NT 10.0; Win64; x64) AppleWebKit/537.36 (KHTML, like Gecko) Chrome/107.0.0.0 Safari/537.36","WebKit","Chrome","107.0.0.0","Windows","10.0","3858"," ","","A balloon dropped and touched a cigarette","practice","practice_s","",""
"","","","","","fixation","5564","html-keyboard-response","6","71307","0.0-4.0-2.0","1","3","2022-11-17 14:24:53","27f05a78553e1e210bb6d9ff2204662f","","Mozilla/5.0 (Windows NT 10.0; Win64; x64) AppleWebKit/537.36 (KHTML, like Gecko) Chrome/107.0.0.0 Safari/537.36","WebKit","Chrome","107.0.0.0","Windows","10.0","null","null","","<p style=""font-size: 48px;"">+</p>","practice","practice_s","",""
"","","","","","picture","5564","image-keyboard-response","7","72580","0.0-4.0-3.0","1","3","2022-11-17 14:24:53","27f05a78553e1e210bb6d9ff2204662f","","Mozilla/5.0 (Windows NT 10.0; Win64; x64) AppleWebKit/537.36 (KHTML, like Gecko) Chrome/107.0.0.0 Safari/537.36","WebKit","Chrome","107.0.0.0","Windows","10.0","1250","s","","cigaretteB.jpg","practice","practice_s","true",""
"","","","","","","","html-keyboard-response","8","74587","0.0-4.0-4.0","1","3","2022-11-17 14:24:53","27f05a78553e1e210bb6d9ff2204662f","","Mozilla/5.0 (Windows NT 10.0; Win64; x64) AppleWebKit/537.36 (KHTML, like Gecko) Chrome/107.0.0.0 Safari/537.36","WebKit","Chrome","107.0.0.0","Windows","10.0","null","null","","CORRECT!","","","",""
"","","","","","fixation","5564","html-keyboard-response","9","75594","0.0-4.0-0.1","1","3","2022-11-17 14:24:53","27f05a78553e1e210bb6d9ff2204662f","","Mozilla/5.0 (Windows NT 10.0; Win64; x64) AppleWebKit/537.36 (KHTML, like Gecko) Chrome/107.0.0.0 Safari/537.36","WebKit","Chrome","107.0.0.0","Windows","10.0","null","null","","<p style=""font-size: 48px;"">+</p>","practice","practice_n","",""
"","","","","","sentence","5564","html-keyboard-response","10","78331","0.0-4.0-1.1","1","3","2022-11-17 14:24:53","27f05a78553e1e210bb6d9ff2204662f","","Mozilla/5.0 (Windows NT 10.0; Win64; x64) AppleWebKit/537.36 (KHTML, like Gecko) Chrome/107.0.0.0 Safari/537.36","WebKit","Chrome","107.0.0.0","Windows","10.0","2736"," ","","A balloon dropped and smashed a cup","practice","practice_n","",""
"","","","","","fixation","5564","html-keyboard-response","11","78835","0.0-4.0-2.1","1","3","2022-11-17 14:24:53","27f05a78553e1e210bb6d9ff2204662f","","Mozilla/5.0 (Windows NT 10.0; Win64; x64) AppleWebKit/537.36 (KHTML, like Gecko) Chrome/107.0.0.0 Safari/537.36","WebKit","Chrome","107.0.0.0","Windows","10.0","null","null","","<p style=""font-size: 48px;"">+</p>","practice","practice_n","",""
"","","","","","picture","5564","image-keyboard-response","12","79820","0.0-4.0-3.1","1","3","2022-11-17 14:24:53","27f05a78553e1e210bb6d9ff2204662f","","Mozilla/5.0 (Windows NT 10.0; Win64; x64) AppleWebKit/537.36 (KHTML, like Gecko) Chrome/107.0.0.0 Safari/537.36","WebKit","Chrome","107.0.0.0","Windows","10.0","982","n","","bananaB.jpg","practice","practice_n","true",""
"","","","","","","","html-keyboard-response","13","81827","0.0-4.0-4.1","1","3","2022-11-17 14:24:53","27f05a78553e1e210bb6d9ff2204662f","","Mozilla/5.0 (Windows NT 10.0; Win64; x64) AppleWebKit/537.36 (KHTML, like Gecko) Chrome/107.0.0.0 Safari/537.36","WebKit","Chrome","107.0.0.0","Windows","10.0","null","null","","CORRECT!","","","",""
"","","","","","fixation","5564","html-keyboard-response","14","82834","0.0-4.0-0.2","1","3","2022-11-17 14:24:53","27f05a78553e1e210bb6d9ff2204662f","","Mozilla/5.0 (Windows NT 10.0; Win64; x64) AppleWebKit/537.36 (KHTML, like Gecko) Chrome/107.0.0.0 Safari/537.36","WebKit","Chrome","107.0.0.0","Windows","10.0","null","null","","<p style=""font-size: 48px;"">+</p>","practice","practice_s","",""
"","","","","","sentence","5564","html-keyboard-response","15","84692","0.0-4.0-1.2","1","3","2022-11-17 14:24:53","27f05a78553e1e210bb6d9ff2204662f","","Mozilla/5.0 (Windows NT 10.0; Win64; x64) AppleWebKit/537.36 (KHTML, like Gecko) Chrome/107.0.0.0 Safari/537.36","WebKit","Chrome","107.0.0.0","Windows","10.0","1854"," ","","A knife was placed on a hammer","practice","practice_s","",""
"","","","","","fixation","5564","html-keyboard-response","16","85194","0.0-4.0-2.2","1","3","2022-11-17 14:24:53","27f05a78553e1e210bb6d9ff2204662f","","Mozilla/5.0 (Windows NT 10.0; Win64; x64) AppleWebKit/537.36 (KHTML, like Gecko) Chrome/107.0.0.0 Safari/537.36","WebKit","Chrome","107.0.0.0","Windows","10.0","null","null","","<p style=""font-size: 48px;"">+</p>","practice","practice_s","",""
"","","","","","picture","5564","image-keyboard-response","17","86333","0.0-4.0-3.2","1","3","2022-11-17 14:24:53","27f05a78553e1e210bb6d9ff2204662f","","Mozilla/5.0 (Windows NT 10.0; Win64; x64) AppleWebKit/537.36 (KHTML, like Gecko) Chrome/107.0.0.0 Safari/537.36","WebKit","Chrome","107.0.0.0","Windows","10.0","1136","s","","hammerB.jpg","practice","practice_s","true",""
"","","","","","","","html-keyboard-response","18","88338","0.0-4.0-4.2","1","3","2022-11-17 14:24:53","27f05a78553e1e210bb6d9ff2204662f","","Mozilla/5.0 (Windows NT 10.0; Win64; x64) AppleWebKit/537.36 (KHTML, like Gecko) Chrome/107.0.0.0 Safari/537.36","WebKit","Chrome","107.0.0.0","Windows","10.0","null","null","","CORRECT!","","","",""
"","","","","","fixation","5564","html-keyboard-response","19","89345","0.0-4.0-0.3","1","3","2022-11-17 14:24:53","27f05a78553e1e210bb6d9ff2204662f","","Mozilla/5.0 (Windows NT 10.0; Win64; x64) AppleWebKit/537.36 (KHTML, like Gecko) Chrome/107.0.0.0 Safari/537.36","WebKit","Chrome","107.0.0.0","Windows","10.0","null","null","","<p style=""font-size: 48px;"">+</p>","practice","practice_n","",""
"","","","","","sentence","5564","html-keyboard-response","20","92160","0.0-4.0-1.3","1","3","2022-11-17 14:24:53","27f05a78553e1e210bb6d9ff2204662f","","Mozilla/5.0 (Windows NT 10.0; Win64; x64) AppleWebKit/537.36 (KHTML, like Gecko) Chrome/107.0.0.0 Safari/537.36","WebKit","Chrome","107.0.0.0","Windows","10.0","2813"," ","","A bowling ball dropped and touched a bottle","practice","practice_n","",""
"","","","","","fixation","5564","html-keyboard-response","21","92666","0.0-4.0-2.3","1","3","2022-11-17 14:24:53","27f05a78553e1e210bb6d9ff2204662f","","Mozilla/5.0 (Windows NT 10.0; Win64; x64) AppleWebKit/537.36 (KHTML, like Gecko) Chrome/107.0.0.0 Safari/537.36","WebKit","Chrome","107.0.0.0","Windows","10.0","null","null","","<p style=""font-size: 48px;"">+</p>","practice","practice_n","",""
"","","","","","picture","5564","image-keyboard-response","22","93444","0.0-4.0-3.3","1","3","2022-11-17 14:24:53","27f05a78553e1e210bb6d9ff2204662f","","Mozilla/5.0 (Windows NT 10.0; Win64; x64) AppleWebKit/537.36 (KHTML, like Gecko) Chrome/107.0.0.0 Safari/537.36","WebKit","Chrome","107.0.0.0","Windows","10.0","775","n","","bookB.jpg","practice","practice_n","true",""
"","","","","","","","html-keyboard-response","23","95450","0.0-4.0-4.3","1","3","2022-11-17 14:24:53","27f05a78553e1e210bb6d9ff2204662f","","Mozilla/5.0 (Windows NT 10.0; Win64; x64) AppleWebKit/537.36 (KHTML, like Gecko) Chrome/107.0.0.0 Safari/537.36","WebKit","Chrome","107.0.0.0","Windows","10.0","null","null","","CORRECT!","","","",""
"","","","","","fixation","5564","html-keyboard-response","24","96458","0.0-4.0-0.4","1","3","2022-11-17 14:24:53","27f05a78553e1e210bb6d9ff2204662f","","Mozilla/5.0 (Windows NT 10.0; Win64; x64) AppleWebKit/537.36 (KHTML, like Gecko) Chrome/107.0.0.0 Safari/537.36","WebKit","Chrome","107.0.0.0","Windows","10.0","null","null","","<p style=""font-size: 48px;"">+</p>","practice","practice_n","",""
"","","","","","sentence","5564","html-keyboard-response","25","98169","0.0-4.0-1.4","1","3","2022-11-17 14:24:53","27f05a78553e1e210bb6d9ff2204662f","","Mozilla/5.0 (Windows NT 10.0; Win64; x64) AppleWebKit/537.36 (KHTML, like Gecko) Chrome/107.0.0.0 Safari/537.36","WebKit","Chrome","107.0.0.0","Windows","10.0","1709"," ","","A fork was placed on a stool","practice","practice_n","",""
"","","","","","fixation","5564","html-keyboard-response","26","98674","0.0-4.0-2.4","1","3","2022-11-17 14:24:53","27f05a78553e1e210bb6d9ff2204662f","","Mozilla/5.0 (Windows NT 10.0; Win64; x64) AppleWebKit/537.36 (KHTML, like Gecko) Chrome/107.0.0.0 Safari/537.36","WebKit","Chrome","107.0.0.0","Windows","10.0","null","null","","<p style=""font-size: 48px;"">+</p>","practice","practice_n","",""
"","","","","","picture","5564","image-keyboard-response","27","100105","0.0-4.0-3.4","1","3","2022-11-17 14:24:53","27f05a78553e1e210bb6d9ff2204662f","","Mozilla/5.0 (Windows NT 10.0; Win64; x64) AppleWebKit/537.36 (KHTML, like Gecko) Chrome/107.0.0.0 Safari/537.36","WebKit","Chrome","107.0.0.0","Windows","10.0","1428","s","","tableB.jpg","practice","practice_n","false",""
"","","","","","","","html-keyboard-response","28","102114","0.0-4.0-4.4","1","3","2022-11-17 14:24:53","27f05a78553e1e210bb6d9ff2204662f","","Mozilla/5.0 (Windows NT 10.0; Win64; x64) AppleWebKit/537.36 (KHTML, like Gecko) Chrome/107.0.0.0 Safari/537.36","WebKit","Chrome","107.0.0.0","Windows","10.0","null","null","","WRONG!","","","",""
"","","","","","fixation","5564","html-keyboard-response","29","103122","0.0-4.0-0.5","1","3","2022-11-17 14:24:53","27f05a78553e1e210bb6d9ff2204662f","","Mozilla/5.0 (Windows NT 10.0; Win64; x64) AppleWebKit/537.36 (KHTML, like Gecko) Chrome/107.0.0.0 Safari/537.36","WebKit","Chrome","107.0.0.0","Windows","10.0","null","null","","<p style=""font-size: 48px;"">+</p>","practice","practice_s","",""
"","","","","","sentence","5564","html-keyboard-response","30","104967","0.0-4.0-1.5","1","3","2022-11-17 14:24:53","27f05a78553e1e210bb6d9ff2204662f","","Mozilla/5.0 (Windows NT 10.0; Win64; x64) AppleWebKit/537.36 (KHTML, like Gecko) Chrome/107.0.0.0 Safari/537.36","WebKit","Chrome","107.0.0.0","Windows","10.0","1842"," ","","A bowling ball dropped and smashed a teacup","practice","practice_s","",""
"","","","","","fixation","5564","html-keyboard-response","31","105474","0.0-4.0-2.5","1","3","2022-11-17 14:24:53","27f05a78553e1e210bb6d9ff2204662f","","Mozilla/5.0 (Windows NT 10.0; Win64; x64) AppleWebKit/537.36 (KHTML, like Gecko) Chrome/107.0.0.0 Safari/537.36","WebKit","Chrome","107.0.0.0","Windows","10.0","null","null","","<p style=""font-size: 48px;"">+</p>","practice","practice_s","",""
"","","","","","picture","5564","image-keyboard-response","32","106650","0.0-4.0-3.5","1","3","2022-11-17 14:24:53","27f05a78553e1e210bb6d9ff2204662f","","Mozilla/5.0 (Windows NT 10.0; Win64; x64) AppleWebKit/537.36 (KHTML, like Gecko) Chrome/107.0.0.0 Safari/537.36","WebKit","Chrome","107.0.0.0","Windows","10.0","1173","s","","cupB.jpg","practice","practice_s","true",""
"","","","","","","","html-keyboard-response","33","108666","0.0-4.0-4.5","1","3","2022-11-17 14:24:53","27f05a78553e1e210bb6d9ff2204662f","","Mozilla/5.0 (Windows NT 10.0; Win64; x64) AppleWebKit/537.36 (KHTML, like Gecko) Chrome/107.0.0.0 Safari/537.36","WebKit","Chrome","107.0.0.0","Windows","10.0","null","null","","CORRECT!","","","",""
"","","","","","movetoexp","5564","html-button-response","34","121001","0.0-5.0","1","3","2022-11-17 14:24:53","27f05a78553e1e210bb6d9ff2204662f","","Mozilla/5.0 (Windows NT 10.0; Win64; x64) AppleWebKit/537.36 (KHTML, like Gecko) Chrome/107.0.0.0 Safari/537.36","WebKit","Chrome","107.0.0.0","Windows","10.0","12332","0","","<p style=""font-size:20px;"">You have now completed the practice session! </p>
                    <p style=""font-size:20px;"">You will now move on to the main experiment, where you will not be provided any feedback. </p>
                    <p style=""font-size:20px;"">Remember, you should press <strong>S</strong> if the pictured object was mentioned in the preceding sentence<br> and <strong>N</strong> if the pictured object was not mentioned in the preceding sentence.</p>
                    <p style=""font-size:20px;"">Please click the button below to continue to the main experiment. </p>","","","",""
"","","","","","fixation","5564","html-keyboard-response","35","122009","0.0-6.0-0.0","1","3","2022-11-17 14:24:53","27f05a78553e1e210bb6d9ff2204662f","","Mozilla/5.0 (Windows NT 10.0; Win64; x64) AppleWebKit/537.36 (KHTML, like Gecko) Chrome/107.0.0.0 Safari/537.36","WebKit","Chrome","107.0.0.0","Windows","10.0","null","null","","<p style=""font-size: 48px;"">+</p>","3","Filler","",""
"","","","","","sentence","5564","html-keyboard-response","36","123755","0.0-6.0-1.0","1","3","2022-11-17 14:24:53","27f05a78553e1e210bb6d9ff2204662f","","Mozilla/5.0 (Windows NT 10.0; Win64; x64) AppleWebKit/537.36 (KHTML, like Gecko) Chrome/107.0.0.0 Safari/537.36","WebKit","Chrome","107.0.0.0","Windows","10.0","1741"," ","","A man is shaving his beard","3","Filler","",""
"","","","","","fixation","5564","html-keyboard-response","37","124258","0.0-6.0-2.0","1","3","2022-11-17 14:24:53","27f05a78553e1e210bb6d9ff2204662f","","Mozilla/5.0 (Windows NT 10.0; Win64; x64) AppleWebKit/537.36 (KHTML, like Gecko) Chrome/107.0.0.0 Safari/537.36","WebKit","Chrome","107.0.0.0","Windows","10.0","null","null","","<p style=""font-size: 48px;"">+</p>","3","Filler","",""
"","","","","","picture","5564","image-keyboard-response","38","124976","0.0-6.0-3.0","1","3","2022-11-17 14:24:53","27f05a78553e1e210bb6d9ff2204662f","","Mozilla/5.0 (Windows NT 10.0; Win64; x64) AppleWebKit/537.36 (KHTML, like Gecko) Chrome/107.0.0.0 Safari/537.36","WebKit","Chrome","107.0.0.0","Windows","10.0","715","n","","clock.jpg","3","Filler","true",""
"","","","","","fixation","5564","html-keyboard-response","39","125986","0.0-6.0-0.1","1","3","2022-11-17 14:24:53","27f05a78553e1e210bb6d9ff2204662f","","Mozilla/5.0 (Windows NT 10.0; Win64; x64) AppleWebKit/537.36 (KHTML, like Gecko) Chrome/107.0.0.0 Safari/537.36","WebKit","Chrome","107.0.0.0","Windows","10.0","null","null","","<p style=""font-size: 48px;"">+</p>","3","Light_Contradictory","",""
"","","","","","sentence","5564","html-keyboard-response","40","127974","0.0-6.0-1.1","1","3","2022-11-17 14:24:53","27f05a78553e1e210bb6d9ff2204662f","","Mozilla/5.0 (Windows NT 10.0; Win64; x64) AppleWebKit/537.36 (KHTML, like Gecko) Chrome/107.0.0.0 Safari/537.36","WebKit","Chrome","107.0.0.0","Windows","10.0","1985"," ","","A balloon dropped and smashed a blackberry","3","Light_Contradictory","",""
"","","","","","fixation","5564","html-keyboard-response","41","128492","0.0-6.0-2.1","1","3","2022-11-17 14:24:53","27f05a78553e1e210bb6d9ff2204662f","","Mozilla/5.0 (Windows NT 10.0; Win64; x64) AppleWebKit/537.36 (KHTML, like Gecko) Chrome/107.0.0.0 Safari/537.36","WebKit","Chrome","107.0.0.0","Windows","10.0","null","null","","<p style=""font-size: 48px;"">+</p>","3","Light_Contradictory","",""
"","","","","","picture","5564","image-keyboard-response","42","129507","0.0-6.0-3.1","1","3","2022-11-17 14:24:53","27f05a78553e1e210bb6d9ff2204662f","","Mozilla/5.0 (Windows NT 10.0; Win64; x64) AppleWebKit/537.36 (KHTML, like Gecko) Chrome/107.0.0.0 Safari/537.36","WebKit","Chrome","107.0.0.0","Windows","10.0","1012","s","","blackberryS.jpg","3","Light_Contradictory","true",""
"","","","","","fixation","5564","html-keyboard-response","43","130514","0.0-6.0-0.2","1","3","2022-11-17 14:24:53","27f05a78553e1e210bb6d9ff2204662f","","Mozilla/5.0 (Windows NT 10.0; Win64; x64) AppleWebKit/537.36 (KHTML, like Gecko) Chrome/107.0.0.0 Safari/537.36","WebKit","Chrome","107.0.0.0","Windows","10.0","null","null","","<p style=""font-size: 48px;"">+</p>","3","Light_Matched","",""
"","","","","","sentence","5564","html-keyboard-response","44","132393","0.0-6.0-1.2","1","3","2022-11-17 14:24:53","27f05a78553e1e210bb6d9ff2204662f","","Mozilla/5.0 (Windows NT 10.0; Win64; x64) AppleWebKit/537.36 (KHTML, like Gecko) Chrome/107.0.0.0 Safari/537.36","WebKit","Chrome","107.0.0.0","Windows","10.0","1876"," ","","A balloon dropped and touched a TV","3","Light_Matched","",""
"","","","","","fixation","5564","html-keyboard-response","45","132899","0.0-6.0-2.2","1","3","2022-11-17 14:24:53","27f05a78553e1e210bb6d9ff2204662f","","Mozilla/5.0 (Windows NT 10.0; Win64; x64) AppleWebKit/537.36 (KHTML, like Gecko) Chrome/107.0.0.0 Safari/537.36","WebKit","Chrome","107.0.0.0","Windows","10.0","null","null","","<p style=""font-size: 48px;"">+</p>","3","Light_Matched","",""
"","","","","","picture","5564","image-keyboard-response","46","133652","0.0-6.0-3.2","1","3","2022-11-17 14:24:53","27f05a78553e1e210bb6d9ff2204662f","","Mozilla/5.0 (Windows NT 10.0; Win64; x64) AppleWebKit/537.36 (KHTML, like Gecko) Chrome/107.0.0.0 Safari/537.36","WebKit","Chrome","107.0.0.0","Windows","10.0","749","s","","tvS.jpg","3","Light_Matched","true",""
"","","","","","fixation","5564","html-keyboard-response","47","134658","0.0-6.0-0.3","1","3","2022-11-17 14:24:53","27f05a78553e1e210bb6d9ff2204662f","","Mozilla/5.0 (Windows NT 10.0; Win64; x64) AppleWebKit/537.36 (KHTML, like Gecko) Chrome/107.0.0.0 Safari/537.36","WebKit","Chrome","107.0.0.0","Windows","10.0","null","null","","<p style=""font-size: 48px;"">+</p>","3","Filler","",""
"","","","","","sentence","5564","html-keyboard-response","48","136651","0.0-6.0-1.3","1","3","2022-11-17 14:24:53","27f05a78553e1e210bb6d9ff2204662f","","Mozilla/5.0 (Windows NT 10.0; Win64; x64) AppleWebKit/537.36 (KHTML, like Gecko) Chrome/107.0.0.0 Safari/537.36","WebKit","Chrome","107.0.0.0","Windows","10.0","1990"," ","","A remote was placed on the rug","3","Filler","",""
"","","","","","fixation","5564","html-keyboard-response","49","137163","0.0-6.0-2.3","1","3","2022-11-17 14:24:53","27f05a78553e1e210bb6d9ff2204662f","","Mozilla/5.0 (Windows NT 10.0; Win64; x64) AppleWebKit/537.36 (KHTML, like Gecko) Chrome/107.0.0.0 Safari/537.36","WebKit","Chrome","107.0.0.0","Windows","10.0","null","null","","<p style=""font-size: 48px;"">+</p>","3","Filler","",""
"","","","","","picture","5564","image-keyboard-response","50","137814","0.0-6.0-3.3","1","3","2022-11-17 14:24:53","27f05a78553e1e210bb6d9ff2204662f","","Mozilla/5.0 (Windows NT 10.0; Win64; x64) AppleWebKit/537.36 (KHTML, like Gecko) Chrome/107.0.0.0 Safari/537.36","WebKit","Chrome","107.0.0.0","Windows","10.0","648","n","","CD.jpg","3","Filler","true",""
"","","","","","fixation","5564","html-keyboard-response","51","138826","0.0-6.0-0.4","1","3","2022-11-17 14:24:53","27f05a78553e1e210bb6d9ff2204662f","","Mozilla/5.0 (Windows NT 10.0; Win64; x64) AppleWebKit/537.36 (KHTML, like Gecko) Chrome/107.0.0.0 Safari/537.36","WebKit","Chrome","107.0.0.0","Windows","10.0","null","null","","<p style=""font-size: 48px;"">+</p>","3","Heavy_Contradictory","",""
"","","","","","sentence","5564","html-keyboard-response","52","140680","0.0-6.0-1.4","1","3","2022-11-17 14:24:53","27f05a78553e1e210bb6d9ff2204662f","","Mozilla/5.0 (Windows NT 10.0; Win64; x64) AppleWebKit/537.36 (KHTML, like Gecko) Chrome/107.0.0.0 Safari/537.36","WebKit","Chrome","107.0.0.0","Windows","10.0","1851"," ","","A bowling ball dropped and touched a tile","3","Heavy_Contradictory","",""
"","","","","","fixation","5564","html-keyboard-response","53","141186","0.0-6.0-2.4","1","3","2022-11-17 14:24:53","27f05a78553e1e210bb6d9ff2204662f","","Mozilla/5.0 (Windows NT 10.0; Win64; x64) AppleWebKit/537.36 (KHTML, like Gecko) Chrome/107.0.0.0 Safari/537.36","WebKit","Chrome","107.0.0.0","Windows","10.0","null","null","","<p style=""font-size: 48px;"">+</p>","3","Heavy_Contradictory","",""
"","","","","","picture","5564","image-keyboard-response","54","142263","0.0-6.0-3.4","1","3","2022-11-17 14:24:53","27f05a78553e1e210bb6d9ff2204662f","","Mozilla/5.0 (Windows NT 10.0; Win64; x64) AppleWebKit/537.36 (KHTML, like Gecko) Chrome/107.0.0.0 Safari/537.36","WebKit","Chrome","107.0.0.0","Windows","10.0","1072","s","","tileS.jpg","3","Heavy_Contradictory","true",""
"","","","","","fixation","5564","html-keyboard-response","55","143275","0.0-6.0-0.5","1","3","2022-11-17 14:24:53","27f05a78553e1e210bb6d9ff2204662f","","Mozilla/5.0 (Windows NT 10.0; Win64; x64) AppleWebKit/537.36 (KHTML, like Gecko) Chrome/107.0.0.0 Safari/537.36","WebKit","Chrome","107.0.0.0","Windows","10.0","null","null","","<p style=""font-size: 48px;"">+</p>","3","Filler","",""
"","","","","","sentence","5564","html-keyboard-response","56","145490","0.0-6.0-1.5","1","3","2022-11-17 14:24:53","27f05a78553e1e210bb6d9ff2204662f","","Mozilla/5.0 (Windows NT 10.0; Win64; x64) AppleWebKit/537.36 (KHTML, like Gecko) Chrome/107.0.0.0 Safari/537.36","WebKit","Chrome","107.0.0.0","Windows","10.0","2212"," ","","A thermometer was placed on the box","3","Filler","",""
"","","","","","fixation","5564","html-keyboard-response","57","145997","0.0-6.0-2.5","1","3","2022-11-17 14:24:53","27f05a78553e1e210bb6d9ff2204662f","","Mozilla/5.0 (Windows NT 10.0; Win64; x64) AppleWebKit/537.36 (KHTML, like Gecko) Chrome/107.0.0.0 Safari/537.36","WebKit","Chrome","107.0.0.0","Windows","10.0","null","null","","<p style=""font-size: 48px;"">+</p>","3","Filler","",""
"","","","","","picture","5564","image-keyboard-response","58","146775","0.0-6.0-3.5","1","3","2022-11-17 14:24:53","27f05a78553e1e210bb6d9ff2204662f","","Mozilla/5.0 (Windows NT 10.0; Win64; x64) AppleWebKit/537.36 (KHTML, like Gecko) Chrome/107.0.0.0 Safari/537.36","WebKit","Chrome","107.0.0.0","Windows","10.0","774","n","","button.jpg","3","Filler","true",""
"","","","","","fixation","5564","html-keyboard-response","59","147786","0.0-6.0-0.6","1","3","2022-11-17 14:24:53","27f05a78553e1e210bb6d9ff2204662f","","Mozilla/5.0 (Windows NT 10.0; Win64; x64) AppleWebKit/537.36 (KHTML, like Gecko) Chrome/107.0.0.0 Safari/537.36","WebKit","Chrome","107.0.0.0","Windows","10.0","null","null","","<p style=""font-size: 48px;"">+</p>","3","Filler","",""
"","","","","","sentence","5564","html-keyboard-response","60","149170","0.0-6.0-1.6","1","3","2022-11-17 14:24:53","27f05a78553e1e210bb6d9ff2204662f","","Mozilla/5.0 (Windows NT 10.0; Win64; x64) AppleWebKit/537.36 (KHTML, like Gecko) Chrome/107.0.0.0 Safari/537.36","WebKit","Chrome","107.0.0.0","Windows","10.0","1381"," ","","A pilot is reading a book","3","Filler","",""
"","","","","","fixation","5564","html-keyboard-response","61","149674","0.0-6.0-2.6","1","3","2022-11-17 14:24:53","27f05a78553e1e210bb6d9ff2204662f","","Mozilla/5.0 (Windows NT 10.0; Win64; x64) AppleWebKit/537.36 (KHTML, like Gecko) Chrome/107.0.0.0 Safari/537.36","WebKit","Chrome","107.0.0.0","Windows","10.0","null","null","","<p style=""font-size: 48px;"">+</p>","3","Filler","",""
"","","","","","picture","5564","image-keyboard-response","62","150535","0.0-6.0-3.6","1","3","2022-11-17 14:24:53","27f05a78553e1e210bb6d9ff2204662f","","Mozilla/5.0 (Windows NT 10.0; Win64; x64) AppleWebKit/537.36 (KHTML, like Gecko) Chrome/107.0.0.0 Safari/537.36","WebKit","Chrome","107.0.0.0","Windows","10.0","857","n","","spoon.jpg","3","Filler","true",""
"","","","","","fixation","5564","html-keyboard-response","63","151546","0.0-6.0-0.7","1","3","2022-11-17 14:24:53","27f05a78553e1e210bb6d9ff2204662f","","Mozilla/5.0 (Windows NT 10.0; Win64; x64) AppleWebKit/537.36 (KHTML, like Gecko) Chrome/107.0.0.0 Safari/537.36","WebKit","Chrome","107.0.0.0","Windows","10.0","null","null","","<p style=""font-size: 48px;"">+</p>","3","Filler","",""
"","","","","","sentence","5564","html-keyboard-response","64","153219","0.0-6.0-1.7","1","3","2022-11-17 14:24:53","27f05a78553e1e210bb6d9ff2204662f","","Mozilla/5.0 (Windows NT 10.0; Win64; x64) AppleWebKit/537.36 (KHTML, like Gecko) Chrome/107.0.0.0 Safari/537.36","WebKit","Chrome","107.0.0.0","Windows","10.0","1668"," ","","A cushion was placed on the magazine","3","Filler","",""
"","","","","","fixation","5564","html-keyboard-response","65","153723","0.0-6.0-2.7","1","3","2022-11-17 14:24:53","27f05a78553e1e210bb6d9ff2204662f","","Mozilla/5.0 (Windows NT 10.0; Win64; x64) AppleWebKit/537.36 (KHTML, like Gecko) Chrome/107.0.0.0 Safari/537.36","WebKit","Chrome","107.0.0.0","Windows","10.0","null","null","","<p style=""font-size: 48px;"">+</p>","3","Filler","",""
"","","","","","picture","5564","image-keyboard-response","66","155702","0.0-6.0-3.7","1","3","2022-11-17 14:24:53","27f05a78553e1e210bb6d9ff2204662f","","Mozilla/5.0 (Windows NT 10.0; Win64; x64) AppleWebKit/537.36 (KHTML, like Gecko) Chrome/107.0.0.0 Safari/537.36","WebKit","Chrome","107.0.0.0","Windows","10.0","1975","n","","box.jpg","3","Filler","true",""
"","","","","","fixation","5564","html-keyboard-response","67","156713","0.0-6.0-0.8","1","3","2022-11-17 14:24:53","27f05a78553e1e210bb6d9ff2204662f","","Mozilla/5.0 (Windows NT 10.0; Win64; x64) AppleWebKit/537.36 (KHTML, like Gecko) Chrome/107.0.0.0 Safari/537.36","WebKit","Chrome","107.0.0.0","Windows","10.0","null","null","","<p style=""font-size: 48px;"">+</p>","3","Heavy_Contradictory","",""
"","","","","","sentence","5564","html-keyboard-response","68","158842","0.0-6.0-1.8","1","3","2022-11-17 14:24:53","27f05a78553e1e210bb6d9ff2204662f","","Mozilla/5.0 (Windows NT 10.0; Win64; x64) AppleWebKit/537.36 (KHTML, like Gecko) Chrome/107.0.0.0 Safari/537.36","WebKit","Chrome","107.0.0.0","Windows","10.0","2124"," ","","A bowling ball dropped and touched a ceramic plate","3","Heavy_Contradictory","",""
"","","","","","fixation","5564","html-keyboard-response","69","159348","0.0-6.0-2.8","1","3","2022-11-17 14:24:53","27f05a78553e1e210bb6d9ff2204662f","","Mozilla/5.0 (Windows NT 10.0; Win64; x64) AppleWebKit/537.36 (KHTML, like Gecko) Chrome/107.0.0.0 Safari/537.36","WebKit","Chrome","107.0.0.0","Windows","10.0","null","null","","<p style=""font-size: 48px;"">+</p>","3","Heavy_Contradictory","",""
"","","","","","picture","5564","image-keyboard-response","70","160805","0.0-6.0-3.8","1","3","2022-11-17 14:24:53","27f05a78553e1e210bb6d9ff2204662f","","Mozilla/5.0 (Windows NT 10.0; Win64; x64) AppleWebKit/537.36 (KHTML, like Gecko) Chrome/107.0.0.0 Safari/537.36","WebKit","Chrome","107.0.0.0","Windows","10.0","1452","s","","plateS.jpg","3","Heavy_Contradictory","true",""
"","","","","","fixation","5564","html-keyboard-response","71","161810","0.0-6.0-0.9","1","3","2022-11-17 14:24:53","27f05a78553e1e210bb6d9ff2204662f","","Mozilla/5.0 (Windows NT 10.0; Win64; x64) AppleWebKit/537.36 (KHTML, like Gecko) Chrome/107.0.0.0 Safari/537.36","WebKit","Chrome","107.0.0.0","Windows","10.0","null","null","","<p style=""font-size: 48px;"">+</p>","3","Light_Contradictory","",""
"","","","","","sentence","5564","html-keyboard-response","72","164130","0.0-6.0-1.9","1","3","2022-11-17 14:24:53","27f05a78553e1e210bb6d9ff2204662f","","Mozilla/5.0 (Windows NT 10.0; Win64; x64) AppleWebKit/537.36 (KHTML, like Gecko) Chrome/107.0.0.0 Safari/537.36","WebKit","Chrome","107.0.0.0","Windows","10.0","2316"," ","","A balloon dropped and smashed an iPAD","3","Light_Contradictory","",""
"","","","","","fixation","5564","html-keyboard-response","73","164634","0.0-6.0-2.9","1","3","2022-11-17 14:24:53","27f05a78553e1e210bb6d9ff2204662f","","Mozilla/5.0 (Windows NT 10.0; Win64; x64) AppleWebKit/537.36 (KHTML, like Gecko) Chrome/107.0.0.0 Safari/537.36","WebKit","Chrome","107.0.0.0","Windows","10.0","null","null","","<p style=""font-size: 48px;"">+</p>","3","Light_Contradictory","",""
"","","","","","picture","5564","image-keyboard-response","74","165451","0.0-6.0-3.9","1","3","2022-11-17 14:24:53","27f05a78553e1e210bb6d9ff2204662f","","Mozilla/5.0 (Windows NT 10.0; Win64; x64) AppleWebKit/537.36 (KHTML, like Gecko) Chrome/107.0.0.0 Safari/537.36","WebKit","Chrome","107.0.0.0","Windows","10.0","812","s","","iPadS.jpg","3","Light_Contradictory","true",""
"","","","","","fixation","5564","html-keyboard-response","75","166459","0.0-6.0-0.10","1","3","2022-11-17 14:24:53","27f05a78553e1e210bb6d9ff2204662f","","Mozilla/5.0 (Windows NT 10.0; Win64; x64) AppleWebKit/537.36 (KHTML, like Gecko) Chrome/107.0.0.0 Safari/537.36","WebKit","Chrome","107.0.0.0","Windows","10.0","null","null","","<p style=""font-size: 48px;"">+</p>","3","Filler","",""
"","","","","","sentence","5564","html-keyboard-response","76","168843","0.0-6.0-1.10","1","3","2022-11-17 14:24:53","27f05a78553e1e210bb6d9ff2204662f","","Mozilla/5.0 (Windows NT 10.0; Win64; x64) AppleWebKit/537.36 (KHTML, like Gecko) Chrome/107.0.0.0 Safari/537.36","WebKit","Chrome","107.0.0.0","Windows","10.0","2380"," ","","An actress is taking a microphone","3","Filler","",""
"","","","","","fixation","5564","html-keyboard-response","77","169347","0.0-6.0-2.10","1","3","2022-11-17 14:24:53","27f05a78553e1e210bb6d9ff2204662f","","Mozilla/5.0 (Windows NT 10.0; Win64; x64) AppleWebKit/537.36 (KHTML, like Gecko) Chrome/107.0.0.0 Safari/537.36","WebKit","Chrome","107.0.0.0","Windows","10.0","null","null","","<p style=""font-size: 48px;"">+</p>","3","Filler","",""
"","","","","","picture","5564","image-keyboard-response","78","170051","0.0-6.0-3.10","1","3","2022-11-17 14:24:53","27f05a78553e1e210bb6d9ff2204662f","","Mozilla/5.0 (Windows NT 10.0; Win64; x64) AppleWebKit/537.36 (KHTML, like Gecko) Chrome/107.0.0.0 Safari/537.36","WebKit","Chrome","107.0.0.0","Windows","10.0","699","n","","pants.jpg","3","Filler","true",""
"","","","","","fixation","5564","html-keyboard-response","79","171066","0.0-6.0-0.11","1","3","2022-11-17 14:24:53","27f05a78553e1e210bb6d9ff2204662f","","Mozilla/5.0 (Windows NT 10.0; Win64; x64) AppleWebKit/537.36 (KHTML, like Gecko) Chrome/107.0.0.0 Safari/537.36","WebKit","Chrome","107.0.0.0","Windows","10.0","null","null","","<p style=""font-size: 48px;"">+</p>","3","Filler","",""
"","","","","","sentence","5564","html-keyboard-response","80","172546","0.0-6.0-1.11","1","3","2022-11-17 14:24:53","27f05a78553e1e210bb6d9ff2204662f","","Mozilla/5.0 (Windows NT 10.0; Win64; x64) AppleWebKit/537.36 (KHTML, like Gecko) Chrome/107.0.0.0 Safari/537.36","WebKit","Chrome","107.0.0.0","Windows","10.0","1476"," ","","A nurse is taking a syringe","3","Filler","",""
"","","","","","fixation","5564","html-keyboard-response","81","173057","0.0-6.0-2.11","1","3","2022-11-17 14:24:53","27f05a78553e1e210bb6d9ff2204662f","","Mozilla/5.0 (Windows NT 10.0; Win64; x64) AppleWebKit/537.36 (KHTML, like Gecko) Chrome/107.0.0.0 Safari/537.36","WebKit","Chrome","107.0.0.0","Windows","10.0","null","null","","<p style=""font-size: 48px;"">+</p>","3","Filler","",""
"","","","","","picture","5564","image-keyboard-response","82","173656","0.0-6.0-3.11","1","3","2022-11-17 14:24:53","27f05a78553e1e210bb6d9ff2204662f","","Mozilla/5.0 (Windows NT 10.0; Win64; x64) AppleWebKit/537.36 (KHTML, like Gecko) Chrome/107.0.0.0 Safari/537.36","WebKit","Chrome","107.0.0.0","Windows","10.0","594","n","","headphones.jpg","3","Filler","true",""
"","","","","","fixation","5564","html-keyboard-response","83","174666","0.0-6.0-0.12","1","3","2022-11-17 14:24:53","27f05a78553e1e210bb6d9ff2204662f","","Mozilla/5.0 (Windows NT 10.0; Win64; x64) AppleWebKit/537.36 (KHTML, like Gecko) Chrome/107.0.0.0 Safari/537.36","WebKit","Chrome","107.0.0.0","Windows","10.0","null","null","","<p style=""font-size: 48px;"">+</p>","3","Light_Contradictory","",""
"","","","","","sentence","5564","html-keyboard-response","84","176118","0.0-6.0-1.12","1","3","2022-11-17 14:24:53","27f05a78553e1e210bb6d9ff2204662f","","Mozilla/5.0 (Windows NT 10.0; Win64; x64) AppleWebKit/537.36 (KHTML, like Gecko) Chrome/107.0.0.0 Safari/537.36","WebKit","Chrome","107.0.0.0","Windows","10.0","1448"," ","","A balloon dropped and smashed glasses","3","Light_Contradictory","",""
"","","","","","fixation","5564","html-keyboard-response","85","176626","0.0-6.0-2.12","1","3","2022-11-17 14:24:53","27f05a78553e1e210bb6d9ff2204662f","","Mozilla/5.0 (Windows NT 10.0; Win64; x64) AppleWebKit/537.36 (KHTML, like Gecko) Chrome/107.0.0.0 Safari/537.36","WebKit","Chrome","107.0.0.0","Windows","10.0","null","null","","<p style=""font-size: 48px;"">+</p>","3","Light_Contradictory","",""
"","","","","","picture","5564","image-keyboard-response","86","177618","0.0-6.0-3.12","1","3","2022-11-17 14:24:53","27f05a78553e1e210bb6d9ff2204662f","","Mozilla/5.0 (Windows NT 10.0; Win64; x64) AppleWebKit/537.36 (KHTML, like Gecko) Chrome/107.0.0.0 Safari/537.36","WebKit","Chrome","107.0.0.0","Windows","10.0","987","s","","glassesS.jpg","3","Light_Contradictory","true",""
"","","","","","fixation","5564","html-keyboard-response","87","178626","0.0-6.0-0.13","1","3","2022-11-17 14:24:53","27f05a78553e1e210bb6d9ff2204662f","","Mozilla/5.0 (Windows NT 10.0; Win64; x64) AppleWebKit/537.36 (KHTML, like Gecko) Chrome/107.0.0.0 Safari/537.36","WebKit","Chrome","107.0.0.0","Windows","10.0","null","null","","<p style=""font-size: 48px;"">+</p>","3","Filler","",""
"","","","","","sentence","5564","html-keyboard-response","88","180309","0.0-6.0-1.13","1","3","2022-11-17 14:24:53","27f05a78553e1e210bb6d9ff2204662f","","Mozilla/5.0 (Windows NT 10.0; Win64; x64) AppleWebKit/537.36 (KHTML, like Gecko) Chrome/107.0.0.0 Safari/537.36","WebKit","Chrome","107.0.0.0","Windows","10.0","1679"," ","","A needle was placed on the mouse pad","3","Filler","",""
"","","","","","fixation","5564","html-keyboard-response","89","180818","0.0-6.0-2.13","1","3","2022-11-17 14:24:53","27f05a78553e1e210bb6d9ff2204662f","","Mozilla/5.0 (Windows NT 10.0; Win64; x64) AppleWebKit/537.36 (KHTML, like Gecko) Chrome/107.0.0.0 Safari/537.36","WebKit","Chrome","107.0.0.0","Windows","10.0","null","null","","<p style=""font-size: 48px;"">+</p>","3","Filler","",""
"","","","","","picture","5564","image-keyboard-response","90","181754","0.0-6.0-3.13","1","3","2022-11-17 14:24:53","27f05a78553e1e210bb6d9ff2204662f","","Mozilla/5.0 (Windows NT 10.0; Win64; x64) AppleWebKit/537.36 (KHTML, like Gecko) Chrome/107.0.0.0 Safari/537.36","WebKit","Chrome","107.0.0.0","Windows","10.0","931","n","","chocolate.jpg","3","Filler","true",""
"","","","","","fixation","5564","html-keyboard-response","91","182762","0.0-6.0-0.14","1","3","2022-11-17 14:24:53","27f05a78553e1e210bb6d9ff2204662f","","Mozilla/5.0 (Windows NT 10.0; Win64; x64) AppleWebKit/537.36 (KHTML, like Gecko) Chrome/107.0.0.0 Safari/537.36","WebKit","Chrome","107.0.0.0","Windows","10.0","null","null","","<p style=""font-size: 48px;"">+</p>","3","Filler","",""
"","","","","","sentence","5564","html-keyboard-response","92","184139","0.0-6.0-1.14","1","3","2022-11-17 14:24:53","27f05a78553e1e210bb6d9ff2204662f","","Mozilla/5.0 (Windows NT 10.0; Win64; x64) AppleWebKit/537.36 (KHTML, like Gecko) Chrome/107.0.0.0 Safari/537.36","WebKit","Chrome","107.0.0.0","Windows","10.0","1372"," ","","An old man is hammering a nail","3","Filler","",""
"","","","","","fixation","5564","html-keyboard-response","93","184643","0.0-6.0-2.14","1","3","2022-11-17 14:24:53","27f05a78553e1e210bb6d9ff2204662f","","Mozilla/5.0 (Windows NT 10.0; Win64; x64) AppleWebKit/537.36 (KHTML, like Gecko) Chrome/107.0.0.0 Safari/537.36","WebKit","Chrome","107.0.0.0","Windows","10.0","null","null","","<p style=""font-size: 48px;"">+</p>","3","Filler","",""
"","","","","","picture","5564","image-keyboard-response","94","185448","0.0-6.0-3.14","1","3","2022-11-17 14:24:53","27f05a78553e1e210bb6d9ff2204662f","","Mozilla/5.0 (Windows NT 10.0; Win64; x64) AppleWebKit/537.36 (KHTML, like Gecko) Chrome/107.0.0.0 Safari/537.36","WebKit","Chrome","107.0.0.0","Windows","10.0","800","s","","nail.jpg","3","Filler","true",""
"","","","","","fixation","5564","html-keyboard-response","95","186461","0.0-6.0-0.15","1","3","2022-11-17 14:24:53","27f05a78553e1e210bb6d9ff2204662f","","Mozilla/5.0 (Windows NT 10.0; Win64; x64) AppleWebKit/537.36 (KHTML, like Gecko) Chrome/107.0.0.0 Safari/537.36","WebKit","Chrome","107.0.0.0","Windows","10.0","null","null","","<p style=""font-size: 48px;"">+</p>","3","Filler","",""
"","","","","","sentence","5564","html-keyboard-response","96","187823","0.0-6.0-1.15","1","3","2022-11-17 14:24:53","27f05a78553e1e210bb6d9ff2204662f","","Mozilla/5.0 (Windows NT 10.0; Win64; x64) AppleWebKit/537.36 (KHTML, like Gecko) Chrome/107.0.0.0 Safari/537.36","WebKit","Chrome","107.0.0.0","Windows","10.0","1358"," ","","A musician is playing a guitar","3","Filler","",""
"","","","","","fixation","5564","html-keyboard-response","97","188331","0.0-6.0-2.15","1","3","2022-11-17 14:24:53","27f05a78553e1e210bb6d9ff2204662f","","Mozilla/5.0 (Windows NT 10.0; Win64; x64) AppleWebKit/537.36 (KHTML, like Gecko) Chrome/107.0.0.0 Safari/537.36","WebKit","Chrome","107.0.0.0","Windows","10.0","null","null","","<p style=""font-size: 48px;"">+</p>","3","Filler","",""
"","","","","","picture","5564","image-keyboard-response","98","189094","0.0-6.0-3.15","1","3","2022-11-17 14:24:53","27f05a78553e1e210bb6d9ff2204662f","","Mozilla/5.0 (Windows NT 10.0; Win64; x64) AppleWebKit/537.36 (KHTML, like Gecko) Chrome/107.0.0.0 Safari/537.36","WebKit","Chrome","107.0.0.0","Windows","10.0","757","s","","guitar.jpg","3","Filler","true",""
"","","","","","fixation","5564","html-keyboard-response","99","190106","0.0-6.0-0.16","1","3","2022-11-17 14:24:53","27f05a78553e1e210bb6d9ff2204662f","","Mozilla/5.0 (Windows NT 10.0; Win64; x64) AppleWebKit/537.36 (KHTML, like Gecko) Chrome/107.0.0.0 Safari/537.36","WebKit","Chrome","107.0.0.0","Windows","10.0","null","null","","<p style=""font-size: 48px;"">+</p>","3","Light_Matched","",""
"","","","","","sentence","5564","html-keyboard-response","100","191883","0.0-6.0-1.16","1","3","2022-11-17 14:24:53","27f05a78553e1e210bb6d9ff2204662f","","Mozilla/5.0 (Windows NT 10.0; Win64; x64) AppleWebKit/537.36 (KHTML, like Gecko) Chrome/107.0.0.0 Safari/537.36","WebKit","Chrome","107.0.0.0","Windows","10.0","1772"," ","","A balloon dropped and touched a porcelain figure","3","Light_Matched","",""
"","","","","","fixation","5564","html-keyboard-response","101","192395","0.0-6.0-2.16","1","3","2022-11-17 14:24:53","27f05a78553e1e210bb6d9ff2204662f","","Mozilla/5.0 (Windows NT 10.0; Win64; x64) AppleWebKit/537.36 (KHTML, like Gecko) Chrome/107.0.0.0 Safari/537.36","WebKit","Chrome","107.0.0.0","Windows","10.0","null","null","","<p style=""font-size: 48px;"">+</p>","3","Light_Matched","",""
"","","","","","picture","5564","image-keyboard-response","102","193299","0.0-6.0-3.16","1","3","2022-11-17 14:24:53","27f05a78553e1e210bb6d9ff2204662f","","Mozilla/5.0 (Windows NT 10.0; Win64; x64) AppleWebKit/537.36 (KHTML, like Gecko) Chrome/107.0.0.0 Safari/537.36","WebKit","Chrome","107.0.0.0","Windows","10.0","899","s","","figureS.jpg","3","Light_Matched","true",""
"","","","","","fixation","5564","html-keyboard-response","103","194314","0.0-6.0-0.17","1","3","2022-11-17 14:24:53","27f05a78553e1e210bb6d9ff2204662f","","Mozilla/5.0 (Windows NT 10.0; Win64; x64) AppleWebKit/537.36 (KHTML, like Gecko) Chrome/107.0.0.0 Safari/537.36","WebKit","Chrome","107.0.0.0","Windows","10.0","null","null","","<p style=""font-size: 48px;"">+</p>","3","Filler","",""
"","","","","","sentence","5564","html-keyboard-response","104","196015","0.0-6.0-1.17","1","3","2022-11-17 14:24:53","27f05a78553e1e210bb6d9ff2204662f","","Mozilla/5.0 (Windows NT 10.0; Win64; x64) AppleWebKit/537.36 (KHTML, like Gecko) Chrome/107.0.0.0 Safari/537.36","WebKit","Chrome","107.0.0.0","Windows","10.0","1696"," ","","A pencil was placed on the shoe","3","Filler","",""
"","","","","","fixation","5564","html-keyboard-response","105","196523","0.0-6.0-2.17","1","3","2022-11-17 14:24:53","27f05a78553e1e210bb6d9ff2204662f","","Mozilla/5.0 (Windows NT 10.0; Win64; x64) AppleWebKit/537.36 (KHTML, like Gecko) Chrome/107.0.0.0 Safari/537.36","WebKit","Chrome","107.0.0.0","Windows","10.0","null","null","","<p style=""font-size: 48px;"">+</p>","3","Filler","",""
"","","","","","picture","5564","image-keyboard-response","106","197162","0.0-6.0-3.17","1","3","2022-11-17 14:24:53","27f05a78553e1e210bb6d9ff2204662f","","Mozilla/5.0 (Windows NT 10.0; Win64; x64) AppleWebKit/537.36 (KHTML, like Gecko) Chrome/107.0.0.0 Safari/537.36","WebKit","Chrome","107.0.0.0","Windows","10.0","634","n","","perfume.jpg","3","Filler","true",""
"","","","","","fixation","5564","html-keyboard-response","107","198170","0.0-6.0-0.18","1","3","2022-11-17 14:24:53","27f05a78553e1e210bb6d9ff2204662f","","Mozilla/5.0 (Windows NT 10.0; Win64; x64) AppleWebKit/537.36 (KHTML, like Gecko) Chrome/107.0.0.0 Safari/537.36","WebKit","Chrome","107.0.0.0","Windows","10.0","null","null","","<p style=""font-size: 48px;"">+</p>","3","Heavy_Contradictory","",""
"","","","","","sentence","5564","html-keyboard-response","108","200033","0.0-6.0-1.18","1","3","2022-11-17 14:24:53","27f05a78553e1e210bb6d9ff2204662f","","Mozilla/5.0 (Windows NT 10.0; Win64; x64) AppleWebKit/537.36 (KHTML, like Gecko) Chrome/107.0.0.0 Safari/537.36","WebKit","Chrome","107.0.0.0","Windows","10.0","1858"," ","","A bowling ball dropped and touched a tomato","3","Heavy_Contradictory","",""
"","","","","","fixation","5564","html-keyboard-response","109","200546","0.0-6.0-2.18","1","3","2022-11-17 14:24:53","27f05a78553e1e210bb6d9ff2204662f","","Mozilla/5.0 (Windows NT 10.0; Win64; x64) AppleWebKit/537.36 (KHTML, like Gecko) Chrome/107.0.0.0 Safari/537.36","WebKit","Chrome","107.0.0.0","Windows","10.0","null","null","","<p style=""font-size: 48px;"">+</p>","3","Heavy_Contradictory","",""
"","","","","","picture","5564","image-keyboard-response","110","201079","0.0-6.0-3.18","1","3","2022-11-17 14:24:53","27f05a78553e1e210bb6d9ff2204662f","","Mozilla/5.0 (Windows NT 10.0; Win64; x64) AppleWebKit/537.36 (KHTML, like Gecko) Chrome/107.0.0.0 Safari/537.36","WebKit","Chrome","107.0.0.0","Windows","10.0","526","s","","tomatoS.jpg","3","Heavy_Contradictory","true",""
"","","","","","fixation","5564","html-keyboard-response","111","202090","0.0-6.0-0.19","1","3","2022-11-17 14:24:53","27f05a78553e1e210bb6d9ff2204662f","","Mozilla/5.0 (Windows NT 10.0; Win64; x64) AppleWebKit/537.36 (KHTML, like Gecko) Chrome/107.0.0.0 Safari/537.36","WebKit","Chrome","107.0.0.0","Windows","10.0","null","null","","<p style=""font-size: 48px;"">+</p>","3","Filler","",""
"","","","","","sentence","5564","html-keyboard-response","112","203869","0.0-6.0-1.19","1","3","2022-11-17 14:24:53","27f05a78553e1e210bb6d9ff2204662f","","Mozilla/5.0 (Windows NT 10.0; Win64; x64) AppleWebKit/537.36 (KHTML, like Gecko) Chrome/107.0.0.0 Safari/537.36","WebKit","Chrome","107.0.0.0","Windows","10.0","1773"," ","","A photographer is taking a photo of a lion","3","Filler","",""
"","","","","","fixation","5564","html-keyboard-response","113","204378","0.0-6.0-2.19","1","3","2022-11-17 14:24:53","27f05a78553e1e210bb6d9ff2204662f","","Mozilla/5.0 (Windows NT 10.0; Win64; x64) AppleWebKit/537.36 (KHTML, like Gecko) Chrome/107.0.0.0 Safari/537.36","WebKit","Chrome","107.0.0.0","Windows","10.0","null","null","","<p style=""font-size: 48px;"">+</p>","3","Filler","",""
"","","","","","picture","5564","image-keyboard-response","114","204915","0.0-6.0-3.19","1","3","2022-11-17 14:24:53","27f05a78553e1e210bb6d9ff2204662f","","Mozilla/5.0 (Windows NT 10.0; Win64; x64) AppleWebKit/537.36 (KHTML, like Gecko) Chrome/107.0.0.0 Safari/537.36","WebKit","Chrome","107.0.0.0","Windows","10.0","531","s","","lion.jpg","3","Filler","true",""
"","","","","","fixation","5564","html-keyboard-response","115","205922","0.0-6.0-0.20","1","3","2022-11-17 14:24:53","27f05a78553e1e210bb6d9ff2204662f","","Mozilla/5.0 (Windows NT 10.0; Win64; x64) AppleWebKit/537.36 (KHTML, like Gecko) Chrome/107.0.0.0 Safari/537.36","WebKit","Chrome","107.0.0.0","Windows","10.0","null","null","","<p style=""font-size: 48px;"">+</p>","3","Filler","",""
"","","","","","sentence","5564","html-keyboard-response","116","207722","0.0-6.0-1.20","1","3","2022-11-17 14:24:53","27f05a78553e1e210bb6d9ff2204662f","","Mozilla/5.0 (Windows NT 10.0; Win64; x64) AppleWebKit/537.36 (KHTML, like Gecko) Chrome/107.0.0.0 Safari/537.36","WebKit","Chrome","107.0.0.0","Windows","10.0","1796"," ","","A ring was placed on the newspaper","3","Filler","",""
"","","","","","fixation","5564","html-keyboard-response","117","208234","0.0-6.0-2.20","1","3","2022-11-17 14:24:53","27f05a78553e1e210bb6d9ff2204662f","","Mozilla/5.0 (Windows NT 10.0; Win64; x64) AppleWebKit/537.36 (KHTML, like Gecko) Chrome/107.0.0.0 Safari/537.36","WebKit","Chrome","107.0.0.0","Windows","10.0","null","null","","<p style=""font-size: 48px;"">+</p>","3","Filler","",""
"","","","","","picture","5564","image-keyboard-response","118","208891","0.0-6.0-3.20","1","3","2022-11-17 14:24:53","27f05a78553e1e210bb6d9ff2204662f","","Mozilla/5.0 (Windows NT 10.0; Win64; x64) AppleWebKit/537.36 (KHTML, like Gecko) Chrome/107.0.0.0 Safari/537.36","WebKit","Chrome","107.0.0.0","Windows","10.0","651","n","","cat.jpg","3","Filler","true",""
"","","","","","fixation","5564","html-keyboard-response","119","209903","0.0-6.0-0.21","1","3","2022-11-17 14:24:53","27f05a78553e1e210bb6d9ff2204662f","","Mozilla/5.0 (Windows NT 10.0; Win64; x64) AppleWebKit/537.36 (KHTML, like Gecko) Chrome/107.0.0.0 Safari/537.36","WebKit","Chrome","107.0.0.0","Windows","10.0","null","null","","<p style=""font-size: 48px;"">+</p>","3","Light_Matched","",""
"","","","","","sentence","5564","html-keyboard-response","120","211525","0.0-6.0-1.21","1","3","2022-11-17 14:24:53","27f05a78553e1e210bb6d9ff2204662f","","Mozilla/5.0 (Windows NT 10.0; Win64; x64) AppleWebKit/537.36 (KHTML, like Gecko) Chrome/107.0.0.0 Safari/537.36","WebKit","Chrome","107.0.0.0","Windows","10.0","1616"," ","","A balloon dropped and touched a cracker","3","Light_Matched","",""
"","","","","","fixation","5564","html-keyboard-response","121","212034","0.0-6.0-2.21","1","3","2022-11-17 14:24:53","27f05a78553e1e210bb6d9ff2204662f","","Mozilla/5.0 (Windows NT 10.0; Win64; x64) AppleWebKit/537.36 (KHTML, like Gecko) Chrome/107.0.0.0 Safari/537.36","WebKit","Chrome","107.0.0.0","Windows","10.0","null","null","","<p style=""font-size: 48px;"">+</p>","3","Light_Matched","",""
"","","","","","picture","5564","image-keyboard-response","122","212695","0.0-6.0-3.21","1","3","2022-11-17 14:24:53","27f05a78553e1e210bb6d9ff2204662f","","Mozilla/5.0 (Windows NT 10.0; Win64; x64) AppleWebKit/537.36 (KHTML, like Gecko) Chrome/107.0.0.0 Safari/537.36","WebKit","Chrome","107.0.0.0","Windows","10.0","648","s","","crackerS.jpg","3","Light_Matched","true",""
"","","","","","fixation","5564","html-keyboard-response","123","213710","0.0-6.0-0.22","1","3","2022-11-17 14:24:53","27f05a78553e1e210bb6d9ff2204662f","","Mozilla/5.0 (Windows NT 10.0; Win64; x64) AppleWebKit/537.36 (KHTML, like Gecko) Chrome/107.0.0.0 Safari/537.36","WebKit","Chrome","107.0.0.0","Windows","10.0","null","null","","<p style=""font-size: 48px;"">+</p>","3","Filler","",""
"","","","","","sentence","5564","html-keyboard-response","124","216390","0.0-6.0-1.22","1","3","2022-11-17 14:24:53","27f05a78553e1e210bb6d9ff2204662f","","Mozilla/5.0 (Windows NT 10.0; Win64; x64) AppleWebKit/537.36 (KHTML, like Gecko) Chrome/107.0.0.0 Safari/537.36","WebKit","Chrome","107.0.0.0","Windows","10.0","2676"," ","","A cook is taking a knife","3","Filler","",""
"","","","","","fixation","5564","html-keyboard-response","125","216898","0.0-6.0-2.22","1","3","2022-11-17 14:24:53","27f05a78553e1e210bb6d9ff2204662f","","Mozilla/5.0 (Windows NT 10.0; Win64; x64) AppleWebKit/537.36 (KHTML, like Gecko) Chrome/107.0.0.0 Safari/537.36","WebKit","Chrome","107.0.0.0","Windows","10.0","null","null","","<p style=""font-size: 48px;"">+</p>","3","Filler","",""
"","","","","","picture","5564","image-keyboard-response","126","217496","0.0-6.0-3.22","1","3","2022-11-17 14:24:53","27f05a78553e1e210bb6d9ff2204662f","","Mozilla/5.0 (Windows NT 10.0; Win64; x64) AppleWebKit/537.36 (KHTML, like Gecko) Chrome/107.0.0.0 Safari/537.36","WebKit","Chrome","107.0.0.0","Windows","10.0","593","s","","knife.jpg","3","Filler","true",""
"","","","","","fixation","5564","html-keyboard-response","127","218506","0.0-6.0-0.23","1","3","2022-11-17 14:24:53","27f05a78553e1e210bb6d9ff2204662f","","Mozilla/5.0 (Windows NT 10.0; Win64; x64) AppleWebKit/537.36 (KHTML, like Gecko) Chrome/107.0.0.0 Safari/537.36","WebKit","Chrome","107.0.0.0","Windows","10.0","null","null","","<p style=""font-size: 48px;"">+</p>","3","Light_Contradictory","",""
"","","","","","sentence","5564","html-keyboard-response","128","220224","0.0-6.0-1.23","1","3","2022-11-17 14:24:53","27f05a78553e1e210bb6d9ff2204662f","","Mozilla/5.0 (Windows NT 10.0; Win64; x64) AppleWebKit/537.36 (KHTML, like Gecko) Chrome/107.0.0.0 Safari/537.36","WebKit","Chrome","107.0.0.0","Windows","10.0","1713"," ","","A balloon dropped and smashed a chocolate ice-cream","3","Light_Contradictory","",""
"","","","","","fixation","5564","html-keyboard-response","129","220740","0.0-6.0-2.23","1","3","2022-11-17 14:24:53","27f05a78553e1e210bb6d9ff2204662f","","Mozilla/5.0 (Windows NT 10.0; Win64; x64) AppleWebKit/537.36 (KHTML, like Gecko) Chrome/107.0.0.0 Safari/537.36","WebKit","Chrome","107.0.0.0","Windows","10.0","null","null","","<p style=""font-size: 48px;"">+</p>","3","Light_Contradictory","",""
"","","","","","picture","5564","image-keyboard-response","130","221499","0.0-6.0-3.23","1","3","2022-11-17 14:24:53","27f05a78553e1e210bb6d9ff2204662f","","Mozilla/5.0 (Windows NT 10.0; Win64; x64) AppleWebKit/537.36 (KHTML, like Gecko) Chrome/107.0.0.0 Safari/537.36","WebKit","Chrome","107.0.0.0","Windows","10.0","753","s","","icecreamS.jpg","3","Light_Contradictory","true",""
"","","","","","fixation","5564","html-keyboard-response","131","222506","0.0-6.0-0.24","1","3","2022-11-17 14:24:53","27f05a78553e1e210bb6d9ff2204662f","","Mozilla/5.0 (Windows NT 10.0; Win64; x64) AppleWebKit/537.36 (KHTML, like Gecko) Chrome/107.0.0.0 Safari/537.36","WebKit","Chrome","107.0.0.0","Windows","10.0","null","null","","<p style=""font-size: 48px;"">+</p>","3","Filler","",""
"","","","","","sentence","5564","html-keyboard-response","132","224840","0.0-6.0-1.24","1","3","2022-11-17 14:24:53","27f05a78553e1e210bb6d9ff2204662f","","Mozilla/5.0 (Windows NT 10.0; Win64; x64) AppleWebKit/537.36 (KHTML, like Gecko) Chrome/107.0.0.0 Safari/537.36","WebKit","Chrome","107.0.0.0","Windows","10.0","2327"," ","","A police officer is talking on the phone","3","Filler","",""
"","","","","","fixation","5564","html-keyboard-response","133","225346","0.0-6.0-2.24","1","3","2022-11-17 14:24:53","27f05a78553e1e210bb6d9ff2204662f","","Mozilla/5.0 (Windows NT 10.0; Win64; x64) AppleWebKit/537.36 (KHTML, like Gecko) Chrome/107.0.0.0 Safari/537.36","WebKit","Chrome","107.0.0.0","Windows","10.0","null","null","","<p style=""font-size: 48px;"">+</p>","3","Filler","",""
"","","","","","picture","5564","image-keyboard-response","134","226168","0.0-6.0-3.24","1","3","2022-11-17 14:24:53","27f05a78553e1e210bb6d9ff2204662f","","Mozilla/5.0 (Windows NT 10.0; Win64; x64) AppleWebKit/537.36 (KHTML, like Gecko) Chrome/107.0.0.0 Safari/537.36","WebKit","Chrome","107.0.0.0","Windows","10.0","816","n","","tissuebox.jpg","3","Filler","true",""
"","","","","","fixation","5564","html-keyboard-response","135","227179","0.0-6.0-0.25","1","3","2022-11-17 14:24:53","27f05a78553e1e210bb6d9ff2204662f","","Mozilla/5.0 (Windows NT 10.0; Win64; x64) AppleWebKit/537.36 (KHTML, like Gecko) Chrome/107.0.0.0 Safari/537.36","WebKit","Chrome","107.0.0.0","Windows","10.0","null","null","","<p style=""font-size: 48px;"">+</p>","3","Heavy_Contradictory","",""
"","","","","","sentence","5564","html-keyboard-response","136","229556","0.0-6.0-1.25","1","3","2022-11-17 14:24:53","27f05a78553e1e210bb6d9ff2204662f","","Mozilla/5.0 (Windows NT 10.0; Win64; x64) AppleWebKit/537.36 (KHTML, like Gecko) Chrome/107.0.0.0 Safari/537.36","WebKit","Chrome","107.0.0.0","Windows","10.0","2371"," ","","A bowling ball dropped and touched a vase","3","Heavy_Contradictory","",""
"","","","","","fixation","5564","html-keyboard-response","137","230065","0.0-6.0-2.25","1","3","2022-11-17 14:24:53","27f05a78553e1e210bb6d9ff2204662f","","Mozilla/5.0 (Windows NT 10.0; Win64; x64) AppleWebKit/537.36 (KHTML, like Gecko) Chrome/107.0.0.0 Safari/537.36","WebKit","Chrome","107.0.0.0","Windows","10.0","null","null","","<p style=""font-size: 48px;"">+</p>","3","Heavy_Contradictory","",""
"","","","","","picture","5564","image-keyboard-response","138","230720","0.0-6.0-3.25","1","3","2022-11-17 14:24:53","27f05a78553e1e210bb6d9ff2204662f","","Mozilla/5.0 (Windows NT 10.0; Win64; x64) AppleWebKit/537.36 (KHTML, like Gecko) Chrome/107.0.0.0 Safari/537.36","WebKit","Chrome","107.0.0.0","Windows","10.0","648","s","","vaseS.jpg","3","Heavy_Contradictory","true",""
"","","","","","fixation","5564","html-keyboard-response","139","231734","0.0-6.0-0.26","1","3","2022-11-17 14:24:53","27f05a78553e1e210bb6d9ff2204662f","","Mozilla/5.0 (Windows NT 10.0; Win64; x64) AppleWebKit/537.36 (KHTML, like Gecko) Chrome/107.0.0.0 Safari/537.36","WebKit","Chrome","107.0.0.0","Windows","10.0","null","null","","<p style=""font-size: 48px;"">+</p>","3","Light_Matched","",""
"","","","","","sentence","5564","html-keyboard-response","140","233315","0.0-6.0-1.26","1","3","2022-11-17 14:24:53","27f05a78553e1e210bb6d9ff2204662f","","Mozilla/5.0 (Windows NT 10.0; Win64; x64) AppleWebKit/537.36 (KHTML, like Gecko) Chrome/107.0.0.0 Safari/537.36","WebKit","Chrome","107.0.0.0","Windows","10.0","1576"," ","","A balloon dropped and touched a wineglass","3","Light_Matched","",""
"","","","","","fixation","5564","html-keyboard-response","141","233825","0.0-6.0-2.26","1","3","2022-11-17 14:24:53","27f05a78553e1e210bb6d9ff2204662f","","Mozilla/5.0 (Windows NT 10.0; Win64; x64) AppleWebKit/537.36 (KHTML, like Gecko) Chrome/107.0.0.0 Safari/537.36","WebKit","Chrome","107.0.0.0","Windows","10.0","null","null","","<p style=""font-size: 48px;"">+</p>","3","Light_Matched","",""
"","","","","","picture","5564","image-keyboard-response","142","234522","0.0-6.0-3.26","1","3","2022-11-17 14:24:53","27f05a78553e1e210bb6d9ff2204662f","","Mozilla/5.0 (Windows NT 10.0; Win64; x64) AppleWebKit/537.36 (KHTML, like Gecko) Chrome/107.0.0.0 Safari/537.36","WebKit","Chrome","107.0.0.0","Windows","10.0","690","s","","wineglassS.jpg","3","Light_Matched","true",""
"","","","","","fixation","5564","html-keyboard-response","143","235530","0.0-6.0-0.27","1","3","2022-11-17 14:24:53","27f05a78553e1e210bb6d9ff2204662f","","Mozilla/5.0 (Windows NT 10.0; Win64; x64) AppleWebKit/537.36 (KHTML, like Gecko) Chrome/107.0.0.0 Safari/537.36","WebKit","Chrome","107.0.0.0","Windows","10.0","null","null","","<p style=""font-size: 48px;"">+</p>","3","Filler","",""
"","","","","","sentence","5564","html-keyboard-response","144","236737","0.0-6.0-1.27","1","3","2022-11-17 14:24:53","27f05a78553e1e210bb6d9ff2204662f","","Mozilla/5.0 (Windows NT 10.0; Win64; x64) AppleWebKit/537.36 (KHTML, like Gecko) Chrome/107.0.0.0 Safari/537.36","WebKit","Chrome","107.0.0.0","Windows","10.0","1201"," ","","A hairdresser is taking scissors","3","Filler","",""
"","","","","","fixation","5564","html-keyboard-response","145","237251","0.0-6.0-2.27","1","3","2022-11-17 14:24:53","27f05a78553e1e210bb6d9ff2204662f","","Mozilla/5.0 (Windows NT 10.0; Win64; x64) AppleWebKit/537.36 (KHTML, like Gecko) Chrome/107.0.0.0 Safari/537.36","WebKit","Chrome","107.0.0.0","Windows","10.0","null","null","","<p style=""font-size: 48px;"">+</p>","3","Filler","",""
"","","","","","picture","5564","image-keyboard-response","146","237928","0.0-6.0-3.27","1","3","2022-11-17 14:24:53","27f05a78553e1e210bb6d9ff2204662f","","Mozilla/5.0 (Windows NT 10.0; Win64; x64) AppleWebKit/537.36 (KHTML, like Gecko) Chrome/107.0.0.0 Safari/537.36","WebKit","Chrome","107.0.0.0","Windows","10.0","670","n","","sock.jpg","3","Filler","true",""
"","","","","","fixation","5564","html-keyboard-response","147","238938","0.0-6.0-0.28","1","3","2022-11-17 14:24:53","27f05a78553e1e210bb6d9ff2204662f","","Mozilla/5.0 (Windows NT 10.0; Win64; x64) AppleWebKit/537.36 (KHTML, like Gecko) Chrome/107.0.0.0 Safari/537.36","WebKit","Chrome","107.0.0.0","Windows","10.0","null","null","","<p style=""font-size: 48px;"">+</p>","3","Filler","",""
"","","","","","sentence","5564","html-keyboard-response","148","240479","0.0-6.0-1.28","1","3","2022-11-17 14:24:53","27f05a78553e1e210bb6d9ff2204662f","","Mozilla/5.0 (Windows NT 10.0; Win64; x64) AppleWebKit/537.36 (KHTML, like Gecko) Chrome/107.0.0.0 Safari/537.36","WebKit","Chrome","107.0.0.0","Windows","10.0","1534"," ","","A cat is drinking water from a bowl","3","Filler","",""
"","","","","","fixation","5564","html-keyboard-response","149","240986","0.0-6.0-2.28","1","3","2022-11-17 14:24:53","27f05a78553e1e210bb6d9ff2204662f","","Mozilla/5.0 (Windows NT 10.0; Win64; x64) AppleWebKit/537.36 (KHTML, like Gecko) Chrome/107.0.0.0 Safari/537.36","WebKit","Chrome","107.0.0.0","Windows","10.0","null","null","","<p style=""font-size: 48px;"">+</p>","3","Filler","",""
"","","","","","picture","5564","image-keyboard-response","150","241783","0.0-6.0-3.28","1","3","2022-11-17 14:24:53","27f05a78553e1e210bb6d9ff2204662f","","Mozilla/5.0 (Windows NT 10.0; Win64; x64) AppleWebKit/537.36 (KHTML, like Gecko) Chrome/107.0.0.0 Safari/537.36","WebKit","Chrome","107.0.0.0","Windows","10.0","790","s","","bowl.jpg","3","Filler","true",""
"","","","","","fixation","5564","html-keyboard-response","151","242794","0.0-6.0-0.29","1","3","2022-11-17 14:24:53","27f05a78553e1e210bb6d9ff2204662f","","Mozilla/5.0 (Windows NT 10.0; Win64; x64) AppleWebKit/537.36 (KHTML, like Gecko) Chrome/107.0.0.0 Safari/537.36","WebKit","Chrome","107.0.0.0","Windows","10.0","null","null","","<p style=""font-size: 48px;"">+</p>","3","Filler","",""
"","","","","","sentence","5564","html-keyboard-response","152","244083","0.0-6.0-1.29","1","3","2022-11-17 14:24:53","27f05a78553e1e210bb6d9ff2204662f","","Mozilla/5.0 (Windows NT 10.0; Win64; x64) AppleWebKit/537.36 (KHTML, like Gecko) Chrome/107.0.0.0 Safari/537.36","WebKit","Chrome","107.0.0.0","Windows","10.0","1283"," ","","A panda is resting on a tree","3","Filler","",""
"","","","","","fixation","5564","html-keyboard-response","153","244594","0.0-6.0-2.29","1","3","2022-11-17 14:24:53","27f05a78553e1e210bb6d9ff2204662f","","Mozilla/5.0 (Windows NT 10.0; Win64; x64) AppleWebKit/537.36 (KHTML, like Gecko) Chrome/107.0.0.0 Safari/537.36","WebKit","Chrome","107.0.0.0","Windows","10.0","null","null","","<p style=""font-size: 48px;"">+</p>","3","Filler","",""
"","","","","","picture","5564","image-keyboard-response","154","245137","0.0-6.0-3.29","1","3","2022-11-17 14:24:53","27f05a78553e1e210bb6d9ff2204662f","","Mozilla/5.0 (Windows NT 10.0; Win64; x64) AppleWebKit/537.36 (KHTML, like Gecko) Chrome/107.0.0.0 Safari/537.36","WebKit","Chrome","107.0.0.0","Windows","10.0","535","n","","dollar.jpg","3","Filler","true",""
"","","","","","fixation","5564","html-keyboard-response","155","246147","0.0-6.0-0.30","1","3","2022-11-17 14:24:53","27f05a78553e1e210bb6d9ff2204662f","","Mozilla/5.0 (Windows NT 10.0; Win64; x64) AppleWebKit/537.36 (KHTML, like Gecko) Chrome/107.0.0.0 Safari/537.36","WebKit","Chrome","107.0.0.0","Windows","10.0","null","null","","<p style=""font-size: 48px;"">+</p>","3","Filler","",""
"","","","","","sentence","5564","html-keyboard-response","156","247177","0.0-6.0-1.30","1","3","2022-11-17 14:24:53","27f05a78553e1e210bb6d9ff2204662f","","Mozilla/5.0 (Windows NT 10.0; Win64; x64) AppleWebKit/537.36 (KHTML, like Gecko) Chrome/107.0.0.0 Safari/537.36","WebKit","Chrome","107.0.0.0","Windows","10.0","1024"," ","","A student is writing on a board","3","Filler","",""
"","","","","","fixation","5564","html-keyboard-response","157","247684","0.0-6.0-2.30","1","3","2022-11-17 14:24:53","27f05a78553e1e210bb6d9ff2204662f","","Mozilla/5.0 (Windows NT 10.0; Win64; x64) AppleWebKit/537.36 (KHTML, like Gecko) Chrome/107.0.0.0 Safari/537.36","WebKit","Chrome","107.0.0.0","Windows","10.0","null","null","","<p style=""font-size: 48px;"">+</p>","3","Filler","",""
"","","","","","picture","5564","image-keyboard-response","158","248370","0.0-6.0-3.30","1","3","2022-11-17 14:24:53","27f05a78553e1e210bb6d9ff2204662f","","Mozilla/5.0 (Windows NT 10.0; Win64; x64) AppleWebKit/537.36 (KHTML, like Gecko) Chrome/107.0.0.0 Safari/537.36","WebKit","Chrome","107.0.0.0","Windows","10.0","683","n","","owl.jpg","3","Filler","true",""
"","","","","","fixation","5564","html-keyboard-response","159","249377","0.0-6.0-0.31","1","3","2022-11-17 14:24:53","27f05a78553e1e210bb6d9ff2204662f","","Mozilla/5.0 (Windows NT 10.0; Win64; x64) AppleWebKit/537.36 (KHTML, like Gecko) Chrome/107.0.0.0 Safari/537.36","WebKit","Chrome","107.0.0.0","Windows","10.0","null","null","","<p style=""font-size: 48px;"">+</p>","3","Filler","",""
"","","","","","sentence","5564","html-keyboard-response","160","251035","0.0-6.0-1.31","1","3","2022-11-17 14:24:53","27f05a78553e1e210bb6d9ff2204662f","","Mozilla/5.0 (Windows NT 10.0; Win64; x64) AppleWebKit/537.36 (KHTML, like Gecko) Chrome/107.0.0.0 Safari/537.36","WebKit","Chrome","107.0.0.0","Windows","10.0","1653"," ","","A keyboard was placed on the bed","3","Filler","",""
"","","","","","fixation","5564","html-keyboard-response","161","251545","0.0-6.0-2.31","1","3","2022-11-17 14:24:53","27f05a78553e1e210bb6d9ff2204662f","","Mozilla/5.0 (Windows NT 10.0; Win64; x64) AppleWebKit/537.36 (KHTML, like Gecko) Chrome/107.0.0.0 Safari/537.36","WebKit","Chrome","107.0.0.0","Windows","10.0","null","null","","<p style=""font-size: 48px;"">+</p>","3","Filler","",""
"","","","","","picture","5564","image-keyboard-response","162","252636","0.0-6.0-3.31","1","3","2022-11-17 14:24:53","27f05a78553e1e210bb6d9ff2204662f","","Mozilla/5.0 (Windows NT 10.0; Win64; x64) AppleWebKit/537.36 (KHTML, like Gecko) Chrome/107.0.0.0 Safari/537.36","WebKit","Chrome","107.0.0.0","Windows","10.0","1085","n","","bottlecap.jpg","3","Filler","true",""
"","","","","","fixation","5564","html-keyboard-response","163","253657","0.0-6.0-0.32","1","3","2022-11-17 14:24:53","27f05a78553e1e210bb6d9ff2204662f","","Mozilla/5.0 (Windows NT 10.0; Win64; x64) AppleWebKit/537.36 (KHTML, like Gecko) Chrome/107.0.0.0 Safari/537.36","WebKit","Chrome","107.0.0.0","Windows","10.0","null","null","","<p style=""font-size: 48px;"">+</p>","3","Light_Matched","",""
"","","","","","sentence","5564","html-keyboard-response","164","255481","0.0-6.0-1.32","1","3","2022-11-17 14:24:53","27f05a78553e1e210bb6d9ff2204662f","","Mozilla/5.0 (Windows NT 10.0; Win64; x64) AppleWebKit/537.36 (KHTML, like Gecko) Chrome/107.0.0.0 Safari/537.36","WebKit","Chrome","107.0.0.0","Windows","10.0","1818"," ","","A balloon dropped and touched an egg","3","Light_Matched","",""
"","","","","","fixation","5564","html-keyboard-response","165","255994","0.0-6.0-2.32","1","3","2022-11-17 14:24:53","27f05a78553e1e210bb6d9ff2204662f","","Mozilla/5.0 (Windows NT 10.0; Win64; x64) AppleWebKit/537.36 (KHTML, like Gecko) Chrome/107.0.0.0 Safari/537.36","WebKit","Chrome","107.0.0.0","Windows","10.0","null","null","","<p style=""font-size: 48px;"">+</p>","3","Light_Matched","",""
"","","","","","picture","5564","image-keyboard-response","166","256678","0.0-6.0-3.32","1","3","2022-11-17 14:24:53","27f05a78553e1e210bb6d9ff2204662f","","Mozilla/5.0 (Windows NT 10.0; Win64; x64) AppleWebKit/537.36 (KHTML, like Gecko) Chrome/107.0.0.0 Safari/537.36","WebKit","Chrome","107.0.0.0","Windows","10.0","678","s","","eggS.jpg","3","Light_Matched","true",""
"","","","","","fixation","5564","html-keyboard-response","167","257689","0.0-6.0-0.33","1","3","2022-11-17 14:24:53","27f05a78553e1e210bb6d9ff2204662f","","Mozilla/5.0 (Windows NT 10.0; Win64; x64) AppleWebKit/537.36 (KHTML, like Gecko) Chrome/107.0.0.0 Safari/537.36","WebKit","Chrome","107.0.0.0","Windows","10.0","null","null","","<p style=""font-size: 48px;"">+</p>","3","Filler","",""
"","","","","","sentence","5564","html-keyboard-response","168","259233","0.0-6.0-1.33","1","3","2022-11-17 14:24:53","27f05a78553e1e210bb6d9ff2204662f","","Mozilla/5.0 (Windows NT 10.0; Win64; x64) AppleWebKit/537.36 (KHTML, like Gecko) Chrome/107.0.0.0 Safari/537.36","WebKit","Chrome","107.0.0.0","Windows","10.0","1535"," ","","A postman is driving a car","3","Filler","",""
"","","","","","fixation","5564","html-keyboard-response","169","259746","0.0-6.0-2.33","1","3","2022-11-17 14:24:53","27f05a78553e1e210bb6d9ff2204662f","","Mozilla/5.0 (Windows NT 10.0; Win64; x64) AppleWebKit/537.36 (KHTML, like Gecko) Chrome/107.0.0.0 Safari/537.36","WebKit","Chrome","107.0.0.0","Windows","10.0","null","null","","<p style=""font-size: 48px;"">+</p>","3","Filler","",""
"","","","","","picture","5564","image-keyboard-response","170","260755","0.0-6.0-3.33","1","3","2022-11-17 14:24:53","27f05a78553e1e210bb6d9ff2204662f","","Mozilla/5.0 (Windows NT 10.0; Win64; x64) AppleWebKit/537.36 (KHTML, like Gecko) Chrome/107.0.0.0 Safari/537.36","WebKit","Chrome","107.0.0.0","Windows","10.0","1007","s","","car.jpg","3","Filler","true",""
"","","","","","fixation","5564","html-keyboard-response","171","261777","0.0-6.0-0.34","1","3","2022-11-17 14:24:53","27f05a78553e1e210bb6d9ff2204662f","","Mozilla/5.0 (Windows NT 10.0; Win64; x64) AppleWebKit/537.36 (KHTML, like Gecko) Chrome/107.0.0.0 Safari/537.36","WebKit","Chrome","107.0.0.0","Windows","10.0","null","null","","<p style=""font-size: 48px;"">+</p>","3","Filler","",""
"","","","","","sentence","5564","html-keyboard-response","172","263453","0.0-6.0-1.34","1","3","2022-11-17 14:24:53","27f05a78553e1e210bb6d9ff2204662f","","Mozilla/5.0 (Windows NT 10.0; Win64; x64) AppleWebKit/537.36 (KHTML, like Gecko) Chrome/107.0.0.0 Safari/537.36","WebKit","Chrome","107.0.0.0","Windows","10.0","1671"," ","","A president is writing in the notebook","3","Filler","",""
"","","","","","fixation","5564","html-keyboard-response","173","263962","0.0-6.0-2.34","1","3","2022-11-17 14:24:53","27f05a78553e1e210bb6d9ff2204662f","","Mozilla/5.0 (Windows NT 10.0; Win64; x64) AppleWebKit/537.36 (KHTML, like Gecko) Chrome/107.0.0.0 Safari/537.36","WebKit","Chrome","107.0.0.0","Windows","10.0","null","null","","<p style=""font-size: 48px;"">+</p>","3","Filler","",""
"","","","","","picture","5564","image-keyboard-response","174","264622","0.0-6.0-3.34","1","3","2022-11-17 14:24:53","27f05a78553e1e210bb6d9ff2204662f","","Mozilla/5.0 (Windows NT 10.0; Win64; x64) AppleWebKit/537.36 (KHTML, like Gecko) Chrome/107.0.0.0 Safari/537.36","WebKit","Chrome","107.0.0.0","Windows","10.0","653","n","","can.jpg","3","Filler","true",""
"","","","","","fixation","5564","html-keyboard-response","175","265635","0.0-6.0-0.35","1","3","2022-11-17 14:24:53","27f05a78553e1e210bb6d9ff2204662f","","Mozilla/5.0 (Windows NT 10.0; Win64; x64) AppleWebKit/537.36 (KHTML, like Gecko) Chrome/107.0.0.0 Safari/537.36","WebKit","Chrome","107.0.0.0","Windows","10.0","null","null","","<p style=""font-size: 48px;"">+</p>","3","Filler","",""
"","","","","","sentence","5564","html-keyboard-response","176","267031","0.0-6.0-1.35","1","3","2022-11-17 14:24:53","27f05a78553e1e210bb6d9ff2204662f","","Mozilla/5.0 (Windows NT 10.0; Win64; x64) AppleWebKit/537.36 (KHTML, like Gecko) Chrome/107.0.0.0 Safari/537.36","WebKit","Chrome","107.0.0.0","Windows","10.0","1390"," ","","A mouse is eating cheese","3","Filler","",""
"","","","","","fixation","5564","html-keyboard-response","177","267538","0.0-6.0-2.35","1","3","2022-11-17 14:24:53","27f05a78553e1e210bb6d9ff2204662f","","Mozilla/5.0 (Windows NT 10.0; Win64; x64) AppleWebKit/537.36 (KHTML, like Gecko) Chrome/107.0.0.0 Safari/537.36","WebKit","Chrome","107.0.0.0","Windows","10.0","null","null","","<p style=""font-size: 48px;"">+</p>","3","Filler","",""
"","","","","","picture","5564","image-keyboard-response","178","268113","0.0-6.0-3.35","1","3","2022-11-17 14:24:53","27f05a78553e1e210bb6d9ff2204662f","","Mozilla/5.0 (Windows NT 10.0; Win64; x64) AppleWebKit/537.36 (KHTML, like Gecko) Chrome/107.0.0.0 Safari/537.36","WebKit","Chrome","107.0.0.0","Windows","10.0","566","n","","ring.jpg","3","Filler","true",""
"","","","","","fixation","5564","html-keyboard-response","179","269121","0.0-6.0-0.36","1","3","2022-11-17 14:24:53","27f05a78553e1e210bb6d9ff2204662f","","Mozilla/5.0 (Windows NT 10.0; Win64; x64) AppleWebKit/537.36 (KHTML, like Gecko) Chrome/107.0.0.0 Safari/537.36","WebKit","Chrome","107.0.0.0","Windows","10.0","null","null","","<p style=""font-size: 48px;"">+</p>","3","Filler","",""
"","","","","","sentence","5564","html-keyboard-response","180","270891","0.0-6.0-1.36","1","3","2022-11-17 14:24:53","27f05a78553e1e210bb6d9ff2204662f","","Mozilla/5.0 (Windows NT 10.0; Win64; x64) AppleWebKit/537.36 (KHTML, like Gecko) Chrome/107.0.0.0 Safari/537.36","WebKit","Chrome","107.0.0.0","Windows","10.0","1764"," ","","A giraffe is playing with a zebra","3","Filler","",""
"","","","","","fixation","5564","html-keyboard-response","181","271399","0.0-6.0-2.36","1","3","2022-11-17 14:24:53","27f05a78553e1e210bb6d9ff2204662f","","Mozilla/5.0 (Windows NT 10.0; Win64; x64) AppleWebKit/537.36 (KHTML, like Gecko) Chrome/107.0.0.0 Safari/537.36","WebKit","Chrome","107.0.0.0","Windows","10.0","null","null","","<p style=""font-size: 48px;"">+</p>","3","Filler","",""
"","","","","","picture","5564","image-keyboard-response","182","271986","0.0-6.0-3.36","1","3","2022-11-17 14:24:53","27f05a78553e1e210bb6d9ff2204662f","","Mozilla/5.0 (Windows NT 10.0; Win64; x64) AppleWebKit/537.36 (KHTML, like Gecko) Chrome/107.0.0.0 Safari/537.36","WebKit","Chrome","107.0.0.0","Windows","10.0","579","n","","wallet.jpg","3","Filler","true",""
"","","","","","fixation","5564","html-keyboard-response","183","272994","0.0-6.0-0.37","1","3","2022-11-17 14:24:53","27f05a78553e1e210bb6d9ff2204662f","","Mozilla/5.0 (Windows NT 10.0; Win64; x64) AppleWebKit/537.36 (KHTML, like Gecko) Chrome/107.0.0.0 Safari/537.36","WebKit","Chrome","107.0.0.0","Windows","10.0","null","null","","<p style=""font-size: 48px;"">+</p>","3","Filler","",""
"","","","","","sentence","5564","html-keyboard-response","184","274012","0.0-6.0-1.37","1","3","2022-11-17 14:24:53","27f05a78553e1e210bb6d9ff2204662f","","Mozilla/5.0 (Windows NT 10.0; Win64; x64) AppleWebKit/537.36 (KHTML, like Gecko) Chrome/107.0.0.0 Safari/537.36","WebKit","Chrome","107.0.0.0","Windows","10.0","1011"," ","","A donkey is drinking water.","3","Filler","",""
"","","","","","fixation","5564","html-keyboard-response","185","274522","0.0-6.0-2.37","1","3","2022-11-17 14:24:53","27f05a78553e1e210bb6d9ff2204662f","","Mozilla/5.0 (Windows NT 10.0; Win64; x64) AppleWebKit/537.36 (KHTML, like Gecko) Chrome/107.0.0.0 Safari/537.36","WebKit","Chrome","107.0.0.0","Windows","10.0","null","null","","<p style=""font-size: 48px;"">+</p>","3","Filler","",""
"","","","","","picture","5564","image-keyboard-response","186","275266","0.0-6.0-3.37","1","3","2022-11-17 14:24:53","27f05a78553e1e210bb6d9ff2204662f","","Mozilla/5.0 (Windows NT 10.0; Win64; x64) AppleWebKit/537.36 (KHTML, like Gecko) Chrome/107.0.0.0 Safari/537.36","WebKit","Chrome","107.0.0.0","Windows","10.0","736","n","","couch.jpg","3","Filler","true",""
"","","","","","fixation","5564","html-keyboard-response","187","276274","0.0-6.0-0.38","1","3","2022-11-17 14:24:53","27f05a78553e1e210bb6d9ff2204662f","","Mozilla/5.0 (Windows NT 10.0; Win64; x64) AppleWebKit/537.36 (KHTML, like Gecko) Chrome/107.0.0.0 Safari/537.36","WebKit","Chrome","107.0.0.0","Windows","10.0","null","null","","<p style=""font-size: 48px;"">+</p>","3","Heavy_Contradictory","",""
"","","","","","sentence","5564","html-keyboard-response","188","277919","0.0-6.0-1.38","1","3","2022-11-17 14:24:53","27f05a78553e1e210bb6d9ff2204662f","","Mozilla/5.0 (Windows NT 10.0; Win64; x64) AppleWebKit/537.36 (KHTML, like Gecko) Chrome/107.0.0.0 Safari/537.36","WebKit","Chrome","107.0.0.0","Windows","10.0","1639"," ","","A bowling ball dropped and touched a strawberry","3","Heavy_Contradictory","",""
"","","","","","fixation","5564","html-keyboard-response","189","278426","0.0-6.0-2.38","1","3","2022-11-17 14:24:53","27f05a78553e1e210bb6d9ff2204662f","","Mozilla/5.0 (Windows NT 10.0; Win64; x64) AppleWebKit/537.36 (KHTML, like Gecko) Chrome/107.0.0.0 Safari/537.36","WebKit","Chrome","107.0.0.0","Windows","10.0","null","null","","<p style=""font-size: 48px;"">+</p>","3","Heavy_Contradictory","",""
"","","","","","picture","5564","image-keyboard-response","190","279011","0.0-6.0-3.38","1","3","2022-11-17 14:24:53","27f05a78553e1e210bb6d9ff2204662f","","Mozilla/5.0 (Windows NT 10.0; Win64; x64) AppleWebKit/537.36 (KHTML, like Gecko) Chrome/107.0.0.0 Safari/537.36","WebKit","Chrome","107.0.0.0","Windows","10.0","579","s","","strawberryS.jpg","3","Heavy_Contradictory","true",""
"","","","","","fixation","5564","html-keyboard-response","191","280026","0.0-6.0-0.39","1","3","2022-11-17 14:24:53","27f05a78553e1e210bb6d9ff2204662f","","Mozilla/5.0 (Windows NT 10.0; Win64; x64) AppleWebKit/537.36 (KHTML, like Gecko) Chrome/107.0.0.0 Safari/537.36","WebKit","Chrome","107.0.0.0","Windows","10.0","null","null","","<p style=""font-size: 48px;"">+</p>","3","Heavy_Matched","",""
"","","","","","sentence","5564","html-keyboard-response","192","281879","0.0-6.0-1.39","1","3","2022-11-17 14:24:53","27f05a78553e1e210bb6d9ff2204662f","","Mozilla/5.0 (Windows NT 10.0; Win64; x64) AppleWebKit/537.36 (KHTML, like Gecko) Chrome/107.0.0.0 Safari/537.36","WebKit","Chrome","107.0.0.0","Windows","10.0","1846"," ","","A bowling ball dropped and smashed an iPhone","3","Heavy_Matched","",""
"","","","","","fixation","5564","html-keyboard-response","193","282386","0.0-6.0-2.39","1","3","2022-11-17 14:24:53","27f05a78553e1e210bb6d9ff2204662f","","Mozilla/5.0 (Windows NT 10.0; Win64; x64) AppleWebKit/537.36 (KHTML, like Gecko) Chrome/107.0.0.0 Safari/537.36","WebKit","Chrome","107.0.0.0","Windows","10.0","null","null","","<p style=""font-size: 48px;"">+</p>","3","Heavy_Matched","",""
"","","","","","picture","5564","image-keyboard-response","194","283209","0.0-6.0-3.39","1","3","2022-11-17 14:24:53","27f05a78553e1e210bb6d9ff2204662f","","Mozilla/5.0 (Windows NT 10.0; Win64; x64) AppleWebKit/537.36 (KHTML, like Gecko) Chrome/107.0.0.0 Safari/537.36","WebKit","Chrome","107.0.0.0","Windows","10.0","815","s","","iphoneS.png","3","Heavy_Matched","true",""
"","","","","","fixation","5564","html-keyboard-response","195","284218","0.0-6.0-0.40","1","3","2022-11-17 14:24:53","27f05a78553e1e210bb6d9ff2204662f","","Mozilla/5.0 (Windows NT 10.0; Win64; x64) AppleWebKit/537.36 (KHTML, like Gecko) Chrome/107.0.0.0 Safari/537.36","WebKit","Chrome","107.0.0.0","Windows","10.0","null","null","","<p style=""font-size: 48px;"">+</p>","3","Heavy_Matched","",""
"","","","","","sentence","5564","html-keyboard-response","196","285661","0.0-6.0-1.40","1","3","2022-11-17 14:24:53","27f05a78553e1e210bb6d9ff2204662f","","Mozilla/5.0 (Windows NT 10.0; Win64; x64) AppleWebKit/537.36 (KHTML, like Gecko) Chrome/107.0.0.0 Safari/537.36","WebKit","Chrome","107.0.0.0","Windows","10.0","1436"," ","","A bowling ball dropped and smashed a donut","3","Heavy_Matched","",""
"","","","","","fixation","5564","html-keyboard-response","197","286172","0.0-6.0-2.40","1","3","2022-11-17 14:24:53","27f05a78553e1e210bb6d9ff2204662f","","Mozilla/5.0 (Windows NT 10.0; Win64; x64) AppleWebKit/537.36 (KHTML, like Gecko) Chrome/107.0.0.0 Safari/537.36","WebKit","Chrome","107.0.0.0","Windows","10.0","null","null","","<p style=""font-size: 48px;"">+</p>","3","Heavy_Matched","",""
"","","","","","picture","5564","image-keyboard-response","198","286764","0.0-6.0-3.40","1","3","2022-11-17 14:24:53","27f05a78553e1e210bb6d9ff2204662f","","Mozilla/5.0 (Windows NT 10.0; Win64; x64) AppleWebKit/537.36 (KHTML, like Gecko) Chrome/107.0.0.0 Safari/537.36","WebKit","Chrome","107.0.0.0","Windows","10.0","584","s","","donutS.jpg","3","Heavy_Matched","true",""
"","","","","","fixation","5564","html-keyboard-response","199","287769","0.0-6.0-0.41","1","3","2022-11-17 14:24:53","27f05a78553e1e210bb6d9ff2204662f","","Mozilla/5.0 (Windows NT 10.0; Win64; x64) AppleWebKit/537.36 (KHTML, like Gecko) Chrome/107.0.0.0 Safari/537.36","WebKit","Chrome","107.0.0.0","Windows","10.0","null","null","","<p style=""font-size: 48px;"">+</p>","3","Filler","",""
"","","","","","sentence","5564","html-keyboard-response","200","289761","0.0-6.0-1.41","1","3","2022-11-17 14:24:53","27f05a78553e1e210bb6d9ff2204662f","","Mozilla/5.0 (Windows NT 10.0; Win64; x64) AppleWebKit/537.36 (KHTML, like Gecko) Chrome/107.0.0.0 Safari/537.36","WebKit","Chrome","107.0.0.0","Windows","10.0","1989"," ","","A zebra is playing with a horse","3","Filler","",""
"","","","","","fixation","5564","html-keyboard-response","201","290265","0.0-6.0-2.41","1","3","2022-11-17 14:24:53","27f05a78553e1e210bb6d9ff2204662f","","Mozilla/5.0 (Windows NT 10.0; Win64; x64) AppleWebKit/537.36 (KHTML, like Gecko) Chrome/107.0.0.0 Safari/537.36","WebKit","Chrome","107.0.0.0","Windows","10.0","null","null","","<p style=""font-size: 48px;"">+</p>","3","Filler","",""
"","","","","","picture","5564","image-keyboard-response","202","291167","0.0-6.0-3.41","1","3","2022-11-17 14:24:53","27f05a78553e1e210bb6d9ff2204662f","","Mozilla/5.0 (Windows NT 10.0; Win64; x64) AppleWebKit/537.36 (KHTML, like Gecko) Chrome/107.0.0.0 Safari/537.36","WebKit","Chrome","107.0.0.0","Windows","10.0","894","n","","watch.jpg","3","Filler","true",""
"","","","","","fixation","5564","html-keyboard-response","203","292179","0.0-6.0-0.42","1","3","2022-11-17 14:24:53","27f05a78553e1e210bb6d9ff2204662f","","Mozilla/5.0 (Windows NT 10.0; Win64; x64) AppleWebKit/537.36 (KHTML, like Gecko) Chrome/107.0.0.0 Safari/537.36","WebKit","Chrome","107.0.0.0","Windows","10.0","null","null","","<p style=""font-size: 48px;"">+</p>","3","Filler","",""
"","","","","","sentence","5564","html-keyboard-response","204","295087","0.0-6.0-1.42","1","3","2022-11-17 14:24:53","27f05a78553e1e210bb6d9ff2204662f","","Mozilla/5.0 (Windows NT 10.0; Win64; x64) AppleWebKit/537.36 (KHTML, like Gecko) Chrome/107.0.0.0 Safari/537.36","WebKit","Chrome","107.0.0.0","Windows","10.0","2900"," ","","A fork was placed on the plate","3","Filler","",""
"","","","","","fixation","5564","html-keyboard-response","205","295594","0.0-6.0-2.42","1","3","2022-11-17 14:24:53","27f05a78553e1e210bb6d9ff2204662f","","Mozilla/5.0 (Windows NT 10.0; Win64; x64) AppleWebKit/537.36 (KHTML, like Gecko) Chrome/107.0.0.0 Safari/537.36","WebKit","Chrome","107.0.0.0","Windows","10.0","null","null","","<p style=""font-size: 48px;"">+</p>","3","Filler","",""
"","","","","","picture","5564","image-keyboard-response","206","296595","0.0-6.0-3.42","1","3","2022-11-17 14:24:53","27f05a78553e1e210bb6d9ff2204662f","","Mozilla/5.0 (Windows NT 10.0; Win64; x64) AppleWebKit/537.36 (KHTML, like Gecko) Chrome/107.0.0.0 Safari/537.36","WebKit","Chrome","107.0.0.0","Windows","10.0","992","s","","plate.jpg","3","Filler","true",""
"","","","","","fixation","5564","html-keyboard-response","207","297609","0.0-6.0-0.43","1","3","2022-11-17 14:24:53","27f05a78553e1e210bb6d9ff2204662f","","Mozilla/5.0 (Windows NT 10.0; Win64; x64) AppleWebKit/537.36 (KHTML, like Gecko) Chrome/107.0.0.0 Safari/537.36","WebKit","Chrome","107.0.0.0","Windows","10.0","null","null","","<p style=""font-size: 48px;"">+</p>","3","Light_Contradictory","",""
"","","","","","sentence","5564","html-keyboard-response","208","299096","0.0-6.0-1.43","1","3","2022-11-17 14:24:53","27f05a78553e1e210bb6d9ff2204662f","","Mozilla/5.0 (Windows NT 10.0; Win64; x64) AppleWebKit/537.36 (KHTML, like Gecko) Chrome/107.0.0.0 Safari/537.36","WebKit","Chrome","107.0.0.0","Windows","10.0","1480"," ","","A balloon dropped and smashed a banana","3","Light_Contradictory","",""
"","","","","","fixation","5564","html-keyboard-response","209","299610","0.0-6.0-2.43","1","3","2022-11-17 14:24:53","27f05a78553e1e210bb6d9ff2204662f","","Mozilla/5.0 (Windows NT 10.0; Win64; x64) AppleWebKit/537.36 (KHTML, like Gecko) Chrome/107.0.0.0 Safari/537.36","WebKit","Chrome","107.0.0.0","Windows","10.0","null","null","","<p style=""font-size: 48px;"">+</p>","3","Light_Contradictory","",""
"","","","","","picture","5564","image-keyboard-response","210","300397","0.0-6.0-3.43","1","3","2022-11-17 14:24:53","27f05a78553e1e210bb6d9ff2204662f","","Mozilla/5.0 (Windows NT 10.0; Win64; x64) AppleWebKit/537.36 (KHTML, like Gecko) Chrome/107.0.0.0 Safari/537.36","WebKit","Chrome","107.0.0.0","Windows","10.0","778","s","","bananaS.jpg","3","Light_Contradictory","true",""
"","","","","","fixation","5564","html-keyboard-response","211","301410","0.0-6.0-0.44","1","3","2022-11-17 14:24:53","27f05a78553e1e210bb6d9ff2204662f","","Mozilla/5.0 (Windows NT 10.0; Win64; x64) AppleWebKit/537.36 (KHTML, like Gecko) Chrome/107.0.0.0 Safari/537.36","WebKit","Chrome","107.0.0.0","Windows","10.0","null","null","","<p style=""font-size: 48px;"">+</p>","3","Filler","",""
"","","","","","sentence","5564","html-keyboard-response","212","302646","0.0-6.0-1.44","1","3","2022-11-17 14:24:53","27f05a78553e1e210bb6d9ff2204662f","","Mozilla/5.0 (Windows NT 10.0; Win64; x64) AppleWebKit/537.36 (KHTML, like Gecko) Chrome/107.0.0.0 Safari/537.36","WebKit","Chrome","107.0.0.0","Windows","10.0","1230"," ","","A toothbrush was placed on the sponge","3","Filler","",""
"","","","","","fixation","5564","html-keyboard-response","213","303153","0.0-6.0-2.44","1","3","2022-11-17 14:24:53","27f05a78553e1e210bb6d9ff2204662f","","Mozilla/5.0 (Windows NT 10.0; Win64; x64) AppleWebKit/537.36 (KHTML, like Gecko) Chrome/107.0.0.0 Safari/537.36","WebKit","Chrome","107.0.0.0","Windows","10.0","null","null","","<p style=""font-size: 48px;"">+</p>","3","Filler","",""
"","","","","","picture","5564","image-keyboard-response","214","304145","0.0-6.0-3.44","1","3","2022-11-17 14:24:53","27f05a78553e1e210bb6d9ff2204662f","","Mozilla/5.0 (Windows NT 10.0; Win64; x64) AppleWebKit/537.36 (KHTML, like Gecko) Chrome/107.0.0.0 Safari/537.36","WebKit","Chrome","107.0.0.0","Windows","10.0","983","s","","sponge.jpg","3","Filler","true",""
"","","","","","fixation","5564","html-keyboard-response","215","305153","0.0-6.0-0.45","1","3","2022-11-17 14:24:53","27f05a78553e1e210bb6d9ff2204662f","","Mozilla/5.0 (Windows NT 10.0; Win64; x64) AppleWebKit/537.36 (KHTML, like Gecko) Chrome/107.0.0.0 Safari/537.36","WebKit","Chrome","107.0.0.0","Windows","10.0","null","null","","<p style=""font-size: 48px;"">+</p>","3","Filler","",""
"","","","","","sentence","5564","html-keyboard-response","216","307360","0.0-6.0-1.45","1","3","2022-11-17 14:24:53","27f05a78553e1e210bb6d9ff2204662f","","Mozilla/5.0 (Windows NT 10.0; Win64; x64) AppleWebKit/537.36 (KHTML, like Gecko) Chrome/107.0.0.0 Safari/537.36","WebKit","Chrome","107.0.0.0","Windows","10.0","2195"," ","","A butterfly is sitting on a flower","3","Filler","",""
"","","","","","fixation","5564","html-keyboard-response","217","307874","0.0-6.0-2.45","1","3","2022-11-17 14:24:53","27f05a78553e1e210bb6d9ff2204662f","","Mozilla/5.0 (Windows NT 10.0; Win64; x64) AppleWebKit/537.36 (KHTML, like Gecko) Chrome/107.0.0.0 Safari/537.36","WebKit","Chrome","107.0.0.0","Windows","10.0","null","null","","<p style=""font-size: 48px;"">+</p>","3","Filler","",""
"","","","","","picture","5564","image-keyboard-response","218","308956","0.0-6.0-3.45","1","3","2022-11-17 14:24:53","27f05a78553e1e210bb6d9ff2204662f","","Mozilla/5.0 (Windows NT 10.0; Win64; x64) AppleWebKit/537.36 (KHTML, like Gecko) Chrome/107.0.0.0 Safari/537.36","WebKit","Chrome","107.0.0.0","Windows","10.0","1074","n","","soap.jpg","3","Filler","true",""
"","","","","","fixation","5564","html-keyboard-response","219","309969","0.0-6.0-0.46","1","3","2022-11-17 14:24:53","27f05a78553e1e210bb6d9ff2204662f","","Mozilla/5.0 (Windows NT 10.0; Win64; x64) AppleWebKit/537.36 (KHTML, like Gecko) Chrome/107.0.0.0 Safari/537.36","WebKit","Chrome","107.0.0.0","Windows","10.0","null","null","","<p style=""font-size: 48px;"">+</p>","3","Heavy_Contradictory","",""
"","","","","","sentence","5564","html-keyboard-response","220","313094","0.0-6.0-1.46","1","3","2022-11-17 14:24:53","27f05a78553e1e210bb6d9ff2204662f","","Mozilla/5.0 (Windows NT 10.0; Win64; x64) AppleWebKit/537.36 (KHTML, like Gecko) Chrome/107.0.0.0 Safari/537.36","WebKit","Chrome","107.0.0.0","Windows","10.0","3117"," ","","A bowling ball dropped and touched a piece of sushi","3","Heavy_Contradictory","",""
"","","","","","fixation","5564","html-keyboard-response","221","313610","0.0-6.0-2.46","1","3","2022-11-17 14:24:53","27f05a78553e1e210bb6d9ff2204662f","","Mozilla/5.0 (Windows NT 10.0; Win64; x64) AppleWebKit/537.36 (KHTML, like Gecko) Chrome/107.0.0.0 Safari/537.36","WebKit","Chrome","107.0.0.0","Windows","10.0","null","null","","<p style=""font-size: 48px;"">+</p>","3","Heavy_Contradictory","",""
"","","","","","picture","5564","image-keyboard-response","222","314472","0.0-6.0-3.46","1","3","2022-11-17 14:24:53","27f05a78553e1e210bb6d9ff2204662f","","Mozilla/5.0 (Windows NT 10.0; Win64; x64) AppleWebKit/537.36 (KHTML, like Gecko) Chrome/107.0.0.0 Safari/537.36","WebKit","Chrome","107.0.0.0","Windows","10.0","852","s","","sushiS.jpg","3","Heavy_Contradictory","true",""
"","","","","","fixation","5564","html-keyboard-response","223","315481","0.0-6.0-0.47","1","3","2022-11-17 14:24:53","27f05a78553e1e210bb6d9ff2204662f","","Mozilla/5.0 (Windows NT 10.0; Win64; x64) AppleWebKit/537.36 (KHTML, like Gecko) Chrome/107.0.0.0 Safari/537.36","WebKit","Chrome","107.0.0.0","Windows","10.0","null","null","","<p style=""font-size: 48px;"">+</p>","3","Filler","",""
"","","","","","sentence","5564","html-keyboard-response","224","316921","0.0-6.0-1.47","1","3","2022-11-17 14:24:53","27f05a78553e1e210bb6d9ff2204662f","","Mozilla/5.0 (Windows NT 10.0; Win64; x64) AppleWebKit/537.36 (KHTML, like Gecko) Chrome/107.0.0.0 Safari/537.36","WebKit","Chrome","107.0.0.0","Windows","10.0","1432"," ","","A teenage girl is playing the piano","3","Filler","",""
"","","","","","fixation","5564","html-keyboard-response","225","317434","0.0-6.0-2.47","1","3","2022-11-17 14:24:53","27f05a78553e1e210bb6d9ff2204662f","","Mozilla/5.0 (Windows NT 10.0; Win64; x64) AppleWebKit/537.36 (KHTML, like Gecko) Chrome/107.0.0.0 Safari/537.36","WebKit","Chrome","107.0.0.0","Windows","10.0","null","null","","<p style=""font-size: 48px;"">+</p>","3","Filler","",""
"","","","","","picture","5564","image-keyboard-response","226","318992","0.0-6.0-3.47","1","3","2022-11-17 14:24:53","27f05a78553e1e210bb6d9ff2204662f","","Mozilla/5.0 (Windows NT 10.0; Win64; x64) AppleWebKit/537.36 (KHTML, like Gecko) Chrome/107.0.0.0 Safari/537.36","WebKit","Chrome","107.0.0.0","Windows","10.0","1539","n","","pillow.jpg","3","Filler","true",""
"","","","","","fixation","5564","html-keyboard-response","227","320003","0.0-6.0-0.48","1","3","2022-11-17 14:24:53","27f05a78553e1e210bb6d9ff2204662f","","Mozilla/5.0 (Windows NT 10.0; Win64; x64) AppleWebKit/537.36 (KHTML, like Gecko) Chrome/107.0.0.0 Safari/537.36","WebKit","Chrome","107.0.0.0","Windows","10.0","null","null","","<p style=""font-size: 48px;"">+</p>","3","Filler","",""
"","","","","","sentence","5564","html-keyboard-response","228","321762","0.0-6.0-1.48","1","3","2022-11-17 14:24:53","27f05a78553e1e210bb6d9ff2204662f","","Mozilla/5.0 (Windows NT 10.0; Win64; x64) AppleWebKit/537.36 (KHTML, like Gecko) Chrome/107.0.0.0 Safari/537.36","WebKit","Chrome","107.0.0.0","Windows","10.0","1753"," ","","An elephant is eating a watermelon","3","Filler","",""
"","","","","","fixation","5564","html-keyboard-response","229","322275","0.0-6.0-2.48","1","3","2022-11-17 14:24:53","27f05a78553e1e210bb6d9ff2204662f","","Mozilla/5.0 (Windows NT 10.0; Win64; x64) AppleWebKit/537.36 (KHTML, like Gecko) Chrome/107.0.0.0 Safari/537.36","WebKit","Chrome","107.0.0.0","Windows","10.0","null","null","","<p style=""font-size: 48px;"">+</p>","3","Filler","",""
"","","","","","picture","5564","image-keyboard-response","230","322943","0.0-6.0-3.48","1","3","2022-11-17 14:24:53","27f05a78553e1e210bb6d9ff2204662f","","Mozilla/5.0 (Windows NT 10.0; Win64; x64) AppleWebKit/537.36 (KHTML, like Gecko) Chrome/107.0.0.0 Safari/537.36","WebKit","Chrome","107.0.0.0","Windows","10.0","659","s","","watermelon.jpg","3","Filler","true",""
"","","","","","fixation","5564","html-keyboard-response","231","323954","0.0-6.0-0.49","1","3","2022-11-17 14:24:53","27f05a78553e1e210bb6d9ff2204662f","","Mozilla/5.0 (Windows NT 10.0; Win64; x64) AppleWebKit/537.36 (KHTML, like Gecko) Chrome/107.0.0.0 Safari/537.36","WebKit","Chrome","107.0.0.0","Windows","10.0","null","null","","<p style=""font-size: 48px;"">+</p>","3","Filler","",""
"","","","","","sentence","5564","html-keyboard-response","232","325911","0.0-6.0-1.49","1","3","2022-11-17 14:24:53","27f05a78553e1e210bb6d9ff2204662f","","Mozilla/5.0 (Windows NT 10.0; Win64; x64) AppleWebKit/537.36 (KHTML, like Gecko) Chrome/107.0.0.0 Safari/537.36","WebKit","Chrome","107.0.0.0","Windows","10.0","1950"," ","","A kitten is playing in the sandbox","3","Filler","",""
"","","","","","fixation","5564","html-keyboard-response","233","326421","0.0-6.0-2.49","1","3","2022-11-17 14:24:53","27f05a78553e1e210bb6d9ff2204662f","","Mozilla/5.0 (Windows NT 10.0; Win64; x64) AppleWebKit/537.36 (KHTML, like Gecko) Chrome/107.0.0.0 Safari/537.36","WebKit","Chrome","107.0.0.0","Windows","10.0","null","null","","<p style=""font-size: 48px;"">+</p>","3","Filler","",""
"","","","","","picture","5564","image-keyboard-response","234","327232","0.0-6.0-3.49","1","3","2022-11-17 14:24:53","27f05a78553e1e210bb6d9ff2204662f","","Mozilla/5.0 (Windows NT 10.0; Win64; x64) AppleWebKit/537.36 (KHTML, like Gecko) Chrome/107.0.0.0 Safari/537.36","WebKit","Chrome","107.0.0.0","Windows","10.0","801","n","","dustbin.jpg","3","Filler","true",""
"","","","","","fixation","5564","html-keyboard-response","235","328241","0.0-6.0-0.50","1","3","2022-11-17 14:24:53","27f05a78553e1e210bb6d9ff2204662f","","Mozilla/5.0 (Windows NT 10.0; Win64; x64) AppleWebKit/537.36 (KHTML, like Gecko) Chrome/107.0.0.0 Safari/537.36","WebKit","Chrome","107.0.0.0","Windows","10.0","null","null","","<p style=""font-size: 48px;"">+</p>","3","Filler","",""
"","","","","","sentence","5564","html-keyboard-response","236","330627","0.0-6.0-1.50","1","3","2022-11-17 14:24:53","27f05a78553e1e210bb6d9ff2204662f","","Mozilla/5.0 (Windows NT 10.0; Win64; x64) AppleWebKit/537.36 (KHTML, like Gecko) Chrome/107.0.0.0 Safari/537.36","WebKit","Chrome","107.0.0.0","Windows","10.0","2383"," ","","A doctor is taking a stethoscope","3","Filler","",""
"","","","","","fixation","5564","html-keyboard-response","237","331138","0.0-6.0-2.50","1","3","2022-11-17 14:24:53","27f05a78553e1e210bb6d9ff2204662f","","Mozilla/5.0 (Windows NT 10.0; Win64; x64) AppleWebKit/537.36 (KHTML, like Gecko) Chrome/107.0.0.0 Safari/537.36","WebKit","Chrome","107.0.0.0","Windows","10.0","null","null","","<p style=""font-size: 48px;"">+</p>","3","Filler","",""
"","","","","","picture","5564","image-keyboard-response","238","332165","0.0-6.0-3.50","1","3","2022-11-17 14:24:53","27f05a78553e1e210bb6d9ff2204662f","","Mozilla/5.0 (Windows NT 10.0; Win64; x64) AppleWebKit/537.36 (KHTML, like Gecko) Chrome/107.0.0.0 Safari/537.36","WebKit","Chrome","107.0.0.0","Windows","10.0","1015","n","","matchesbox.jpg","3","Filler","true",""
"","","","","","fixation","5564","html-keyboard-response","239","333178","0.0-6.0-0.51","1","3","2022-11-17 14:24:53","27f05a78553e1e210bb6d9ff2204662f","","Mozilla/5.0 (Windows NT 10.0; Win64; x64) AppleWebKit/537.36 (KHTML, like Gecko) Chrome/107.0.0.0 Safari/537.36","WebKit","Chrome","107.0.0.0","Windows","10.0","null","null","","<p style=""font-size: 48px;"">+</p>","3","Filler","",""
"","","","","","sentence","5564","html-keyboard-response","240","335212","0.0-6.0-1.51","1","3","2022-11-17 14:24:53","27f05a78553e1e210bb6d9ff2204662f","","Mozilla/5.0 (Windows NT 10.0; Win64; x64) AppleWebKit/537.36 (KHTML, like Gecko) Chrome/107.0.0.0 Safari/537.36","WebKit","Chrome","107.0.0.0","Windows","10.0","2025"," ","","An astronaut is putting on a space suit","3","Filler","",""
"","","","","","fixation","5564","html-keyboard-response","241","335724","0.0-6.0-2.51","1","3","2022-11-17 14:24:53","27f05a78553e1e210bb6d9ff2204662f","","Mozilla/5.0 (Windows NT 10.0; Win64; x64) AppleWebKit/537.36 (KHTML, like Gecko) Chrome/107.0.0.0 Safari/537.36","WebKit","Chrome","107.0.0.0","Windows","10.0","null","null","","<p style=""font-size: 48px;"">+</p>","3","Filler","",""
"","","","","","picture","5564","image-keyboard-response","242","336283","0.0-6.0-3.51","1","3","2022-11-17 14:24:53","27f05a78553e1e210bb6d9ff2204662f","","Mozilla/5.0 (Windows NT 10.0; Win64; x64) AppleWebKit/537.36 (KHTML, like Gecko) Chrome/107.0.0.0 Safari/537.36","WebKit","Chrome","107.0.0.0","Windows","10.0","549","s","","spacesuit.jpg","3","Filler","true",""
"","","","","","fixation","5564","html-keyboard-response","243","337298","0.0-6.0-0.52","1","3","2022-11-17 14:24:53","27f05a78553e1e210bb6d9ff2204662f","","Mozilla/5.0 (Windows NT 10.0; Win64; x64) AppleWebKit/537.36 (KHTML, like Gecko) Chrome/107.0.0.0 Safari/537.36","WebKit","Chrome","107.0.0.0","Windows","10.0","null","null","","<p style=""font-size: 48px;"">+</p>","3","Heavy_Matched","",""
"","","","","","sentence","5564","html-keyboard-response","244","339258","0.0-6.0-1.52","1","3","2022-11-17 14:24:53","27f05a78553e1e210bb6d9ff2204662f","","Mozilla/5.0 (Windows NT 10.0; Win64; x64) AppleWebKit/537.36 (KHTML, like Gecko) Chrome/107.0.0.0 Safari/537.36","WebKit","Chrome","107.0.0.0","Windows","10.0","1954"," ","","A bowling ball dropped and smashed a mirror","3","Heavy_Matched","",""
"","","","","","fixation","5564","html-keyboard-response","245","339766","0.0-6.0-2.52","1","3","2022-11-17 14:24:53","27f05a78553e1e210bb6d9ff2204662f","","Mozilla/5.0 (Windows NT 10.0; Win64; x64) AppleWebKit/537.36 (KHTML, like Gecko) Chrome/107.0.0.0 Safari/537.36","WebKit","Chrome","107.0.0.0","Windows","10.0","null","null","","<p style=""font-size: 48px;"">+</p>","3","Heavy_Matched","",""
"","","","","","picture","5564","image-keyboard-response","246","340651","0.0-6.0-3.52","1","3","2022-11-17 14:24:53","27f05a78553e1e210bb6d9ff2204662f","","Mozilla/5.0 (Windows NT 10.0; Win64; x64) AppleWebKit/537.36 (KHTML, like Gecko) Chrome/107.0.0.0 Safari/537.36","WebKit","Chrome","107.0.0.0","Windows","10.0","874","s","","mirrorS.jpg","3","Heavy_Matched","true",""
"","","","","","fixation","5564","html-keyboard-response","247","341665","0.0-6.0-0.53","1","3","2022-11-17 14:24:53","27f05a78553e1e210bb6d9ff2204662f","","Mozilla/5.0 (Windows NT 10.0; Win64; x64) AppleWebKit/537.36 (KHTML, like Gecko) Chrome/107.0.0.0 Safari/537.36","WebKit","Chrome","107.0.0.0","Windows","10.0","null","null","","<p style=""font-size: 48px;"">+</p>","3","Filler","",""
"","","","","","sentence","5564","html-keyboard-response","248","342598","0.0-6.0-1.53","1","3","2022-11-17 14:24:53","27f05a78553e1e210bb6d9ff2204662f","","Mozilla/5.0 (Windows NT 10.0; Win64; x64) AppleWebKit/537.36 (KHTML, like Gecko) Chrome/107.0.0.0 Safari/537.36","WebKit","Chrome","107.0.0.0","Windows","10.0","925"," ","","A boy is wearing a hat","3","Filler","",""
"","","","","","fixation","5564","html-keyboard-response","249","343125","0.0-6.0-2.53","1","3","2022-11-17 14:24:53","27f05a78553e1e210bb6d9ff2204662f","","Mozilla/5.0 (Windows NT 10.0; Win64; x64) AppleWebKit/537.36 (KHTML, like Gecko) Chrome/107.0.0.0 Safari/537.36","WebKit","Chrome","107.0.0.0","Windows","10.0","null","null","","<p style=""font-size: 48px;"">+</p>","3","Filler","",""
