"success","timeout","failed_images","failed_audio","failed_video","typeoftrial","subject","trial_type","trial_index","time_elapsed","internal_node_id","run_id","condition","recorded_at","source_code_version","ip","user_agent","device","browser","browser_version","platform","platform_version","rt","response","Experiment","stimulus","list_number","trialcondition","correct","question_order"
"true","false","[]","[]","[]","preload","79093","preload","0","5476","0.0-0.0","73","3","2022-11-17 12:25:09","fd252370c17a9971d68c1d4354a03c2e","","Mozilla/5.0 (Windows NT 10.0; Win64; x64) AppleWebKit/537.36 (KHTML, like Gecko) Chrome/107.0.0.0 Safari/537.36 Edg/107.0.1418.42","WebKit","Edge","107.0.1418.42","Windows","10.0","","","","","","","",""
"","","","","","ID","79093","survey-text","1","14230","0.0-1.0","73","3","2022-11-17 12:25:09","fd252370c17a9971d68c1d4354a03c2e","","Mozilla/5.0 (Windows NT 10.0; Win64; x64) AppleWebKit/537.36 (KHTML, like Gecko) Chrome/107.0.0.0 Safari/537.36 Edg/107.0.1418.42","WebKit","Edge","107.0.1418.42","Windows","10.0","8705","{""ID"":""609cc6e034aa04d914679899""}","","","","","",""
"","","","","","instructions","79093","html-button-response","2","35466","0.0-2.0","73","3","2022-11-17 12:25:09","fd252370c17a9971d68c1d4354a03c2e","","Mozilla/5.0 (Windows NT 10.0; Win64; x64) AppleWebKit/537.36 (KHTML, like Gecko) Chrome/107.0.0.0 Safari/537.36 Edg/107.0.1418.42","WebKit","Edge","107.0.1418.42","Windows","10.0","21227","0","","
                    <p style=""font-size:20px;""> Welcome to the experiment! </p>
                    <p style=""font-size:20px;""> In this experiment, you will be asked to make judgments about the content of different sentences.</p>
                    <p style=""font-size:20px;""> On each trial, you will read a sentence, and will be shown a picture immediately following the sentence. </p>
                    <p style=""font-size:20px;""> Your task is to decide whether the object displayed in the picture was mentioned in the sentence or not </p>
                    <p style=""font-size:20px;""> and respond as quickly as possible by pressing <strong>S</strong> for yes or <strong>N</strong> for no. </p>
                    <p style=""font-size:20px;""> You will now do a practice session with feedback and instructions. </p>
                    <p style=""font-size:20px;""> Click the button below to continue.</p>
                    ","","","",""
"","","","","","instructions","79093","html-button-response","3","55579","0.0-3.0","73","3","2022-11-17 12:25:09","fd252370c17a9971d68c1d4354a03c2e","","Mozilla/5.0 (Windows NT 10.0; Win64; x64) AppleWebKit/537.36 (KHTML, like Gecko) Chrome/107.0.0.0 Safari/537.36 Edg/107.0.1418.42","WebKit","Edge","107.0.1418.42","Windows","10.0","20109","0","","
                    <p style=""font-size:20px;""> You are about to begin the practice test. </p>
                    <p style=""font-size:20px;""> On each trial, a sentence will appear on the screen. You should press SPACEBAR when you have read and understood the sentence.</p>
                    <p style=""font-size:20px;""> After you press SPACEBAR, a picture will appear on the screen. </p>
                    <p style=""font-size:20px;""> You need to indicate whether or not the pictured object was mentioned in the sentence. </p>
                    <p style=""font-size:20px;""> If the object WAS mentioned in the preceding sentence, you should press <strong>S</strong> </p>
                    <p style=""font-size:20px;""> If the object was NOT mentioned in the preceding sentence, you should press <strong>N</strong>. </p>
                    <p style=""font-size:20px;""> Click the button below to continue to the practice session.</p>
                    ","","","",""
"","","","","","fixation","79093","html-keyboard-response","4","56594","0.0-4.0-0.0","73","3","2022-11-17 12:25:09","fd252370c17a9971d68c1d4354a03c2e","","Mozilla/5.0 (Windows NT 10.0; Win64; x64) AppleWebKit/537.36 (KHTML, like Gecko) Chrome/107.0.0.0 Safari/537.36 Edg/107.0.1418.42","WebKit","Edge","107.0.1418.42","Windows","10.0","null","null","","<p style=""font-size: 48px;"">+</p>","practice","practice_n","",""
"","","","","","sentence","79093","html-keyboard-response","5","60778","0.0-4.0-1.0","73","3","2022-11-17 12:25:09","fd252370c17a9971d68c1d4354a03c2e","","Mozilla/5.0 (Windows NT 10.0; Win64; x64) AppleWebKit/537.36 (KHTML, like Gecko) Chrome/107.0.0.0 Safari/537.36 Edg/107.0.1418.42","WebKit","Edge","107.0.1418.42","Windows","10.0","4180"," ","","A fork was placed on a stool","practice","practice_n","",""
"","","","","","fixation","79093","html-keyboard-response","6","61292","0.0-4.0-2.0","73","3","2022-11-17 12:25:09","fd252370c17a9971d68c1d4354a03c2e","","Mozilla/5.0 (Windows NT 10.0; Win64; x64) AppleWebKit/537.36 (KHTML, like Gecko) Chrome/107.0.0.0 Safari/537.36 Edg/107.0.1418.42","WebKit","Edge","107.0.1418.42","Windows","10.0","null","null","","<p style=""font-size: 48px;"">+</p>","practice","practice_n","",""
"","","","","","picture","79093","image-keyboard-response","7","64752","0.0-4.0-3.0","73","3","2022-11-17 12:25:09","fd252370c17a9971d68c1d4354a03c2e","","Mozilla/5.0 (Windows NT 10.0; Win64; x64) AppleWebKit/537.36 (KHTML, like Gecko) Chrome/107.0.0.0 Safari/537.36 Edg/107.0.1418.42","WebKit","Edge","107.0.1418.42","Windows","10.0","3418","n","","tableB.jpg","practice","practice_n","true",""
"","","","","","","","html-keyboard-response","8","66757","0.0-4.0-4.0","73","3","2022-11-17 12:25:09","fd252370c17a9971d68c1d4354a03c2e","","Mozilla/5.0 (Windows NT 10.0; Win64; x64) AppleWebKit/537.36 (KHTML, like Gecko) Chrome/107.0.0.0 Safari/537.36 Edg/107.0.1418.42","WebKit","Edge","107.0.1418.42","Windows","10.0","null","null","","CORRECT!","","","",""
"","","","","","fixation","79093","html-keyboard-response","9","67764","0.0-4.0-0.1","73","3","2022-11-17 12:25:09","fd252370c17a9971d68c1d4354a03c2e","","Mozilla/5.0 (Windows NT 10.0; Win64; x64) AppleWebKit/537.36 (KHTML, like Gecko) Chrome/107.0.0.0 Safari/537.36 Edg/107.0.1418.42","WebKit","Edge","107.0.1418.42","Windows","10.0","null","null","","<p style=""font-size: 48px;"">+</p>","practice","practice_s","",""
"","","","","","sentence","79093","html-keyboard-response","10","73153","0.0-4.0-1.1","73","3","2022-11-17 12:25:09","fd252370c17a9971d68c1d4354a03c2e","","Mozilla/5.0 (Windows NT 10.0; Win64; x64) AppleWebKit/537.36 (KHTML, like Gecko) Chrome/107.0.0.0 Safari/537.36 Edg/107.0.1418.42","WebKit","Edge","107.0.1418.42","Windows","10.0","5388"," ","","A bowling ball dropped and smashed a teacup","practice","practice_s","",""
"","","","","","fixation","79093","html-keyboard-response","11","73666","0.0-4.0-2.1","73","3","2022-11-17 12:25:09","fd252370c17a9971d68c1d4354a03c2e","","Mozilla/5.0 (Windows NT 10.0; Win64; x64) AppleWebKit/537.36 (KHTML, like Gecko) Chrome/107.0.0.0 Safari/537.36 Edg/107.0.1418.42","WebKit","Edge","107.0.1418.42","Windows","10.0","null","null","","<p style=""font-size: 48px;"">+</p>","practice","practice_s","",""
"","","","","","picture","79093","image-keyboard-response","12","76115","0.0-4.0-3.1","73","3","2022-11-17 12:25:09","fd252370c17a9971d68c1d4354a03c2e","","Mozilla/5.0 (Windows NT 10.0; Win64; x64) AppleWebKit/537.36 (KHTML, like Gecko) Chrome/107.0.0.0 Safari/537.36 Edg/107.0.1418.42","WebKit","Edge","107.0.1418.42","Windows","10.0","2448","s","","cupB.jpg","practice","practice_s","true",""
"","","","","","","","html-keyboard-response","13","78125","0.0-4.0-4.1","73","3","2022-11-17 12:25:09","fd252370c17a9971d68c1d4354a03c2e","","Mozilla/5.0 (Windows NT 10.0; Win64; x64) AppleWebKit/537.36 (KHTML, like Gecko) Chrome/107.0.0.0 Safari/537.36 Edg/107.0.1418.42","WebKit","Edge","107.0.1418.42","Windows","10.0","null","null","","CORRECT!","","","",""
"","","","","","fixation","79093","html-keyboard-response","14","79146","0.0-4.0-0.2","73","3","2022-11-17 12:25:09","fd252370c17a9971d68c1d4354a03c2e","","Mozilla/5.0 (Windows NT 10.0; Win64; x64) AppleWebKit/537.36 (KHTML, like Gecko) Chrome/107.0.0.0 Safari/537.36 Edg/107.0.1418.42","WebKit","Edge","107.0.1418.42","Windows","10.0","null","null","","<p style=""font-size: 48px;"">+</p>","practice","practice_s","",""
"","","","","","sentence","79093","html-keyboard-response","15","82622","0.0-4.0-1.2","73","3","2022-11-17 12:25:09","fd252370c17a9971d68c1d4354a03c2e","","Mozilla/5.0 (Windows NT 10.0; Win64; x64) AppleWebKit/537.36 (KHTML, like Gecko) Chrome/107.0.0.0 Safari/537.36 Edg/107.0.1418.42","WebKit","Edge","107.0.1418.42","Windows","10.0","3472"," ","","A knife was placed on a hammer","practice","practice_s","",""
"","","","","","fixation","79093","html-keyboard-response","16","83133","0.0-4.0-2.2","73","3","2022-11-17 12:25:09","fd252370c17a9971d68c1d4354a03c2e","","Mozilla/5.0 (Windows NT 10.0; Win64; x64) AppleWebKit/537.36 (KHTML, like Gecko) Chrome/107.0.0.0 Safari/537.36 Edg/107.0.1418.42","WebKit","Edge","107.0.1418.42","Windows","10.0","null","null","","<p style=""font-size: 48px;"">+</p>","practice","practice_s","",""
"","","","","","picture","79093","image-keyboard-response","17","86736","0.0-4.0-3.2","73","3","2022-11-17 12:25:09","fd252370c17a9971d68c1d4354a03c2e","","Mozilla/5.0 (Windows NT 10.0; Win64; x64) AppleWebKit/537.36 (KHTML, like Gecko) Chrome/107.0.0.0 Safari/537.36 Edg/107.0.1418.42","WebKit","Edge","107.0.1418.42","Windows","10.0","3598","n","","hammerB.jpg","practice","practice_s","false",""
"","","","","","","","html-keyboard-response","18","88756","0.0-4.0-4.2","73","3","2022-11-17 12:25:09","fd252370c17a9971d68c1d4354a03c2e","","Mozilla/5.0 (Windows NT 10.0; Win64; x64) AppleWebKit/537.36 (KHTML, like Gecko) Chrome/107.0.0.0 Safari/537.36 Edg/107.0.1418.42","WebKit","Edge","107.0.1418.42","Windows","10.0","null","null","","WRONG!","","","",""
"","","","","","fixation","79093","html-keyboard-response","19","89766","0.0-4.0-0.3","73","3","2022-11-17 12:25:09","fd252370c17a9971d68c1d4354a03c2e","","Mozilla/5.0 (Windows NT 10.0; Win64; x64) AppleWebKit/537.36 (KHTML, like Gecko) Chrome/107.0.0.0 Safari/537.36 Edg/107.0.1418.42","WebKit","Edge","107.0.1418.42","Windows","10.0","null","null","","<p style=""font-size: 48px;"">+</p>","practice","practice_s","",""
"","","","","","sentence","79093","html-keyboard-response","20","94666","0.0-4.0-1.3","73","3","2022-11-17 12:25:09","fd252370c17a9971d68c1d4354a03c2e","","Mozilla/5.0 (Windows NT 10.0; Win64; x64) AppleWebKit/537.36 (KHTML, like Gecko) Chrome/107.0.0.0 Safari/537.36 Edg/107.0.1418.42","WebKit","Edge","107.0.1418.42","Windows","10.0","4897"," ","","A balloon dropped and touched a cigarette","practice","practice_s","",""
"","","","","","fixation","79093","html-keyboard-response","21","95186","0.0-4.0-2.3","73","3","2022-11-17 12:25:09","fd252370c17a9971d68c1d4354a03c2e","","Mozilla/5.0 (Windows NT 10.0; Win64; x64) AppleWebKit/537.36 (KHTML, like Gecko) Chrome/107.0.0.0 Safari/537.36 Edg/107.0.1418.42","WebKit","Edge","107.0.1418.42","Windows","10.0","null","null","","<p style=""font-size: 48px;"">+</p>","practice","practice_s","",""
"","","","","","picture","79093","image-keyboard-response","22","96916","0.0-4.0-3.3","73","3","2022-11-17 12:25:09","fd252370c17a9971d68c1d4354a03c2e","","Mozilla/5.0 (Windows NT 10.0; Win64; x64) AppleWebKit/537.36 (KHTML, like Gecko) Chrome/107.0.0.0 Safari/537.36 Edg/107.0.1418.42","WebKit","Edge","107.0.1418.42","Windows","10.0","1726","n","","cigaretteB.jpg","practice","practice_s","false",""
"","","","","","","","html-keyboard-response","23","98924","0.0-4.0-4.3","73","3","2022-11-17 12:25:09","fd252370c17a9971d68c1d4354a03c2e","","Mozilla/5.0 (Windows NT 10.0; Win64; x64) AppleWebKit/537.36 (KHTML, like Gecko) Chrome/107.0.0.0 Safari/537.36 Edg/107.0.1418.42","WebKit","Edge","107.0.1418.42","Windows","10.0","null","null","","WRONG!","","","",""
"","","","","","fixation","79093","html-keyboard-response","24","99933","0.0-4.0-0.4","73","3","2022-11-17 12:25:09","fd252370c17a9971d68c1d4354a03c2e","","Mozilla/5.0 (Windows NT 10.0; Win64; x64) AppleWebKit/537.36 (KHTML, like Gecko) Chrome/107.0.0.0 Safari/537.36 Edg/107.0.1418.42","WebKit","Edge","107.0.1418.42","Windows","10.0","null","null","","<p style=""font-size: 48px;"">+</p>","practice","practice_n","",""
"","","","","","sentence","79093","html-keyboard-response","25","102299","0.0-4.0-1.4","73","3","2022-11-17 12:25:09","fd252370c17a9971d68c1d4354a03c2e","","Mozilla/5.0 (Windows NT 10.0; Win64; x64) AppleWebKit/537.36 (KHTML, like Gecko) Chrome/107.0.0.0 Safari/537.36 Edg/107.0.1418.42","WebKit","Edge","107.0.1418.42","Windows","10.0","2361"," ","","A balloon dropped and smashed a cup","practice","practice_n","",""
"","","","","","fixation","79093","html-keyboard-response","26","102819","0.0-4.0-2.4","73","3","2022-11-17 12:25:09","fd252370c17a9971d68c1d4354a03c2e","","Mozilla/5.0 (Windows NT 10.0; Win64; x64) AppleWebKit/537.36 (KHTML, like Gecko) Chrome/107.0.0.0 Safari/537.36 Edg/107.0.1418.42","WebKit","Edge","107.0.1418.42","Windows","10.0","null","null","","<p style=""font-size: 48px;"">+</p>","practice","practice_n","",""
"","","","","","picture","79093","image-keyboard-response","27","104458","0.0-4.0-3.4","73","3","2022-11-17 12:25:09","fd252370c17a9971d68c1d4354a03c2e","","Mozilla/5.0 (Windows NT 10.0; Win64; x64) AppleWebKit/537.36 (KHTML, like Gecko) Chrome/107.0.0.0 Safari/537.36 Edg/107.0.1418.42","WebKit","Edge","107.0.1418.42","Windows","10.0","1634","n","","bananaB.jpg","practice","practice_n","true",""
"","","","","","","","html-keyboard-response","28","106462","0.0-4.0-4.4","73","3","2022-11-17 12:25:09","fd252370c17a9971d68c1d4354a03c2e","","Mozilla/5.0 (Windows NT 10.0; Win64; x64) AppleWebKit/537.36 (KHTML, like Gecko) Chrome/107.0.0.0 Safari/537.36 Edg/107.0.1418.42","WebKit","Edge","107.0.1418.42","Windows","10.0","null","null","","CORRECT!","","","",""
"","","","","","fixation","79093","html-keyboard-response","29","107469","0.0-4.0-0.5","73","3","2022-11-17 12:25:09","fd252370c17a9971d68c1d4354a03c2e","","Mozilla/5.0 (Windows NT 10.0; Win64; x64) AppleWebKit/537.36 (KHTML, like Gecko) Chrome/107.0.0.0 Safari/537.36 Edg/107.0.1418.42","WebKit","Edge","107.0.1418.42","Windows","10.0","null","null","","<p style=""font-size: 48px;"">+</p>","practice","practice_n","",""
"","","","","","sentence","79093","html-keyboard-response","30","113558","0.0-4.0-1.5","73","3","2022-11-17 12:25:09","fd252370c17a9971d68c1d4354a03c2e","","Mozilla/5.0 (Windows NT 10.0; Win64; x64) AppleWebKit/537.36 (KHTML, like Gecko) Chrome/107.0.0.0 Safari/537.36 Edg/107.0.1418.42","WebKit","Edge","107.0.1418.42","Windows","10.0","6085"," ","","A bowling ball dropped and touched a bottle","practice","practice_n","",""
"","","","","","fixation","79093","html-keyboard-response","31","114060","0.0-4.0-2.5","73","3","2022-11-17 12:25:09","fd252370c17a9971d68c1d4354a03c2e","","Mozilla/5.0 (Windows NT 10.0; Win64; x64) AppleWebKit/537.36 (KHTML, like Gecko) Chrome/107.0.0.0 Safari/537.36 Edg/107.0.1418.42","WebKit","Edge","107.0.1418.42","Windows","10.0","null","null","","<p style=""font-size: 48px;"">+</p>","practice","practice_n","",""
"","","","","","picture","79093","image-keyboard-response","32","115757","0.0-4.0-3.5","73","3","2022-11-17 12:25:09","fd252370c17a9971d68c1d4354a03c2e","","Mozilla/5.0 (Windows NT 10.0; Win64; x64) AppleWebKit/537.36 (KHTML, like Gecko) Chrome/107.0.0.0 Safari/537.36 Edg/107.0.1418.42","WebKit","Edge","107.0.1418.42","Windows","10.0","1694","n","","bookB.jpg","practice","practice_n","true",""
"","","","","","","","html-keyboard-response","33","117765","0.0-4.0-4.5","73","3","2022-11-17 12:25:09","fd252370c17a9971d68c1d4354a03c2e","","Mozilla/5.0 (Windows NT 10.0; Win64; x64) AppleWebKit/537.36 (KHTML, like Gecko) Chrome/107.0.0.0 Safari/537.36 Edg/107.0.1418.42","WebKit","Edge","107.0.1418.42","Windows","10.0","null","null","","CORRECT!","","","",""
"","","","","","movetoexp","79093","html-button-response","34","127548","0.0-5.0","73","3","2022-11-17 12:25:09","fd252370c17a9971d68c1d4354a03c2e","","Mozilla/5.0 (Windows NT 10.0; Win64; x64) AppleWebKit/537.36 (KHTML, like Gecko) Chrome/107.0.0.0 Safari/537.36 Edg/107.0.1418.42","WebKit","Edge","107.0.1418.42","Windows","10.0","9778","0","","<p style=""font-size:20px;"">You have now completed the practice session! </p>
                    <p style=""font-size:20px;"">You will now move on to the main experiment, where you will not be provided any feedback. </p>
                    <p style=""font-size:20px;"">Remember, you should press <strong>S</strong> if the pictured object was mentioned in the preceding sentence<br> and <strong>N</strong> if the pictured object was not mentioned in the preceding sentence.</p>
                    <p style=""font-size:20px;"">Please click the button below to continue to the main experiment. </p>","","","",""
"","","","","","fixation","79093","html-keyboard-response","35","128569","0.0-6.0-0.0","73","3","2022-11-17 12:25:09","fd252370c17a9971d68c1d4354a03c2e","","Mozilla/5.0 (Windows NT 10.0; Win64; x64) AppleWebKit/537.36 (KHTML, like Gecko) Chrome/107.0.0.0 Safari/537.36 Edg/107.0.1418.42","WebKit","Edge","107.0.1418.42","Windows","10.0","null","null","","<p style=""font-size: 48px;"">+</p>","3","Light_Matched","",""
"","","","","","sentence","79093","html-keyboard-response","36","131616","0.0-6.0-1.0","73","3","2022-11-17 12:25:09","fd252370c17a9971d68c1d4354a03c2e","","Mozilla/5.0 (Windows NT 10.0; Win64; x64) AppleWebKit/537.36 (KHTML, like Gecko) Chrome/107.0.0.0 Safari/537.36 Edg/107.0.1418.42","WebKit","Edge","107.0.1418.42","Windows","10.0","3041"," ","","A balloon dropped and touched a piece of cake","3","Light_Matched","",""
"","","","","","fixation","79093","html-keyboard-response","37","132124","0.0-6.0-2.0","73","3","2022-11-17 12:25:09","fd252370c17a9971d68c1d4354a03c2e","","Mozilla/5.0 (Windows NT 10.0; Win64; x64) AppleWebKit/537.36 (KHTML, like Gecko) Chrome/107.0.0.0 Safari/537.36 Edg/107.0.1418.42","WebKit","Edge","107.0.1418.42","Windows","10.0","null","null","","<p style=""font-size: 48px;"">+</p>","3","Light_Matched","",""
"","","","","","picture","79093","image-keyboard-response","38","133895","0.0-6.0-3.0","73","3","2022-11-17 12:25:09","fd252370c17a9971d68c1d4354a03c2e","","Mozilla/5.0 (Windows NT 10.0; Win64; x64) AppleWebKit/537.36 (KHTML, like Gecko) Chrome/107.0.0.0 Safari/537.36 Edg/107.0.1418.42","WebKit","Edge","107.0.1418.42","Windows","10.0","1768","s","","cakeS.jpg","3","Light_Matched","true",""
"","","","","","fixation","79093","html-keyboard-response","39","134924","0.0-6.0-0.1","73","3","2022-11-17 12:25:09","fd252370c17a9971d68c1d4354a03c2e","","Mozilla/5.0 (Windows NT 10.0; Win64; x64) AppleWebKit/537.36 (KHTML, like Gecko) Chrome/107.0.0.0 Safari/537.36 Edg/107.0.1418.42","WebKit","Edge","107.0.1418.42","Windows","10.0","null","null","","<p style=""font-size: 48px;"">+</p>","3","Filler","",""
"","","","","","sentence","79093","html-keyboard-response","40","137020","0.0-6.0-1.1","73","3","2022-11-17 12:25:09","fd252370c17a9971d68c1d4354a03c2e","","Mozilla/5.0 (Windows NT 10.0; Win64; x64) AppleWebKit/537.36 (KHTML, like Gecko) Chrome/107.0.0.0 Safari/537.36 Edg/107.0.1418.42","WebKit","Edge","107.0.1418.42","Windows","10.0","2091"," ","","A parrot is eating an apple","3","Filler","",""
"","","","","","fixation","79093","html-keyboard-response","41","137532","0.0-6.0-2.1","73","3","2022-11-17 12:25:09","fd252370c17a9971d68c1d4354a03c2e","","Mozilla/5.0 (Windows NT 10.0; Win64; x64) AppleWebKit/537.36 (KHTML, like Gecko) Chrome/107.0.0.0 Safari/537.36 Edg/107.0.1418.42","WebKit","Edge","107.0.1418.42","Windows","10.0","null","null","","<p style=""font-size: 48px;"">+</p>","3","Filler","",""
"","","","","","picture","79093","image-keyboard-response","42","138846","0.0-6.0-3.1","73","3","2022-11-17 12:25:09","fd252370c17a9971d68c1d4354a03c2e","","Mozilla/5.0 (Windows NT 10.0; Win64; x64) AppleWebKit/537.36 (KHTML, like Gecko) Chrome/107.0.0.0 Safari/537.36 Edg/107.0.1418.42","WebKit","Edge","107.0.1418.42","Windows","10.0","1310","n","","shirt.jpg","3","Filler","true",""
"","","","","","fixation","79093","html-keyboard-response","43","139862","0.0-6.0-0.2","73","3","2022-11-17 12:25:09","fd252370c17a9971d68c1d4354a03c2e","","Mozilla/5.0 (Windows NT 10.0; Win64; x64) AppleWebKit/537.36 (KHTML, like Gecko) Chrome/107.0.0.0 Safari/537.36 Edg/107.0.1418.42","WebKit","Edge","107.0.1418.42","Windows","10.0","null","null","","<p style=""font-size: 48px;"">+</p>","3","Filler","",""
"","","","","","sentence","79093","html-keyboard-response","44","141395","0.0-6.0-1.2","73","3","2022-11-17 12:25:09","fd252370c17a9971d68c1d4354a03c2e","","Mozilla/5.0 (Windows NT 10.0; Win64; x64) AppleWebKit/537.36 (KHTML, like Gecko) Chrome/107.0.0.0 Safari/537.36 Edg/107.0.1418.42","WebKit","Edge","107.0.1418.42","Windows","10.0","1531"," ","","A panda is resting on a tree","3","Filler","",""
"","","","","","fixation","79093","html-keyboard-response","45","141901","0.0-6.0-2.2","73","3","2022-11-17 12:25:09","fd252370c17a9971d68c1d4354a03c2e","","Mozilla/5.0 (Windows NT 10.0; Win64; x64) AppleWebKit/537.36 (KHTML, like Gecko) Chrome/107.0.0.0 Safari/537.36 Edg/107.0.1418.42","WebKit","Edge","107.0.1418.42","Windows","10.0","null","null","","<p style=""font-size: 48px;"">+</p>","3","Filler","",""
"","","","","","picture","79093","image-keyboard-response","46","142871","0.0-6.0-3.2","73","3","2022-11-17 12:25:09","fd252370c17a9971d68c1d4354a03c2e","","Mozilla/5.0 (Windows NT 10.0; Win64; x64) AppleWebKit/537.36 (KHTML, like Gecko) Chrome/107.0.0.0 Safari/537.36 Edg/107.0.1418.42","WebKit","Edge","107.0.1418.42","Windows","10.0","964","n","","dollar.jpg","3","Filler","true",""
"","","","","","fixation","79093","html-keyboard-response","47","143885","0.0-6.0-0.3","73","3","2022-11-17 12:25:09","fd252370c17a9971d68c1d4354a03c2e","","Mozilla/5.0 (Windows NT 10.0; Win64; x64) AppleWebKit/537.36 (KHTML, like Gecko) Chrome/107.0.0.0 Safari/537.36 Edg/107.0.1418.42","WebKit","Edge","107.0.1418.42","Windows","10.0","null","null","","<p style=""font-size: 48px;"">+</p>","3","Filler","",""
"","","","","","sentence","79093","html-keyboard-response","48","145764","0.0-6.0-1.3","73","3","2022-11-17 12:25:09","fd252370c17a9971d68c1d4354a03c2e","","Mozilla/5.0 (Windows NT 10.0; Win64; x64) AppleWebKit/537.36 (KHTML, like Gecko) Chrome/107.0.0.0 Safari/537.36 Edg/107.0.1418.42","WebKit","Edge","107.0.1418.42","Windows","10.0","1874"," ","","A horse is chewing hay","3","Filler","",""
"","","","","","fixation","79093","html-keyboard-response","49","146287","0.0-6.0-2.3","73","3","2022-11-17 12:25:09","fd252370c17a9971d68c1d4354a03c2e","","Mozilla/5.0 (Windows NT 10.0; Win64; x64) AppleWebKit/537.36 (KHTML, like Gecko) Chrome/107.0.0.0 Safari/537.36 Edg/107.0.1418.42","WebKit","Edge","107.0.1418.42","Windows","10.0","null","null","","<p style=""font-size: 48px;"">+</p>","3","Filler","",""
"","","","","","picture","79093","image-keyboard-response","50","147232","0.0-6.0-3.3","73","3","2022-11-17 12:25:09","fd252370c17a9971d68c1d4354a03c2e","","Mozilla/5.0 (Windows NT 10.0; Win64; x64) AppleWebKit/537.36 (KHTML, like Gecko) Chrome/107.0.0.0 Safari/537.36 Edg/107.0.1418.42","WebKit","Edge","107.0.1418.42","Windows","10.0","937","n","","purse.jpg","3","Filler","true",""
"","","","","","fixation","79093","html-keyboard-response","51","148245","0.0-6.0-0.4","73","3","2022-11-17 12:25:09","fd252370c17a9971d68c1d4354a03c2e","","Mozilla/5.0 (Windows NT 10.0; Win64; x64) AppleWebKit/537.36 (KHTML, like Gecko) Chrome/107.0.0.0 Safari/537.36 Edg/107.0.1418.42","WebKit","Edge","107.0.1418.42","Windows","10.0","null","null","","<p style=""font-size: 48px;"">+</p>","3","Filler","",""
"","","","","","sentence","79093","html-keyboard-response","52","149796","0.0-6.0-1.4","73","3","2022-11-17 12:25:09","fd252370c17a9971d68c1d4354a03c2e","","Mozilla/5.0 (Windows NT 10.0; Win64; x64) AppleWebKit/537.36 (KHTML, like Gecko) Chrome/107.0.0.0 Safari/537.36 Edg/107.0.1418.42","WebKit","Edge","107.0.1418.42","Windows","10.0","1543"," ","","A student is writing on a board","3","Filler","",""
"","","","","","fixation","79093","html-keyboard-response","53","150320","0.0-6.0-2.4","73","3","2022-11-17 12:25:09","fd252370c17a9971d68c1d4354a03c2e","","Mozilla/5.0 (Windows NT 10.0; Win64; x64) AppleWebKit/537.36 (KHTML, like Gecko) Chrome/107.0.0.0 Safari/537.36 Edg/107.0.1418.42","WebKit","Edge","107.0.1418.42","Windows","10.0","null","null","","<p style=""font-size: 48px;"">+</p>","3","Filler","",""
"","","","","","picture","79093","image-keyboard-response","54","151498","0.0-6.0-3.4","73","3","2022-11-17 12:25:09","fd252370c17a9971d68c1d4354a03c2e","","Mozilla/5.0 (Windows NT 10.0; Win64; x64) AppleWebKit/537.36 (KHTML, like Gecko) Chrome/107.0.0.0 Safari/537.36 Edg/107.0.1418.42","WebKit","Edge","107.0.1418.42","Windows","10.0","1171","n","","owl.jpg","3","Filler","true",""
"","","","","","fixation","79093","html-keyboard-response","55","152509","0.0-6.0-0.5","73","3","2022-11-17 12:25:09","fd252370c17a9971d68c1d4354a03c2e","","Mozilla/5.0 (Windows NT 10.0; Win64; x64) AppleWebKit/537.36 (KHTML, like Gecko) Chrome/107.0.0.0 Safari/537.36 Edg/107.0.1418.42","WebKit","Edge","107.0.1418.42","Windows","10.0","null","null","","<p style=""font-size: 48px;"">+</p>","3","Filler","",""
"","","","","","sentence","79093","html-keyboard-response","56","153799","0.0-6.0-1.5","73","3","2022-11-17 12:25:09","fd252370c17a9971d68c1d4354a03c2e","","Mozilla/5.0 (Windows NT 10.0; Win64; x64) AppleWebKit/537.36 (KHTML, like Gecko) Chrome/107.0.0.0 Safari/537.36 Edg/107.0.1418.42","WebKit","Edge","107.0.1418.42","Windows","10.0","1285"," ","","A toothbrush was placed on the sponge","3","Filler","",""
"","","","","","fixation","79093","html-keyboard-response","57","154317","0.0-6.0-2.5","73","3","2022-11-17 12:25:09","fd252370c17a9971d68c1d4354a03c2e","","Mozilla/5.0 (Windows NT 10.0; Win64; x64) AppleWebKit/537.36 (KHTML, like Gecko) Chrome/107.0.0.0 Safari/537.36 Edg/107.0.1418.42","WebKit","Edge","107.0.1418.42","Windows","10.0","null","null","","<p style=""font-size: 48px;"">+</p>","3","Filler","",""
"","","","","","picture","79093","image-keyboard-response","58","158815","0.0-6.0-3.5","73","3","2022-11-17 12:25:09","fd252370c17a9971d68c1d4354a03c2e","","Mozilla/5.0 (Windows NT 10.0; Win64; x64) AppleWebKit/537.36 (KHTML, like Gecko) Chrome/107.0.0.0 Safari/537.36 Edg/107.0.1418.42","WebKit","Edge","107.0.1418.42","Windows","10.0","4490","s","","sponge.jpg","3","Filler","true",""
"","","","","","fixation","79093","html-keyboard-response","59","159828","0.0-6.0-0.6","73","3","2022-11-17 12:25:09","fd252370c17a9971d68c1d4354a03c2e","","Mozilla/5.0 (Windows NT 10.0; Win64; x64) AppleWebKit/537.36 (KHTML, like Gecko) Chrome/107.0.0.0 Safari/537.36 Edg/107.0.1418.42","WebKit","Edge","107.0.1418.42","Windows","10.0","null","null","","<p style=""font-size: 48px;"">+</p>","3","Filler","",""
"","","","","","sentence","79093","html-keyboard-response","60","161420","0.0-6.0-1.6","73","3","2022-11-17 12:25:09","fd252370c17a9971d68c1d4354a03c2e","","Mozilla/5.0 (Windows NT 10.0; Win64; x64) AppleWebKit/537.36 (KHTML, like Gecko) Chrome/107.0.0.0 Safari/537.36 Edg/107.0.1418.42","WebKit","Edge","107.0.1418.42","Windows","10.0","1589"," ","","A kitten is playing in the sandbox","3","Filler","",""
"","","","","","fixation","79093","html-keyboard-response","61","161939","0.0-6.0-2.6","73","3","2022-11-17 12:25:09","fd252370c17a9971d68c1d4354a03c2e","","Mozilla/5.0 (Windows NT 10.0; Win64; x64) AppleWebKit/537.36 (KHTML, like Gecko) Chrome/107.0.0.0 Safari/537.36 Edg/107.0.1418.42","WebKit","Edge","107.0.1418.42","Windows","10.0","null","null","","<p style=""font-size: 48px;"">+</p>","3","Filler","",""
"","","","","","picture","79093","image-keyboard-response","62","163269","0.0-6.0-3.6","73","3","2022-11-17 12:25:09","fd252370c17a9971d68c1d4354a03c2e","","Mozilla/5.0 (Windows NT 10.0; Win64; x64) AppleWebKit/537.36 (KHTML, like Gecko) Chrome/107.0.0.0 Safari/537.36 Edg/107.0.1418.42","WebKit","Edge","107.0.1418.42","Windows","10.0","1325","n","","dustbin.jpg","3","Filler","true",""
"","","","","","fixation","79093","html-keyboard-response","63","164277","0.0-6.0-0.7","73","3","2022-11-17 12:25:09","fd252370c17a9971d68c1d4354a03c2e","","Mozilla/5.0 (Windows NT 10.0; Win64; x64) AppleWebKit/537.36 (KHTML, like Gecko) Chrome/107.0.0.0 Safari/537.36 Edg/107.0.1418.42","WebKit","Edge","107.0.1418.42","Windows","10.0","null","null","","<p style=""font-size: 48px;"">+</p>","3","Filler","",""
"","","","","","sentence","79093","html-keyboard-response","64","165438","0.0-6.0-1.7","73","3","2022-11-17 12:25:09","fd252370c17a9971d68c1d4354a03c2e","","Mozilla/5.0 (Windows NT 10.0; Win64; x64) AppleWebKit/537.36 (KHTML, like Gecko) Chrome/107.0.0.0 Safari/537.36 Edg/107.0.1418.42","WebKit","Edge","107.0.1418.42","Windows","10.0","1155"," ","","A puppy is playing with a ball","3","Filler","",""
"","","","","","fixation","79093","html-keyboard-response","65","165949","0.0-6.0-2.7","73","3","2022-11-17 12:25:09","fd252370c17a9971d68c1d4354a03c2e","","Mozilla/5.0 (Windows NT 10.0; Win64; x64) AppleWebKit/537.36 (KHTML, like Gecko) Chrome/107.0.0.0 Safari/537.36 Edg/107.0.1418.42","WebKit","Edge","107.0.1418.42","Windows","10.0","null","null","","<p style=""font-size: 48px;"">+</p>","3","Filler","",""
"","","","","","picture","79093","image-keyboard-response","66","168003","0.0-6.0-3.7","73","3","2022-11-17 12:25:09","fd252370c17a9971d68c1d4354a03c2e","","Mozilla/5.0 (Windows NT 10.0; Win64; x64) AppleWebKit/537.36 (KHTML, like Gecko) Chrome/107.0.0.0 Safari/537.36 Edg/107.0.1418.42","WebKit","Edge","107.0.1418.42","Windows","10.0","2051","s","","tennisball.jpg","3","Filler","true",""
"","","","","","fixation","79093","html-keyboard-response","67","169012","0.0-6.0-0.8","73","3","2022-11-17 12:25:09","fd252370c17a9971d68c1d4354a03c2e","","Mozilla/5.0 (Windows NT 10.0; Win64; x64) AppleWebKit/537.36 (KHTML, like Gecko) Chrome/107.0.0.0 Safari/537.36 Edg/107.0.1418.42","WebKit","Edge","107.0.1418.42","Windows","10.0","null","null","","<p style=""font-size: 48px;"">+</p>","3","Filler","",""
"","","","","","sentence","79093","html-keyboard-response","68","171479","0.0-6.0-1.8","73","3","2022-11-17 12:25:09","fd252370c17a9971d68c1d4354a03c2e","","Mozilla/5.0 (Windows NT 10.0; Win64; x64) AppleWebKit/537.36 (KHTML, like Gecko) Chrome/107.0.0.0 Safari/537.36 Edg/107.0.1418.42","WebKit","Edge","107.0.1418.42","Windows","10.0","2461"," ","","A man is playing with a cat","3","Filler","",""
"","","","","","fixation","79093","html-keyboard-response","69","171996","0.0-6.0-2.8","73","3","2022-11-17 12:25:09","fd252370c17a9971d68c1d4354a03c2e","","Mozilla/5.0 (Windows NT 10.0; Win64; x64) AppleWebKit/537.36 (KHTML, like Gecko) Chrome/107.0.0.0 Safari/537.36 Edg/107.0.1418.42","WebKit","Edge","107.0.1418.42","Windows","10.0","null","null","","<p style=""font-size: 48px;"">+</p>","3","Filler","",""
"","","","","","picture","79093","image-keyboard-response","70","174938","0.0-6.0-3.8","73","3","2022-11-17 12:25:09","fd252370c17a9971d68c1d4354a03c2e","","Mozilla/5.0 (Windows NT 10.0; Win64; x64) AppleWebKit/537.36 (KHTML, like Gecko) Chrome/107.0.0.0 Safari/537.36 Edg/107.0.1418.42","WebKit","Edge","107.0.1418.42","Windows","10.0","2931","n","","ceramicplate.jpg","3","Filler","true",""
"","","","","","fixation","79093","html-keyboard-response","71","175949","0.0-6.0-0.9","73","3","2022-11-17 12:25:09","fd252370c17a9971d68c1d4354a03c2e","","Mozilla/5.0 (Windows NT 10.0; Win64; x64) AppleWebKit/537.36 (KHTML, like Gecko) Chrome/107.0.0.0 Safari/537.36 Edg/107.0.1418.42","WebKit","Edge","107.0.1418.42","Windows","10.0","null","null","","<p style=""font-size: 48px;"">+</p>","3","Filler","",""
"","","","","","sentence","79093","html-keyboard-response","72","177054","0.0-6.0-1.9","73","3","2022-11-17 12:25:09","fd252370c17a9971d68c1d4354a03c2e","","Mozilla/5.0 (Windows NT 10.0; Win64; x64) AppleWebKit/537.36 (KHTML, like Gecko) Chrome/107.0.0.0 Safari/537.36 Edg/107.0.1418.42","WebKit","Edge","107.0.1418.42","Windows","10.0","1101"," ","","A butterfly is sitting on a flower","3","Filler","",""
"","","","","","fixation","79093","html-keyboard-response","73","177564","0.0-6.0-2.9","73","3","2022-11-17 12:25:09","fd252370c17a9971d68c1d4354a03c2e","","Mozilla/5.0 (Windows NT 10.0; Win64; x64) AppleWebKit/537.36 (KHTML, like Gecko) Chrome/107.0.0.0 Safari/537.36 Edg/107.0.1418.42","WebKit","Edge","107.0.1418.42","Windows","10.0","null","null","","<p style=""font-size: 48px;"">+</p>","3","Filler","",""
"","","","","","picture","79093","image-keyboard-response","74","179042","0.0-6.0-3.9","73","3","2022-11-17 12:25:09","fd252370c17a9971d68c1d4354a03c2e","","Mozilla/5.0 (Windows NT 10.0; Win64; x64) AppleWebKit/537.36 (KHTML, like Gecko) Chrome/107.0.0.0 Safari/537.36 Edg/107.0.1418.42","WebKit","Edge","107.0.1418.42","Windows","10.0","1468","n","","soap.jpg","3","Filler","true",""
"","","","","","fixation","79093","html-keyboard-response","75","180065","0.0-6.0-0.10","73","3","2022-11-17 12:25:09","fd252370c17a9971d68c1d4354a03c2e","","Mozilla/5.0 (Windows NT 10.0; Win64; x64) AppleWebKit/537.36 (KHTML, like Gecko) Chrome/107.0.0.0 Safari/537.36 Edg/107.0.1418.42","WebKit","Edge","107.0.1418.42","Windows","10.0","null","null","","<p style=""font-size: 48px;"">+</p>","3","Filler","",""
"","","","","","sentence","79093","html-keyboard-response","76","181101","0.0-6.0-1.10","73","3","2022-11-17 12:25:09","fd252370c17a9971d68c1d4354a03c2e","","Mozilla/5.0 (Windows NT 10.0; Win64; x64) AppleWebKit/537.36 (KHTML, like Gecko) Chrome/107.0.0.0 Safari/537.36 Edg/107.0.1418.42","WebKit","Edge","107.0.1418.42","Windows","10.0","1026"," ","","A pilot is reading a book","3","Filler","",""
"","","","","","fixation","79093","html-keyboard-response","77","181608","0.0-6.0-2.10","73","3","2022-11-17 12:25:09","fd252370c17a9971d68c1d4354a03c2e","","Mozilla/5.0 (Windows NT 10.0; Win64; x64) AppleWebKit/537.36 (KHTML, like Gecko) Chrome/107.0.0.0 Safari/537.36 Edg/107.0.1418.42","WebKit","Edge","107.0.1418.42","Windows","10.0","null","null","","<p style=""font-size: 48px;"">+</p>","3","Filler","",""
"","","","","","picture","79093","image-keyboard-response","78","183404","0.0-6.0-3.10","73","3","2022-11-17 12:25:09","fd252370c17a9971d68c1d4354a03c2e","","Mozilla/5.0 (Windows NT 10.0; Win64; x64) AppleWebKit/537.36 (KHTML, like Gecko) Chrome/107.0.0.0 Safari/537.36 Edg/107.0.1418.42","WebKit","Edge","107.0.1418.42","Windows","10.0","1787","n","","spoon.jpg","3","Filler","true",""
"","","","","","fixation","79093","html-keyboard-response","79","184421","0.0-6.0-0.11","73","3","2022-11-17 12:25:09","fd252370c17a9971d68c1d4354a03c2e","","Mozilla/5.0 (Windows NT 10.0; Win64; x64) AppleWebKit/537.36 (KHTML, like Gecko) Chrome/107.0.0.0 Safari/537.36 Edg/107.0.1418.42","WebKit","Edge","107.0.1418.42","Windows","10.0","null","null","","<p style=""font-size: 48px;"">+</p>","3","Light_Matched","",""
"","","","","","sentence","79093","html-keyboard-response","80","186136","0.0-6.0-1.11","73","3","2022-11-17 12:25:09","fd252370c17a9971d68c1d4354a03c2e","","Mozilla/5.0 (Windows NT 10.0; Win64; x64) AppleWebKit/537.36 (KHTML, like Gecko) Chrome/107.0.0.0 Safari/537.36 Edg/107.0.1418.42","WebKit","Edge","107.0.1418.42","Windows","10.0","1708"," ","","A balloon dropped and touched a TV","3","Light_Matched","",""
"","","","","","fixation","79093","html-keyboard-response","81","186652","0.0-6.0-2.11","73","3","2022-11-17 12:25:09","fd252370c17a9971d68c1d4354a03c2e","","Mozilla/5.0 (Windows NT 10.0; Win64; x64) AppleWebKit/537.36 (KHTML, like Gecko) Chrome/107.0.0.0 Safari/537.36 Edg/107.0.1418.42","WebKit","Edge","107.0.1418.42","Windows","10.0","null","null","","<p style=""font-size: 48px;"">+</p>","3","Light_Matched","",""
"","","","","","picture","79093","image-keyboard-response","82","189688","0.0-6.0-3.11","73","3","2022-11-17 12:25:09","fd252370c17a9971d68c1d4354a03c2e","","Mozilla/5.0 (Windows NT 10.0; Win64; x64) AppleWebKit/537.36 (KHTML, like Gecko) Chrome/107.0.0.0 Safari/537.36 Edg/107.0.1418.42","WebKit","Edge","107.0.1418.42","Windows","10.0","3023","s","","tvS.jpg","3","Light_Matched","true",""
"","","","","","fixation","79093","html-keyboard-response","83","190705","0.0-6.0-0.12","73","3","2022-11-17 12:25:09","fd252370c17a9971d68c1d4354a03c2e","","Mozilla/5.0 (Windows NT 10.0; Win64; x64) AppleWebKit/537.36 (KHTML, like Gecko) Chrome/107.0.0.0 Safari/537.36 Edg/107.0.1418.42","WebKit","Edge","107.0.1418.42","Windows","10.0","null","null","","<p style=""font-size: 48px;"">+</p>","3","Filler","",""
"","","","","","sentence","79093","html-keyboard-response","84","193031","0.0-6.0-1.12","73","3","2022-11-17 12:25:09","fd252370c17a9971d68c1d4354a03c2e","","Mozilla/5.0 (Windows NT 10.0; Win64; x64) AppleWebKit/537.36 (KHTML, like Gecko) Chrome/107.0.0.0 Safari/537.36 Edg/107.0.1418.42","WebKit","Edge","107.0.1418.42","Windows","10.0","2315"," ","","A teenage girl is playing the piano","3","Filler","",""
"","","","","","fixation","79093","html-keyboard-response","85","193541","0.0-6.0-2.12","73","3","2022-11-17 12:25:09","fd252370c17a9971d68c1d4354a03c2e","","Mozilla/5.0 (Windows NT 10.0; Win64; x64) AppleWebKit/537.36 (KHTML, like Gecko) Chrome/107.0.0.0 Safari/537.36 Edg/107.0.1418.42","WebKit","Edge","107.0.1418.42","Windows","10.0","null","null","","<p style=""font-size: 48px;"">+</p>","3","Filler","",""
"","","","","","picture","79093","image-keyboard-response","86","194576","0.0-6.0-3.12","73","3","2022-11-17 12:25:09","fd252370c17a9971d68c1d4354a03c2e","","Mozilla/5.0 (Windows NT 10.0; Win64; x64) AppleWebKit/537.36 (KHTML, like Gecko) Chrome/107.0.0.0 Safari/537.36 Edg/107.0.1418.42","WebKit","Edge","107.0.1418.42","Windows","10.0","1030","n","","pillow.jpg","3","Filler","true",""
"","","","","","fixation","79093","html-keyboard-response","87","195581","0.0-6.0-0.13","73","3","2022-11-17 12:25:09","fd252370c17a9971d68c1d4354a03c2e","","Mozilla/5.0 (Windows NT 10.0; Win64; x64) AppleWebKit/537.36 (KHTML, like Gecko) Chrome/107.0.0.0 Safari/537.36 Edg/107.0.1418.42","WebKit","Edge","107.0.1418.42","Windows","10.0","null","null","","<p style=""font-size: 48px;"">+</p>","3","Heavy_Matched","",""
"","","","","","sentence","79093","html-keyboard-response","88","197892","0.0-6.0-1.13","73","3","2022-11-17 12:25:09","fd252370c17a9971d68c1d4354a03c2e","","Mozilla/5.0 (Windows NT 10.0; Win64; x64) AppleWebKit/537.36 (KHTML, like Gecko) Chrome/107.0.0.0 Safari/537.36 Edg/107.0.1418.42","WebKit","Edge","107.0.1418.42","Windows","10.0","2309"," ","","A bowling ball dropped and smashed a light bulb","3","Heavy_Matched","",""
"","","","","","fixation","79093","html-keyboard-response","89","198411","0.0-6.0-2.13","73","3","2022-11-17 12:25:09","fd252370c17a9971d68c1d4354a03c2e","","Mozilla/5.0 (Windows NT 10.0; Win64; x64) AppleWebKit/537.36 (KHTML, like Gecko) Chrome/107.0.0.0 Safari/537.36 Edg/107.0.1418.42","WebKit","Edge","107.0.1418.42","Windows","10.0","null","null","","<p style=""font-size: 48px;"">+</p>","3","Heavy_Matched","",""
"","","","","","picture","79093","image-keyboard-response","90","199825","0.0-6.0-3.13","73","3","2022-11-17 12:25:09","fd252370c17a9971d68c1d4354a03c2e","","Mozilla/5.0 (Windows NT 10.0; Win64; x64) AppleWebKit/537.36 (KHTML, like Gecko) Chrome/107.0.0.0 Safari/537.36 Edg/107.0.1418.42","WebKit","Edge","107.0.1418.42","Windows","10.0","1409","s","","lampS.jpg","3","Heavy_Matched","true",""
"","","","","","fixation","79093","html-keyboard-response","91","200846","0.0-6.0-0.14","73","3","2022-11-17 12:25:09","fd252370c17a9971d68c1d4354a03c2e","","Mozilla/5.0 (Windows NT 10.0; Win64; x64) AppleWebKit/537.36 (KHTML, like Gecko) Chrome/107.0.0.0 Safari/537.36 Edg/107.0.1418.42","WebKit","Edge","107.0.1418.42","Windows","10.0","null","null","","<p style=""font-size: 48px;"">+</p>","3","Filler","",""
"","","","","","sentence","79093","html-keyboard-response","92","202445","0.0-6.0-1.14","73","3","2022-11-17 12:25:09","fd252370c17a9971d68c1d4354a03c2e","","Mozilla/5.0 (Windows NT 10.0; Win64; x64) AppleWebKit/537.36 (KHTML, like Gecko) Chrome/107.0.0.0 Safari/537.36 Edg/107.0.1418.42","WebKit","Edge","107.0.1418.42","Windows","10.0","1594"," ","","A doctor is taking a stethoscope","3","Filler","",""
"","","","","","fixation","79093","html-keyboard-response","93","202965","0.0-6.0-2.14","73","3","2022-11-17 12:25:09","fd252370c17a9971d68c1d4354a03c2e","","Mozilla/5.0 (Windows NT 10.0; Win64; x64) AppleWebKit/537.36 (KHTML, like Gecko) Chrome/107.0.0.0 Safari/537.36 Edg/107.0.1418.42","WebKit","Edge","107.0.1418.42","Windows","10.0","null","null","","<p style=""font-size: 48px;"">+</p>","3","Filler","",""
"","","","","","picture","79093","image-keyboard-response","94","205176","0.0-6.0-3.14","73","3","2022-11-17 12:25:09","fd252370c17a9971d68c1d4354a03c2e","","Mozilla/5.0 (Windows NT 10.0; Win64; x64) AppleWebKit/537.36 (KHTML, like Gecko) Chrome/107.0.0.0 Safari/537.36 Edg/107.0.1418.42","WebKit","Edge","107.0.1418.42","Windows","10.0","2189","n","","matchesbox.jpg","3","Filler","true",""
"","","","","","fixation","79093","html-keyboard-response","95","206180","0.0-6.0-0.15","73","3","2022-11-17 12:25:09","fd252370c17a9971d68c1d4354a03c2e","","Mozilla/5.0 (Windows NT 10.0; Win64; x64) AppleWebKit/537.36 (KHTML, like Gecko) Chrome/107.0.0.0 Safari/537.36 Edg/107.0.1418.42","WebKit","Edge","107.0.1418.42","Windows","10.0","null","null","","<p style=""font-size: 48px;"">+</p>","3","Heavy_Contradictory","",""
"","","","","","sentence","79093","html-keyboard-response","96","207457","0.0-6.0-1.15","73","3","2022-11-17 12:25:09","fd252370c17a9971d68c1d4354a03c2e","","Mozilla/5.0 (Windows NT 10.0; Win64; x64) AppleWebKit/537.36 (KHTML, like Gecko) Chrome/107.0.0.0 Safari/537.36 Edg/107.0.1418.42","WebKit","Edge","107.0.1418.42","Windows","10.0","1272"," ","","A bowling ball dropped and touched a vase","3","Heavy_Contradictory","",""
"","","","","","fixation","79093","html-keyboard-response","97","207973","0.0-6.0-2.15","73","3","2022-11-17 12:25:09","fd252370c17a9971d68c1d4354a03c2e","","Mozilla/5.0 (Windows NT 10.0; Win64; x64) AppleWebKit/537.36 (KHTML, like Gecko) Chrome/107.0.0.0 Safari/537.36 Edg/107.0.1418.42","WebKit","Edge","107.0.1418.42","Windows","10.0","null","null","","<p style=""font-size: 48px;"">+</p>","3","Heavy_Contradictory","",""
"","","","","","picture","79093","image-keyboard-response","98","209553","0.0-6.0-3.15","73","3","2022-11-17 12:25:09","fd252370c17a9971d68c1d4354a03c2e","","Mozilla/5.0 (Windows NT 10.0; Win64; x64) AppleWebKit/537.36 (KHTML, like Gecko) Chrome/107.0.0.0 Safari/537.36 Edg/107.0.1418.42","WebKit","Edge","107.0.1418.42","Windows","10.0","1574","s","","vaseS.jpg","3","Heavy_Contradictory","true",""
"","","","","","fixation","79093","html-keyboard-response","99","210572","0.0-6.0-0.16","73","3","2022-11-17 12:25:09","fd252370c17a9971d68c1d4354a03c2e","","Mozilla/5.0 (Windows NT 10.0; Win64; x64) AppleWebKit/537.36 (KHTML, like Gecko) Chrome/107.0.0.0 Safari/537.36 Edg/107.0.1418.42","WebKit","Edge","107.0.1418.42","Windows","10.0","null","null","","<p style=""font-size: 48px;"">+</p>","3","Filler","",""
"","","","","","sentence","79093","html-keyboard-response","100","211391","0.0-6.0-1.16","73","3","2022-11-17 12:25:09","fd252370c17a9971d68c1d4354a03c2e","","Mozilla/5.0 (Windows NT 10.0; Win64; x64) AppleWebKit/537.36 (KHTML, like Gecko) Chrome/107.0.0.0 Safari/537.36 Edg/107.0.1418.42","WebKit","Edge","107.0.1418.42","Windows","10.0","816"," ","","A mouse is eating cheese","3","Filler","",""
"","","","","","fixation","79093","html-keyboard-response","101","211908","0.0-6.0-2.16","73","3","2022-11-17 12:25:09","fd252370c17a9971d68c1d4354a03c2e","","Mozilla/5.0 (Windows NT 10.0; Win64; x64) AppleWebKit/537.36 (KHTML, like Gecko) Chrome/107.0.0.0 Safari/537.36 Edg/107.0.1418.42","WebKit","Edge","107.0.1418.42","Windows","10.0","null","null","","<p style=""font-size: 48px;"">+</p>","3","Filler","",""
"","","","","","picture","79093","image-keyboard-response","102","213547","0.0-6.0-3.16","73","3","2022-11-17 12:25:09","fd252370c17a9971d68c1d4354a03c2e","","Mozilla/5.0 (Windows NT 10.0; Win64; x64) AppleWebKit/537.36 (KHTML, like Gecko) Chrome/107.0.0.0 Safari/537.36 Edg/107.0.1418.42","WebKit","Edge","107.0.1418.42","Windows","10.0","1627","n","","ring.jpg","3","Filler","true",""
"","","","","","fixation","79093","html-keyboard-response","103","214565","0.0-6.0-0.17","73","3","2022-11-17 12:25:09","fd252370c17a9971d68c1d4354a03c2e","","Mozilla/5.0 (Windows NT 10.0; Win64; x64) AppleWebKit/537.36 (KHTML, like Gecko) Chrome/107.0.0.0 Safari/537.36 Edg/107.0.1418.42","WebKit","Edge","107.0.1418.42","Windows","10.0","null","null","","<p style=""font-size: 48px;"">+</p>","3","Filler","",""
"","","","","","sentence","79093","html-keyboard-response","104","215987","0.0-6.0-1.17","73","3","2022-11-17 12:25:09","fd252370c17a9971d68c1d4354a03c2e","","Mozilla/5.0 (Windows NT 10.0; Win64; x64) AppleWebKit/537.36 (KHTML, like Gecko) Chrome/107.0.0.0 Safari/537.36 Edg/107.0.1418.42","WebKit","Edge","107.0.1418.42","Windows","10.0","1419"," ","","A dentist is drinking a can of cola","3","Filler","",""
"","","","","","fixation","79093","html-keyboard-response","105","216509","0.0-6.0-2.17","73","3","2022-11-17 12:25:09","fd252370c17a9971d68c1d4354a03c2e","","Mozilla/5.0 (Windows NT 10.0; Win64; x64) AppleWebKit/537.36 (KHTML, like Gecko) Chrome/107.0.0.0 Safari/537.36 Edg/107.0.1418.42","WebKit","Edge","107.0.1418.42","Windows","10.0","null","null","","<p style=""font-size: 48px;"">+</p>","3","Filler","",""
"","","","","","picture","79093","image-keyboard-response","106","218421","0.0-6.0-3.17","73","3","2022-11-17 12:25:09","fd252370c17a9971d68c1d4354a03c2e","","Mozilla/5.0 (Windows NT 10.0; Win64; x64) AppleWebKit/537.36 (KHTML, like Gecko) Chrome/107.0.0.0 Safari/537.36 Edg/107.0.1418.42","WebKit","Edge","107.0.1418.42","Windows","10.0","1897","n","","doll.jpg","3","Filler","true",""
"","","","","","fixation","79093","html-keyboard-response","107","219428","0.0-6.0-0.18","73","3","2022-11-17 12:25:09","fd252370c17a9971d68c1d4354a03c2e","","Mozilla/5.0 (Windows NT 10.0; Win64; x64) AppleWebKit/537.36 (KHTML, like Gecko) Chrome/107.0.0.0 Safari/537.36 Edg/107.0.1418.42","WebKit","Edge","107.0.1418.42","Windows","10.0","null","null","","<p style=""font-size: 48px;"">+</p>","3","Filler","",""
"","","","","","sentence","79093","html-keyboard-response","108","220734","0.0-6.0-1.18","73","3","2022-11-17 12:25:09","fd252370c17a9971d68c1d4354a03c2e","","Mozilla/5.0 (Windows NT 10.0; Win64; x64) AppleWebKit/537.36 (KHTML, like Gecko) Chrome/107.0.0.0 Safari/537.36 Edg/107.0.1418.42","WebKit","Edge","107.0.1418.42","Windows","10.0","1301"," ","","A cushion was placed on the magazine","3","Filler","",""
"","","","","","fixation","79093","html-keyboard-response","109","221252","0.0-6.0-2.18","73","3","2022-11-17 12:25:09","fd252370c17a9971d68c1d4354a03c2e","","Mozilla/5.0 (Windows NT 10.0; Win64; x64) AppleWebKit/537.36 (KHTML, like Gecko) Chrome/107.0.0.0 Safari/537.36 Edg/107.0.1418.42","WebKit","Edge","107.0.1418.42","Windows","10.0","null","null","","<p style=""font-size: 48px;"">+</p>","3","Filler","",""
"","","","","","picture","79093","image-keyboard-response","110","222437","0.0-6.0-3.18","73","3","2022-11-17 12:25:09","fd252370c17a9971d68c1d4354a03c2e","","Mozilla/5.0 (Windows NT 10.0; Win64; x64) AppleWebKit/537.36 (KHTML, like Gecko) Chrome/107.0.0.0 Safari/537.36 Edg/107.0.1418.42","WebKit","Edge","107.0.1418.42","Windows","10.0","1172","n","","box.jpg","3","Filler","true",""
"","","","","","fixation","79093","html-keyboard-response","111","223461","0.0-6.0-0.19","73","3","2022-11-17 12:25:09","fd252370c17a9971d68c1d4354a03c2e","","Mozilla/5.0 (Windows NT 10.0; Win64; x64) AppleWebKit/537.36 (KHTML, like Gecko) Chrome/107.0.0.0 Safari/537.36 Edg/107.0.1418.42","WebKit","Edge","107.0.1418.42","Windows","10.0","null","null","","<p style=""font-size: 48px;"">+</p>","3","Light_Contradictory","",""
"","","","","","sentence","79093","html-keyboard-response","112","225041","0.0-6.0-1.19","73","3","2022-11-17 12:25:09","fd252370c17a9971d68c1d4354a03c2e","","Mozilla/5.0 (Windows NT 10.0; Win64; x64) AppleWebKit/537.36 (KHTML, like Gecko) Chrome/107.0.0.0 Safari/537.36 Edg/107.0.1418.42","WebKit","Edge","107.0.1418.42","Windows","10.0","1565"," ","","A balloon dropped and smashed an egg flan","3","Light_Contradictory","",""
"","","","","","fixation","79093","html-keyboard-response","113","225563","0.0-6.0-2.19","73","3","2022-11-17 12:25:09","fd252370c17a9971d68c1d4354a03c2e","","Mozilla/5.0 (Windows NT 10.0; Win64; x64) AppleWebKit/537.36 (KHTML, like Gecko) Chrome/107.0.0.0 Safari/537.36 Edg/107.0.1418.42","WebKit","Edge","107.0.1418.42","Windows","10.0","null","null","","<p style=""font-size: 48px;"">+</p>","3","Light_Contradictory","",""
"","","","","","picture","79093","image-keyboard-response","114","229106","0.0-6.0-3.19","73","3","2022-11-17 12:25:09","fd252370c17a9971d68c1d4354a03c2e","","Mozilla/5.0 (Windows NT 10.0; Win64; x64) AppleWebKit/537.36 (KHTML, like Gecko) Chrome/107.0.0.0 Safari/537.36 Edg/107.0.1418.42","WebKit","Edge","107.0.1418.42","Windows","10.0","3534","s","","eggflanS.jpg","3","Light_Contradictory","true",""
"","","","","","fixation","79093","html-keyboard-response","115","230131","0.0-6.0-0.20","73","3","2022-11-17 12:25:09","fd252370c17a9971d68c1d4354a03c2e","","Mozilla/5.0 (Windows NT 10.0; Win64; x64) AppleWebKit/537.36 (KHTML, like Gecko) Chrome/107.0.0.0 Safari/537.36 Edg/107.0.1418.42","WebKit","Edge","107.0.1418.42","Windows","10.0","null","null","","<p style=""font-size: 48px;"">+</p>","3","Light_Contradictory","",""
"","","","","","sentence","79093","html-keyboard-response","116","231590","0.0-6.0-1.20","73","3","2022-11-17 12:25:09","fd252370c17a9971d68c1d4354a03c2e","","Mozilla/5.0 (Windows NT 10.0; Win64; x64) AppleWebKit/537.36 (KHTML, like Gecko) Chrome/107.0.0.0 Safari/537.36 Edg/107.0.1418.42","WebKit","Edge","107.0.1418.42","Windows","10.0","1446"," ","","A balloon dropped and smashed a blackberry","3","Light_Contradictory","",""
"","","","","","fixation","79093","html-keyboard-response","117","232100","0.0-6.0-2.20","73","3","2022-11-17 12:25:09","fd252370c17a9971d68c1d4354a03c2e","","Mozilla/5.0 (Windows NT 10.0; Win64; x64) AppleWebKit/537.36 (KHTML, like Gecko) Chrome/107.0.0.0 Safari/537.36 Edg/107.0.1418.42","WebKit","Edge","107.0.1418.42","Windows","10.0","null","null","","<p style=""font-size: 48px;"">+</p>","3","Light_Contradictory","",""
"","","","","","picture","79093","image-keyboard-response","118","233689","0.0-6.0-3.20","73","3","2022-11-17 12:25:09","fd252370c17a9971d68c1d4354a03c2e","","Mozilla/5.0 (Windows NT 10.0; Win64; x64) AppleWebKit/537.36 (KHTML, like Gecko) Chrome/107.0.0.0 Safari/537.36 Edg/107.0.1418.42","WebKit","Edge","107.0.1418.42","Windows","10.0","1583","s","","blackberryS.jpg","3","Light_Contradictory","true",""
"","","","","","fixation","79093","html-keyboard-response","119","234701","0.0-6.0-0.21","73","3","2022-11-17 12:25:09","fd252370c17a9971d68c1d4354a03c2e","","Mozilla/5.0 (Windows NT 10.0; Win64; x64) AppleWebKit/537.36 (KHTML, like Gecko) Chrome/107.0.0.0 Safari/537.36 Edg/107.0.1418.42","WebKit","Edge","107.0.1418.42","Windows","10.0","null","null","","<p style=""font-size: 48px;"">+</p>","3","Filler","",""
"","","","","","sentence","79093","html-keyboard-response","120","236502","0.0-6.0-1.21","73","3","2022-11-17 12:25:09","fd252370c17a9971d68c1d4354a03c2e","","Mozilla/5.0 (Windows NT 10.0; Win64; x64) AppleWebKit/537.36 (KHTML, like Gecko) Chrome/107.0.0.0 Safari/537.36 Edg/107.0.1418.42","WebKit","Edge","107.0.1418.42","Windows","10.0","1795"," ","","A president is writing in the notebook","3","Filler","",""
"","","","","","fixation","79093","html-keyboard-response","121","237011","0.0-6.0-2.21","73","3","2022-11-17 12:25:09","fd252370c17a9971d68c1d4354a03c2e","","Mozilla/5.0 (Windows NT 10.0; Win64; x64) AppleWebKit/537.36 (KHTML, like Gecko) Chrome/107.0.0.0 Safari/537.36 Edg/107.0.1418.42","WebKit","Edge","107.0.1418.42","Windows","10.0","null","null","","<p style=""font-size: 48px;"">+</p>","3","Filler","",""
"","","","","","picture","79093","image-keyboard-response","122","238084","0.0-6.0-3.21","73","3","2022-11-17 12:25:09","fd252370c17a9971d68c1d4354a03c2e","","Mozilla/5.0 (Windows NT 10.0; Win64; x64) AppleWebKit/537.36 (KHTML, like Gecko) Chrome/107.0.0.0 Safari/537.36 Edg/107.0.1418.42","WebKit","Edge","107.0.1418.42","Windows","10.0","1067","n","","can.jpg","3","Filler","true",""
"","","","","","fixation","79093","html-keyboard-response","123","239107","0.0-6.0-0.22","73","3","2022-11-17 12:25:09","fd252370c17a9971d68c1d4354a03c2e","","Mozilla/5.0 (Windows NT 10.0; Win64; x64) AppleWebKit/537.36 (KHTML, like Gecko) Chrome/107.0.0.0 Safari/537.36 Edg/107.0.1418.42","WebKit","Edge","107.0.1418.42","Windows","10.0","null","null","","<p style=""font-size: 48px;"">+</p>","3","Filler","",""
"","","","","","sentence","79093","html-keyboard-response","124","240740","0.0-6.0-1.22","73","3","2022-11-17 12:25:09","fd252370c17a9971d68c1d4354a03c2e","","Mozilla/5.0 (Windows NT 10.0; Win64; x64) AppleWebKit/537.36 (KHTML, like Gecko) Chrome/107.0.0.0 Safari/537.36 Edg/107.0.1418.42","WebKit","Edge","107.0.1418.42","Windows","10.0","1627"," ","","A ring was placed on the newspaper","3","Filler","",""
"","","","","","fixation","79093","html-keyboard-response","125","241253","0.0-6.0-2.22","73","3","2022-11-17 12:25:09","fd252370c17a9971d68c1d4354a03c2e","","Mozilla/5.0 (Windows NT 10.0; Win64; x64) AppleWebKit/537.36 (KHTML, like Gecko) Chrome/107.0.0.0 Safari/537.36 Edg/107.0.1418.42","WebKit","Edge","107.0.1418.42","Windows","10.0","null","null","","<p style=""font-size: 48px;"">+</p>","3","Filler","",""
"","","","","","picture","79093","image-keyboard-response","126","242121","0.0-6.0-3.22","73","3","2022-11-17 12:25:09","fd252370c17a9971d68c1d4354a03c2e","","Mozilla/5.0 (Windows NT 10.0; Win64; x64) AppleWebKit/537.36 (KHTML, like Gecko) Chrome/107.0.0.0 Safari/537.36 Edg/107.0.1418.42","WebKit","Edge","107.0.1418.42","Windows","10.0","864","n","","cat.jpg","3","Filler","true",""
"","","","","","fixation","79093","html-keyboard-response","127","243132","0.0-6.0-0.23","73","3","2022-11-17 12:25:09","fd252370c17a9971d68c1d4354a03c2e","","Mozilla/5.0 (Windows NT 10.0; Win64; x64) AppleWebKit/537.36 (KHTML, like Gecko) Chrome/107.0.0.0 Safari/537.36 Edg/107.0.1418.42","WebKit","Edge","107.0.1418.42","Windows","10.0","null","null","","<p style=""font-size: 48px;"">+</p>","3","Filler","",""
"","","","","","sentence","79093","html-keyboard-response","128","244255","0.0-6.0-1.23","73","3","2022-11-17 12:25:09","fd252370c17a9971d68c1d4354a03c2e","","Mozilla/5.0 (Windows NT 10.0; Win64; x64) AppleWebKit/537.36 (KHTML, like Gecko) Chrome/107.0.0.0 Safari/537.36 Edg/107.0.1418.42","WebKit","Edge","107.0.1418.42","Windows","10.0","1117"," ","","A zebra is playing with a horse","3","Filler","",""
"","","","","","fixation","79093","html-keyboard-response","129","244771","0.0-6.0-2.23","73","3","2022-11-17 12:25:09","fd252370c17a9971d68c1d4354a03c2e","","Mozilla/5.0 (Windows NT 10.0; Win64; x64) AppleWebKit/537.36 (KHTML, like Gecko) Chrome/107.0.0.0 Safari/537.36 Edg/107.0.1418.42","WebKit","Edge","107.0.1418.42","Windows","10.0","null","null","","<p style=""font-size: 48px;"">+</p>","3","Filler","",""
"","","","","","picture","79093","image-keyboard-response","130","245942","0.0-6.0-3.23","73","3","2022-11-17 12:25:09","fd252370c17a9971d68c1d4354a03c2e","","Mozilla/5.0 (Windows NT 10.0; Win64; x64) AppleWebKit/537.36 (KHTML, like Gecko) Chrome/107.0.0.0 Safari/537.36 Edg/107.0.1418.42","WebKit","Edge","107.0.1418.42","Windows","10.0","1167","n","","watch.jpg","3","Filler","true",""
"","","","","","fixation","79093","html-keyboard-response","131","246948","0.0-6.0-0.24","73","3","2022-11-17 12:25:09","fd252370c17a9971d68c1d4354a03c2e","","Mozilla/5.0 (Windows NT 10.0; Win64; x64) AppleWebKit/537.36 (KHTML, like Gecko) Chrome/107.0.0.0 Safari/537.36 Edg/107.0.1418.42","WebKit","Edge","107.0.1418.42","Windows","10.0","null","null","","<p style=""font-size: 48px;"">+</p>","3","Filler","",""
"","","","","","sentence","79093","html-keyboard-response","132","248807","0.0-6.0-1.24","73","3","2022-11-17 12:25:09","fd252370c17a9971d68c1d4354a03c2e","","Mozilla/5.0 (Windows NT 10.0; Win64; x64) AppleWebKit/537.36 (KHTML, like Gecko) Chrome/107.0.0.0 Safari/537.36 Edg/107.0.1418.42","WebKit","Edge","107.0.1418.42","Windows","10.0","1854"," ","","A man is shaving his beard","3","Filler","",""
"","","","","","fixation","79093","html-keyboard-response","133","249329","0.0-6.0-2.24","73","3","2022-11-17 12:25:09","fd252370c17a9971d68c1d4354a03c2e","","Mozilla/5.0 (Windows NT 10.0; Win64; x64) AppleWebKit/537.36 (KHTML, like Gecko) Chrome/107.0.0.0 Safari/537.36 Edg/107.0.1418.42","WebKit","Edge","107.0.1418.42","Windows","10.0","null","null","","<p style=""font-size: 48px;"">+</p>","3","Filler","",""
"","","","","","picture","79093","image-keyboard-response","134","250419","0.0-6.0-3.24","73","3","2022-11-17 12:25:09","fd252370c17a9971d68c1d4354a03c2e","","Mozilla/5.0 (Windows NT 10.0; Win64; x64) AppleWebKit/537.36 (KHTML, like Gecko) Chrome/107.0.0.0 Safari/537.36 Edg/107.0.1418.42","WebKit","Edge","107.0.1418.42","Windows","10.0","1083","n","","clock.jpg","3","Filler","true",""
"","","","","","fixation","79093","html-keyboard-response","135","251429","0.0-6.0-0.25","73","3","2022-11-17 12:25:09","fd252370c17a9971d68c1d4354a03c2e","","Mozilla/5.0 (Windows NT 10.0; Win64; x64) AppleWebKit/537.36 (KHTML, like Gecko) Chrome/107.0.0.0 Safari/537.36 Edg/107.0.1418.42","WebKit","Edge","107.0.1418.42","Windows","10.0","null","null","","<p style=""font-size: 48px;"">+</p>","3","Filler","",""
"","","","","","sentence","79093","html-keyboard-response","136","253092","0.0-6.0-1.25","73","3","2022-11-17 12:25:09","fd252370c17a9971d68c1d4354a03c2e","","Mozilla/5.0 (Windows NT 10.0; Win64; x64) AppleWebKit/537.36 (KHTML, like Gecko) Chrome/107.0.0.0 Safari/537.36 Edg/107.0.1418.42","WebKit","Edge","107.0.1418.42","Windows","10.0","1659"," ","","A keyboard was placed on the bed","3","Filler","",""
"","","","","","fixation","79093","html-keyboard-response","137","253605","0.0-6.0-2.25","73","3","2022-11-17 12:25:09","fd252370c17a9971d68c1d4354a03c2e","","Mozilla/5.0 (Windows NT 10.0; Win64; x64) AppleWebKit/537.36 (KHTML, like Gecko) Chrome/107.0.0.0 Safari/537.36 Edg/107.0.1418.42","WebKit","Edge","107.0.1418.42","Windows","10.0","null","null","","<p style=""font-size: 48px;"">+</p>","3","Filler","",""
"","","","","","picture","79093","image-keyboard-response","138","255062","0.0-6.0-3.25","73","3","2022-11-17 12:25:09","fd252370c17a9971d68c1d4354a03c2e","","Mozilla/5.0 (Windows NT 10.0; Win64; x64) AppleWebKit/537.36 (KHTML, like Gecko) Chrome/107.0.0.0 Safari/537.36 Edg/107.0.1418.42","WebKit","Edge","107.0.1418.42","Windows","10.0","1451","n","","bottlecap.jpg","3","Filler","true",""
"","","","","","fixation","79093","html-keyboard-response","139","256069","0.0-6.0-0.26","73","3","2022-11-17 12:25:09","fd252370c17a9971d68c1d4354a03c2e","","Mozilla/5.0 (Windows NT 10.0; Win64; x64) AppleWebKit/537.36 (KHTML, like Gecko) Chrome/107.0.0.0 Safari/537.36 Edg/107.0.1418.42","WebKit","Edge","107.0.1418.42","Windows","10.0","null","null","","<p style=""font-size: 48px;"">+</p>","3","Heavy_Contradictory","",""
"","","","","","sentence","79093","html-keyboard-response","140","257869","0.0-6.0-1.26","73","3","2022-11-17 12:25:09","fd252370c17a9971d68c1d4354a03c2e","","Mozilla/5.0 (Windows NT 10.0; Win64; x64) AppleWebKit/537.36 (KHTML, like Gecko) Chrome/107.0.0.0 Safari/537.36 Edg/107.0.1418.42","WebKit","Edge","107.0.1418.42","Windows","10.0","1794"," ","","A bowling ball dropped and touched a ceramic plate","3","Heavy_Contradictory","",""
"","","","","","fixation","79093","html-keyboard-response","141","258381","0.0-6.0-2.26","73","3","2022-11-17 12:25:09","fd252370c17a9971d68c1d4354a03c2e","","Mozilla/5.0 (Windows NT 10.0; Win64; x64) AppleWebKit/537.36 (KHTML, like Gecko) Chrome/107.0.0.0 Safari/537.36 Edg/107.0.1418.42","WebKit","Edge","107.0.1418.42","Windows","10.0","null","null","","<p style=""font-size: 48px;"">+</p>","3","Heavy_Contradictory","",""
"","","","","","picture","79093","image-keyboard-response","142","259735","0.0-6.0-3.26","73","3","2022-11-17 12:25:09","fd252370c17a9971d68c1d4354a03c2e","","Mozilla/5.0 (Windows NT 10.0; Win64; x64) AppleWebKit/537.36 (KHTML, like Gecko) Chrome/107.0.0.0 Safari/537.36 Edg/107.0.1418.42","WebKit","Edge","107.0.1418.42","Windows","10.0","1348","s","","plateS.jpg","3","Heavy_Contradictory","true",""
"","","","","","fixation","79093","html-keyboard-response","143","260748","0.0-6.0-0.27","73","3","2022-11-17 12:25:09","fd252370c17a9971d68c1d4354a03c2e","","Mozilla/5.0 (Windows NT 10.0; Win64; x64) AppleWebKit/537.36 (KHTML, like Gecko) Chrome/107.0.0.0 Safari/537.36 Edg/107.0.1418.42","WebKit","Edge","107.0.1418.42","Windows","10.0","null","null","","<p style=""font-size: 48px;"">+</p>","3","Filler","",""
"","","","","","sentence","79093","html-keyboard-response","144","261637","0.0-6.0-1.27","73","3","2022-11-17 12:25:09","fd252370c17a9971d68c1d4354a03c2e","","Mozilla/5.0 (Windows NT 10.0; Win64; x64) AppleWebKit/537.36 (KHTML, like Gecko) Chrome/107.0.0.0 Safari/537.36 Edg/107.0.1418.42","WebKit","Edge","107.0.1418.42","Windows","10.0","881"," ","","A watch was placed on the laptop","3","Filler","",""
"","","","","","fixation","79093","html-keyboard-response","145","262149","0.0-6.0-2.27","73","3","2022-11-17 12:25:09","fd252370c17a9971d68c1d4354a03c2e","","Mozilla/5.0 (Windows NT 10.0; Win64; x64) AppleWebKit/537.36 (KHTML, like Gecko) Chrome/107.0.0.0 Safari/537.36 Edg/107.0.1418.42","WebKit","Edge","107.0.1418.42","Windows","10.0","null","null","","<p style=""font-size: 48px;"">+</p>","3","Filler","",""
"","","","","","picture","79093","image-keyboard-response","146","263357","0.0-6.0-3.27","73","3","2022-11-17 12:25:09","fd252370c17a9971d68c1d4354a03c2e","","Mozilla/5.0 (Windows NT 10.0; Win64; x64) AppleWebKit/537.36 (KHTML, like Gecko) Chrome/107.0.0.0 Safari/537.36 Edg/107.0.1418.42","WebKit","Edge","107.0.1418.42","Windows","10.0","1202","n","","bow.jpg","3","Filler","true",""
"","","","","","fixation","79093","html-keyboard-response","147","264373","0.0-6.0-0.28","73","3","2022-11-17 12:25:09","fd252370c17a9971d68c1d4354a03c2e","","Mozilla/5.0 (Windows NT 10.0; Win64; x64) AppleWebKit/537.36 (KHTML, like Gecko) Chrome/107.0.0.0 Safari/537.36 Edg/107.0.1418.42","WebKit","Edge","107.0.1418.42","Windows","10.0","null","null","","<p style=""font-size: 48px;"">+</p>","3","Filler","",""
"","","","","","sentence","79093","html-keyboard-response","148","265402","0.0-6.0-1.28","73","3","2022-11-17 12:25:09","fd252370c17a9971d68c1d4354a03c2e","","Mozilla/5.0 (Windows NT 10.0; Win64; x64) AppleWebKit/537.36 (KHTML, like Gecko) Chrome/107.0.0.0 Safari/537.36 Edg/107.0.1418.42","WebKit","Edge","107.0.1418.42","Windows","10.0","1016"," ","","A fork was placed on the plate","3","Filler","",""
"","","","","","fixation","79093","html-keyboard-response","149","265916","0.0-6.0-2.28","73","3","2022-11-17 12:25:09","fd252370c17a9971d68c1d4354a03c2e","","Mozilla/5.0 (Windows NT 10.0; Win64; x64) AppleWebKit/537.36 (KHTML, like Gecko) Chrome/107.0.0.0 Safari/537.36 Edg/107.0.1418.42","WebKit","Edge","107.0.1418.42","Windows","10.0","null","null","","<p style=""font-size: 48px;"">+</p>","3","Filler","",""
"","","","","","picture","79093","image-keyboard-response","150","268319","0.0-6.0-3.28","73","3","2022-11-17 12:25:09","fd252370c17a9971d68c1d4354a03c2e","","Mozilla/5.0 (Windows NT 10.0; Win64; x64) AppleWebKit/537.36 (KHTML, like Gecko) Chrome/107.0.0.0 Safari/537.36 Edg/107.0.1418.42","WebKit","Edge","107.0.1418.42","Windows","10.0","2390","n","","plate.jpg","3","Filler","false",""
"","","","","","fixation","79093","html-keyboard-response","151","269341","0.0-6.0-0.29","73","3","2022-11-17 12:25:09","fd252370c17a9971d68c1d4354a03c2e","","Mozilla/5.0 (Windows NT 10.0; Win64; x64) AppleWebKit/537.36 (KHTML, like Gecko) Chrome/107.0.0.0 Safari/537.36 Edg/107.0.1418.42","WebKit","Edge","107.0.1418.42","Windows","10.0","null","null","","<p style=""font-size: 48px;"">+</p>","3","Filler","",""
"","","","","","sentence","79093","html-keyboard-response","152","270473","0.0-6.0-1.29","73","3","2022-11-17 12:25:09","fd252370c17a9971d68c1d4354a03c2e","","Mozilla/5.0 (Windows NT 10.0; Win64; x64) AppleWebKit/537.36 (KHTML, like Gecko) Chrome/107.0.0.0 Safari/537.36 Edg/107.0.1418.42","WebKit","Edge","107.0.1418.42","Windows","10.0","1114"," ","","A thief is stealing a wallet","3","Filler","",""
"","","","","","fixation","79093","html-keyboard-response","153","270995","0.0-6.0-2.29","73","3","2022-11-17 12:25:09","fd252370c17a9971d68c1d4354a03c2e","","Mozilla/5.0 (Windows NT 10.0; Win64; x64) AppleWebKit/537.36 (KHTML, like Gecko) Chrome/107.0.0.0 Safari/537.36 Edg/107.0.1418.42","WebKit","Edge","107.0.1418.42","Windows","10.0","null","null","","<p style=""font-size: 48px;"">+</p>","3","Filler","",""
"","","","","","picture","79093","image-keyboard-response","154","271981","0.0-6.0-3.29","73","3","2022-11-17 12:25:09","fd252370c17a9971d68c1d4354a03c2e","","Mozilla/5.0 (Windows NT 10.0; Win64; x64) AppleWebKit/537.36 (KHTML, like Gecko) Chrome/107.0.0.0 Safari/537.36 Edg/107.0.1418.42","WebKit","Edge","107.0.1418.42","Windows","10.0","973","n","","teddybear.jpg","3","Filler","true",""
"","","","","","fixation","79093","html-keyboard-response","155","272988","0.0-6.0-0.30","73","3","2022-11-17 12:25:09","fd252370c17a9971d68c1d4354a03c2e","","Mozilla/5.0 (Windows NT 10.0; Win64; x64) AppleWebKit/537.36 (KHTML, like Gecko) Chrome/107.0.0.0 Safari/537.36 Edg/107.0.1418.42","WebKit","Edge","107.0.1418.42","Windows","10.0","null","null","","<p style=""font-size: 48px;"">+</p>","3","Filler","",""
"","","","","","sentence","79093","html-keyboard-response","156","275215","0.0-6.0-1.30","73","3","2022-11-17 12:25:09","fd252370c17a9971d68c1d4354a03c2e","","Mozilla/5.0 (Windows NT 10.0; Win64; x64) AppleWebKit/537.36 (KHTML, like Gecko) Chrome/107.0.0.0 Safari/537.36 Edg/107.0.1418.42","WebKit","Edge","107.0.1418.42","Windows","10.0","2210"," ","","A postman is driving a car","3","Filler","",""
"","","","","","fixation","79093","html-keyboard-response","157","275729","0.0-6.0-2.30","73","3","2022-11-17 12:25:09","fd252370c17a9971d68c1d4354a03c2e","","Mozilla/5.0 (Windows NT 10.0; Win64; x64) AppleWebKit/537.36 (KHTML, like Gecko) Chrome/107.0.0.0 Safari/537.36 Edg/107.0.1418.42","WebKit","Edge","107.0.1418.42","Windows","10.0","null","null","","<p style=""font-size: 48px;"">+</p>","3","Filler","",""
"","","","","","picture","79093","image-keyboard-response","158","277743","0.0-6.0-3.30","73","3","2022-11-17 12:25:09","fd252370c17a9971d68c1d4354a03c2e","","Mozilla/5.0 (Windows NT 10.0; Win64; x64) AppleWebKit/537.36 (KHTML, like Gecko) Chrome/107.0.0.0 Safari/537.36 Edg/107.0.1418.42","WebKit","Edge","107.0.1418.42","Windows","10.0","1996","s","","car.jpg","3","Filler","true",""
"","","","","","fixation","79093","html-keyboard-response","159","278764","0.0-6.0-0.31","73","3","2022-11-17 12:25:09","fd252370c17a9971d68c1d4354a03c2e","","Mozilla/5.0 (Windows NT 10.0; Win64; x64) AppleWebKit/537.36 (KHTML, like Gecko) Chrome/107.0.0.0 Safari/537.36 Edg/107.0.1418.42","WebKit","Edge","107.0.1418.42","Windows","10.0","null","null","","<p style=""font-size: 48px;"">+</p>","3","Filler","",""
"","","","","","sentence","79093","html-keyboard-response","160","280470","0.0-6.0-1.31","73","3","2022-11-17 12:25:09","fd252370c17a9971d68c1d4354a03c2e","","Mozilla/5.0 (Windows NT 10.0; Win64; x64) AppleWebKit/537.36 (KHTML, like Gecko) Chrome/107.0.0.0 Safari/537.36 Edg/107.0.1418.42","WebKit","Edge","107.0.1418.42","Windows","10.0","1690"," ","","A thermometer was placed on the box","3","Filler","",""
"","","","","","fixation","79093","html-keyboard-response","161","280997","0.0-6.0-2.31","73","3","2022-11-17 12:25:09","fd252370c17a9971d68c1d4354a03c2e","","Mozilla/5.0 (Windows NT 10.0; Win64; x64) AppleWebKit/537.36 (KHTML, like Gecko) Chrome/107.0.0.0 Safari/537.36 Edg/107.0.1418.42","WebKit","Edge","107.0.1418.42","Windows","10.0","null","null","","<p style=""font-size: 48px;"">+</p>","3","Filler","",""
"","","","","","picture","79093","image-keyboard-response","162","282437","0.0-6.0-3.31","73","3","2022-11-17 12:25:09","fd252370c17a9971d68c1d4354a03c2e","","Mozilla/5.0 (Windows NT 10.0; Win64; x64) AppleWebKit/537.36 (KHTML, like Gecko) Chrome/107.0.0.0 Safari/537.36 Edg/107.0.1418.42","WebKit","Edge","107.0.1418.42","Windows","10.0","1417","n","","button.jpg","3","Filler","true",""
"","","","","","fixation","79093","html-keyboard-response","163","283461","0.0-6.0-0.32","73","3","2022-11-17 12:25:09","fd252370c17a9971d68c1d4354a03c2e","","Mozilla/5.0 (Windows NT 10.0; Win64; x64) AppleWebKit/537.36 (KHTML, like Gecko) Chrome/107.0.0.0 Safari/537.36 Edg/107.0.1418.42","WebKit","Edge","107.0.1418.42","Windows","10.0","null","null","","<p style=""font-size: 48px;"">+</p>","3","Filler","",""
"","","","","","sentence","79093","html-keyboard-response","164","288078","0.0-6.0-1.32","73","3","2022-11-17 12:25:09","fd252370c17a9971d68c1d4354a03c2e","","Mozilla/5.0 (Windows NT 10.0; Win64; x64) AppleWebKit/537.36 (KHTML, like Gecko) Chrome/107.0.0.0 Safari/537.36 Edg/107.0.1418.42","WebKit","Edge","107.0.1418.42","Windows","10.0","4609"," ","","A photographer is taking a photo of a lion","3","Filler","",""
"","","","","","fixation","79093","html-keyboard-response","165","288609","0.0-6.0-2.32","73","3","2022-11-17 12:25:09","fd252370c17a9971d68c1d4354a03c2e","","Mozilla/5.0 (Windows NT 10.0; Win64; x64) AppleWebKit/537.36 (KHTML, like Gecko) Chrome/107.0.0.0 Safari/537.36 Edg/107.0.1418.42","WebKit","Edge","107.0.1418.42","Windows","10.0","null","null","","<p style=""font-size: 48px;"">+</p>","3","Filler","",""
"","","","","","picture","79093","image-keyboard-response","166","289979","0.0-6.0-3.32","73","3","2022-11-17 12:25:09","fd252370c17a9971d68c1d4354a03c2e","","Mozilla/5.0 (Windows NT 10.0; Win64; x64) AppleWebKit/537.36 (KHTML, like Gecko) Chrome/107.0.0.0 Safari/537.36 Edg/107.0.1418.42","WebKit","Edge","107.0.1418.42","Windows","10.0","1350","s","","lion.jpg","3","Filler","true",""
"","","","","","fixation","79093","html-keyboard-response","167","291004","0.0-6.0-0.33","73","3","2022-11-17 12:25:09","fd252370c17a9971d68c1d4354a03c2e","","Mozilla/5.0 (Windows NT 10.0; Win64; x64) AppleWebKit/537.36 (KHTML, like Gecko) Chrome/107.0.0.0 Safari/537.36 Edg/107.0.1418.42","WebKit","Edge","107.0.1418.42","Windows","10.0","null","null","","<p style=""font-size: 48px;"">+</p>","3","Light_Matched","",""
"","","","","","sentence","79093","html-keyboard-response","168","292829","0.0-6.0-1.33","73","3","2022-11-17 12:25:09","fd252370c17a9971d68c1d4354a03c2e","","Mozilla/5.0 (Windows NT 10.0; Win64; x64) AppleWebKit/537.36 (KHTML, like Gecko) Chrome/107.0.0.0 Safari/537.36 Edg/107.0.1418.42","WebKit","Edge","107.0.1418.42","Windows","10.0","1805"," ","","A balloon dropped and touched a wineglass","3","Light_Matched","",""
"","","","","","fixation","79093","html-keyboard-response","169","293349","0.0-6.0-2.33","73","3","2022-11-17 12:25:09","fd252370c17a9971d68c1d4354a03c2e","","Mozilla/5.0 (Windows NT 10.0; Win64; x64) AppleWebKit/537.36 (KHTML, like Gecko) Chrome/107.0.0.0 Safari/537.36 Edg/107.0.1418.42","WebKit","Edge","107.0.1418.42","Windows","10.0","null","null","","<p style=""font-size: 48px;"">+</p>","3","Light_Matched","",""
"","","","","","picture","79093","image-keyboard-response","170","294363","0.0-6.0-3.33","73","3","2022-11-17 12:25:09","fd252370c17a9971d68c1d4354a03c2e","","Mozilla/5.0 (Windows NT 10.0; Win64; x64) AppleWebKit/537.36 (KHTML, like Gecko) Chrome/107.0.0.0 Safari/537.36 Edg/107.0.1418.42","WebKit","Edge","107.0.1418.42","Windows","10.0","997","s","","wineglassS.jpg","3","Light_Matched","true",""
"","","","","","fixation","79093","html-keyboard-response","171","295389","0.0-6.0-0.34","73","3","2022-11-17 12:25:09","fd252370c17a9971d68c1d4354a03c2e","","Mozilla/5.0 (Windows NT 10.0; Win64; x64) AppleWebKit/537.36 (KHTML, like Gecko) Chrome/107.0.0.0 Safari/537.36 Edg/107.0.1418.42","WebKit","Edge","107.0.1418.42","Windows","10.0","null","null","","<p style=""font-size: 48px;"">+</p>","3","Filler","",""
"","","","","","sentence","79093","html-keyboard-response","172","297033","0.0-6.0-1.34","73","3","2022-11-17 12:25:09","fd252370c17a9971d68c1d4354a03c2e","","Mozilla/5.0 (Windows NT 10.0; Win64; x64) AppleWebKit/537.36 (KHTML, like Gecko) Chrome/107.0.0.0 Safari/537.36 Edg/107.0.1418.42","WebKit","Edge","107.0.1418.42","Windows","10.0","1629"," ","","A musician is playing a guitar","3","Filler","",""
"","","","","","fixation","79093","html-keyboard-response","173","297540","0.0-6.0-2.34","73","3","2022-11-17 12:25:09","fd252370c17a9971d68c1d4354a03c2e","","Mozilla/5.0 (Windows NT 10.0; Win64; x64) AppleWebKit/537.36 (KHTML, like Gecko) Chrome/107.0.0.0 Safari/537.36 Edg/107.0.1418.42","WebKit","Edge","107.0.1418.42","Windows","10.0","null","null","","<p style=""font-size: 48px;"">+</p>","3","Filler","",""
"","","","","","picture","79093","image-keyboard-response","174","298484","0.0-6.0-3.34","73","3","2022-11-17 12:25:09","fd252370c17a9971d68c1d4354a03c2e","","Mozilla/5.0 (Windows NT 10.0; Win64; x64) AppleWebKit/537.36 (KHTML, like Gecko) Chrome/107.0.0.0 Safari/537.36 Edg/107.0.1418.42","WebKit","Edge","107.0.1418.42","Windows","10.0","937","s","","guitar.jpg","3","Filler","true",""
"","","","","","fixation","79093","html-keyboard-response","175","299517","0.0-6.0-0.35","73","3","2022-11-17 12:25:09","fd252370c17a9971d68c1d4354a03c2e","","Mozilla/5.0 (Windows NT 10.0; Win64; x64) AppleWebKit/537.36 (KHTML, like Gecko) Chrome/107.0.0.0 Safari/537.36 Edg/107.0.1418.42","WebKit","Edge","107.0.1418.42","Windows","10.0","null","null","","<p style=""font-size: 48px;"">+</p>","3","Filler","",""
"","","","","","sentence","79093","html-keyboard-response","176","300693","0.0-6.0-1.35","73","3","2022-11-17 12:25:09","fd252370c17a9971d68c1d4354a03c2e","","Mozilla/5.0 (Windows NT 10.0; Win64; x64) AppleWebKit/537.36 (KHTML, like Gecko) Chrome/107.0.0.0 Safari/537.36 Edg/107.0.1418.42","WebKit","Edge","107.0.1418.42","Windows","10.0","1171"," ","","A hairdresser is taking scissors","3","Filler","",""
"","","","","","fixation","79093","html-keyboard-response","177","301221","0.0-6.0-2.35","73","3","2022-11-17 12:25:09","fd252370c17a9971d68c1d4354a03c2e","","Mozilla/5.0 (Windows NT 10.0; Win64; x64) AppleWebKit/537.36 (KHTML, like Gecko) Chrome/107.0.0.0 Safari/537.36 Edg/107.0.1418.42","WebKit","Edge","107.0.1418.42","Windows","10.0","null","null","","<p style=""font-size: 48px;"">+</p>","3","Filler","",""
"","","","","","picture","79093","image-keyboard-response","178","302247","0.0-6.0-3.35","73","3","2022-11-17 12:25:09","fd252370c17a9971d68c1d4354a03c2e","","Mozilla/5.0 (Windows NT 10.0; Win64; x64) AppleWebKit/537.36 (KHTML, like Gecko) Chrome/107.0.0.0 Safari/537.36 Edg/107.0.1418.42","WebKit","Edge","107.0.1418.42","Windows","10.0","1005","n","","sock.jpg","3","Filler","true",""
"","","","","","fixation","79093","html-keyboard-response","179","303261","0.0-6.0-0.36","73","3","2022-11-17 12:25:09","fd252370c17a9971d68c1d4354a03c2e","","Mozilla/5.0 (Windows NT 10.0; Win64; x64) AppleWebKit/537.36 (KHTML, like Gecko) Chrome/107.0.0.0 Safari/537.36 Edg/107.0.1418.42","WebKit","Edge","107.0.1418.42","Windows","10.0","null","null","","<p style=""font-size: 48px;"">+</p>","3","Light_Matched","",""
"","","","","","sentence","79093","html-keyboard-response","180","304541","0.0-6.0-1.36","73","3","2022-11-17 12:25:09","fd252370c17a9971d68c1d4354a03c2e","","Mozilla/5.0 (Windows NT 10.0; Win64; x64) AppleWebKit/537.36 (KHTML, like Gecko) Chrome/107.0.0.0 Safari/537.36 Edg/107.0.1418.42","WebKit","Edge","107.0.1418.42","Windows","10.0","1272"," ","","A balloon dropped and touched a porcelain figure","3","Light_Matched","",""
"","","","","","fixation","79093","html-keyboard-response","181","305068","0.0-6.0-2.36","73","3","2022-11-17 12:25:09","fd252370c17a9971d68c1d4354a03c2e","","Mozilla/5.0 (Windows NT 10.0; Win64; x64) AppleWebKit/537.36 (KHTML, like Gecko) Chrome/107.0.0.0 Safari/537.36 Edg/107.0.1418.42","WebKit","Edge","107.0.1418.42","Windows","10.0","null","null","","<p style=""font-size: 48px;"">+</p>","3","Light_Matched","",""
"","","","","","picture","79093","image-keyboard-response","182","306481","0.0-6.0-3.36","73","3","2022-11-17 12:25:09","fd252370c17a9971d68c1d4354a03c2e","","Mozilla/5.0 (Windows NT 10.0; Win64; x64) AppleWebKit/537.36 (KHTML, like Gecko) Chrome/107.0.0.0 Safari/537.36 Edg/107.0.1418.42","WebKit","Edge","107.0.1418.42","Windows","10.0","1390","s","","figureS.jpg","3","Light_Matched","true",""
"","","","","","fixation","79093","html-keyboard-response","183","307500","0.0-6.0-0.37","73","3","2022-11-17 12:25:09","fd252370c17a9971d68c1d4354a03c2e","","Mozilla/5.0 (Windows NT 10.0; Win64; x64) AppleWebKit/537.36 (KHTML, like Gecko) Chrome/107.0.0.0 Safari/537.36 Edg/107.0.1418.42","WebKit","Edge","107.0.1418.42","Windows","10.0","null","null","","<p style=""font-size: 48px;"">+</p>","3","Filler","",""
"","","","","","sentence","79093","html-keyboard-response","184","308475","0.0-6.0-1.37","73","3","2022-11-17 12:25:09","fd252370c17a9971d68c1d4354a03c2e","","Mozilla/5.0 (Windows NT 10.0; Win64; x64) AppleWebKit/537.36 (KHTML, like Gecko) Chrome/107.0.0.0 Safari/537.36 Edg/107.0.1418.42","WebKit","Edge","107.0.1418.42","Windows","10.0","967"," ","","An actress is taking a microphone","3","Filler","",""
"","","","","","fixation","79093","html-keyboard-response","185","309017","0.0-6.0-2.37","73","3","2022-11-17 12:25:09","fd252370c17a9971d68c1d4354a03c2e","","Mozilla/5.0 (Windows NT 10.0; Win64; x64) AppleWebKit/537.36 (KHTML, like Gecko) Chrome/107.0.0.0 Safari/537.36 Edg/107.0.1418.42","WebKit","Edge","107.0.1418.42","Windows","10.0","null","null","","<p style=""font-size: 48px;"">+</p>","3","Filler","",""
"","","","","","picture","79093","image-keyboard-response","186","310197","0.0-6.0-3.37","73","3","2022-11-17 12:25:09","fd252370c17a9971d68c1d4354a03c2e","","Mozilla/5.0 (Windows NT 10.0; Win64; x64) AppleWebKit/537.36 (KHTML, like Gecko) Chrome/107.0.0.0 Safari/537.36 Edg/107.0.1418.42","WebKit","Edge","107.0.1418.42","Windows","10.0","1155","n","","pants.jpg","3","Filler","true",""
"","","","","","fixation","79093","html-keyboard-response","187","311212","0.0-6.0-0.38","73","3","2022-11-17 12:25:09","fd252370c17a9971d68c1d4354a03c2e","","Mozilla/5.0 (Windows NT 10.0; Win64; x64) AppleWebKit/537.36 (KHTML, like Gecko) Chrome/107.0.0.0 Safari/537.36 Edg/107.0.1418.42","WebKit","Edge","107.0.1418.42","Windows","10.0","null","null","","<p style=""font-size: 48px;"">+</p>","3","Filler","",""
"","","","","","sentence","79093","html-keyboard-response","188","312062","0.0-6.0-1.38","73","3","2022-11-17 12:25:09","fd252370c17a9971d68c1d4354a03c2e","","Mozilla/5.0 (Windows NT 10.0; Win64; x64) AppleWebKit/537.36 (KHTML, like Gecko) Chrome/107.0.0.0 Safari/537.36 Edg/107.0.1418.42","WebKit","Edge","107.0.1418.42","Windows","10.0","843"," ","","An old man is hammering a nail","3","Filler","",""
"","","","","","fixation","79093","html-keyboard-response","189","312572","0.0-6.0-2.38","73","3","2022-11-17 12:25:09","fd252370c17a9971d68c1d4354a03c2e","","Mozilla/5.0 (Windows NT 10.0; Win64; x64) AppleWebKit/537.36 (KHTML, like Gecko) Chrome/107.0.0.0 Safari/537.36 Edg/107.0.1418.42","WebKit","Edge","107.0.1418.42","Windows","10.0","null","null","","<p style=""font-size: 48px;"">+</p>","3","Filler","",""
"","","","","","picture","79093","image-keyboard-response","190","313734","0.0-6.0-3.38","73","3","2022-11-17 12:25:09","fd252370c17a9971d68c1d4354a03c2e","","Mozilla/5.0 (Windows NT 10.0; Win64; x64) AppleWebKit/537.36 (KHTML, like Gecko) Chrome/107.0.0.0 Safari/537.36 Edg/107.0.1418.42","WebKit","Edge","107.0.1418.42","Windows","10.0","1156","s","","nail.jpg","3","Filler","true",""
"","","","","","fixation","79093","html-keyboard-response","191","314748","0.0-6.0-0.39","73","3","2022-11-17 12:25:09","fd252370c17a9971d68c1d4354a03c2e","","Mozilla/5.0 (Windows NT 10.0; Win64; x64) AppleWebKit/537.36 (KHTML, like Gecko) Chrome/107.0.0.0 Safari/537.36 Edg/107.0.1418.42","WebKit","Edge","107.0.1418.42","Windows","10.0","null","null","","<p style=""font-size: 48px;"">+</p>","3","Filler","",""
"","","","","","sentence","79093","html-keyboard-response","192","315655","0.0-6.0-1.39","73","3","2022-11-17 12:25:09","fd252370c17a9971d68c1d4354a03c2e","","Mozilla/5.0 (Windows NT 10.0; Win64; x64) AppleWebKit/537.36 (KHTML, like Gecko) Chrome/107.0.0.0 Safari/537.36 Edg/107.0.1418.42","WebKit","Edge","107.0.1418.42","Windows","10.0","888"," ","","An elephant is eating a watermelon","3","Filler","",""
"","","","","","fixation","79093","html-keyboard-response","193","316181","0.0-6.0-2.39","73","3","2022-11-17 12:25:09","fd252370c17a9971d68c1d4354a03c2e","","Mozilla/5.0 (Windows NT 10.0; Win64; x64) AppleWebKit/537.36 (KHTML, like Gecko) Chrome/107.0.0.0 Safari/537.36 Edg/107.0.1418.42","WebKit","Edge","107.0.1418.42","Windows","10.0","null","null","","<p style=""font-size: 48px;"">+</p>","3","Filler","",""
"","","","","","picture","79093","image-keyboard-response","194","317139","0.0-6.0-3.39","73","3","2022-11-17 12:25:09","fd252370c17a9971d68c1d4354a03c2e","","Mozilla/5.0 (Windows NT 10.0; Win64; x64) AppleWebKit/537.36 (KHTML, like Gecko) Chrome/107.0.0.0 Safari/537.36 Edg/107.0.1418.42","WebKit","Edge","107.0.1418.42","Windows","10.0","950","s","","watermelon.jpg","3","Filler","true",""
"","","","","","fixation","79093","html-keyboard-response","195","318165","0.0-6.0-0.40","73","3","2022-11-17 12:25:09","fd252370c17a9971d68c1d4354a03c2e","","Mozilla/5.0 (Windows NT 10.0; Win64; x64) AppleWebKit/537.36 (KHTML, like Gecko) Chrome/107.0.0.0 Safari/537.36 Edg/107.0.1418.42","WebKit","Edge","107.0.1418.42","Windows","10.0","null","null","","<p style=""font-size: 48px;"">+</p>","3","Filler","",""
"","","","","","sentence","79093","html-keyboard-response","196","319193","0.0-6.0-1.40","73","3","2022-11-17 12:25:09","fd252370c17a9971d68c1d4354a03c2e","","Mozilla/5.0 (Windows NT 10.0; Win64; x64) AppleWebKit/537.36 (KHTML, like Gecko) Chrome/107.0.0.0 Safari/537.36 Edg/107.0.1418.42","WebKit","Edge","107.0.1418.42","Windows","10.0","1007"," ","","A woman is paying with a debit card","3","Filler","",""
"","","","","","fixation","79093","html-keyboard-response","197","319717","0.0-6.0-2.40","73","3","2022-11-17 12:25:09","fd252370c17a9971d68c1d4354a03c2e","","Mozilla/5.0 (Windows NT 10.0; Win64; x64) AppleWebKit/537.36 (KHTML, like Gecko) Chrome/107.0.0.0 Safari/537.36 Edg/107.0.1418.42","WebKit","Edge","107.0.1418.42","Windows","10.0","null","null","","<p style=""font-size: 48px;"">+</p>","3","Filler","",""
"","","","","","picture","79093","image-keyboard-response","198","320827","0.0-6.0-3.40","73","3","2022-11-17 12:25:09","fd252370c17a9971d68c1d4354a03c2e","","Mozilla/5.0 (Windows NT 10.0; Win64; x64) AppleWebKit/537.36 (KHTML, like Gecko) Chrome/107.0.0.0 Safari/537.36 Edg/107.0.1418.42","WebKit","Edge","107.0.1418.42","Windows","10.0","1094","n","","papercup.jpg","3","Filler","true",""
"","","","","","fixation","79093","html-keyboard-response","199","321853","0.0-6.0-0.41","73","3","2022-11-17 12:25:09","fd252370c17a9971d68c1d4354a03c2e","","Mozilla/5.0 (Windows NT 10.0; Win64; x64) AppleWebKit/537.36 (KHTML, like Gecko) Chrome/107.0.0.0 Safari/537.36 Edg/107.0.1418.42","WebKit","Edge","107.0.1418.42","Windows","10.0","null","null","","<p style=""font-size: 48px;"">+</p>","3","Filler","",""
"","","","","","sentence","79093","html-keyboard-response","200","322844","0.0-6.0-1.41","73","3","2022-11-17 12:25:09","fd252370c17a9971d68c1d4354a03c2e","","Mozilla/5.0 (Windows NT 10.0; Win64; x64) AppleWebKit/537.36 (KHTML, like Gecko) Chrome/107.0.0.0 Safari/537.36 Edg/107.0.1418.42","WebKit","Edge","107.0.1418.42","Windows","10.0","976"," ","","A cat is drinking water from a bowl","3","Filler","",""
"","","","","","fixation","79093","html-keyboard-response","201","323364","0.0-6.0-2.41","73","3","2022-11-17 12:25:09","fd252370c17a9971d68c1d4354a03c2e","","Mozilla/5.0 (Windows NT 10.0; Win64; x64) AppleWebKit/537.36 (KHTML, like Gecko) Chrome/107.0.0.0 Safari/537.36 Edg/107.0.1418.42","WebKit","Edge","107.0.1418.42","Windows","10.0","null","null","","<p style=""font-size: 48px;"">+</p>","3","Filler","",""
"","","","","","picture","79093","image-keyboard-response","202","324353","0.0-6.0-3.41","73","3","2022-11-17 12:25:09","fd252370c17a9971d68c1d4354a03c2e","","Mozilla/5.0 (Windows NT 10.0; Win64; x64) AppleWebKit/537.36 (KHTML, like Gecko) Chrome/107.0.0.0 Safari/537.36 Edg/107.0.1418.42","WebKit","Edge","107.0.1418.42","Windows","10.0","980","s","","bowl.jpg","3","Filler","true",""
"","","","","","fixation","79093","html-keyboard-response","203","325366","0.0-6.0-0.42","73","3","2022-11-17 12:25:09","fd252370c17a9971d68c1d4354a03c2e","","Mozilla/5.0 (Windows NT 10.0; Win64; x64) AppleWebKit/537.36 (KHTML, like Gecko) Chrome/107.0.0.0 Safari/537.36 Edg/107.0.1418.42","WebKit","Edge","107.0.1418.42","Windows","10.0","null","null","","<p style=""font-size: 48px;"">+</p>","3","Heavy_Matched","",""
"","","","","","sentence","79093","html-keyboard-response","204","327777","0.0-6.0-1.42","73","3","2022-11-17 12:25:09","fd252370c17a9971d68c1d4354a03c2e","","Mozilla/5.0 (Windows NT 10.0; Win64; x64) AppleWebKit/537.36 (KHTML, like Gecko) Chrome/107.0.0.0 Safari/537.36 Edg/107.0.1418.42","WebKit","Edge","107.0.1418.42","Windows","10.0","2384"," ","","A bowling ball dropped and smashed a mirror","3","Heavy_Matched","",""
"","","","","","fixation","79093","html-keyboard-response","205","328316","0.0-6.0-2.42","73","3","2022-11-17 12:25:09","fd252370c17a9971d68c1d4354a03c2e","","Mozilla/5.0 (Windows NT 10.0; Win64; x64) AppleWebKit/537.36 (KHTML, like Gecko) Chrome/107.0.0.0 Safari/537.36 Edg/107.0.1418.42","WebKit","Edge","107.0.1418.42","Windows","10.0","null","null","","<p style=""font-size: 48px;"">+</p>","3","Heavy_Matched","",""
"","","","","","picture","79093","image-keyboard-response","206","331275","0.0-6.0-3.42","73","3","2022-11-17 12:25:09","fd252370c17a9971d68c1d4354a03c2e","","Mozilla/5.0 (Windows NT 10.0; Win64; x64) AppleWebKit/537.36 (KHTML, like Gecko) Chrome/107.0.0.0 Safari/537.36 Edg/107.0.1418.42","WebKit","Edge","107.0.1418.42","Windows","10.0","2939","s","","mirrorS.jpg","3","Heavy_Matched","true",""
"","","","","","fixation","79093","html-keyboard-response","207","332284","0.0-6.0-0.43","73","3","2022-11-17 12:25:09","fd252370c17a9971d68c1d4354a03c2e","","Mozilla/5.0 (Windows NT 10.0; Win64; x64) AppleWebKit/537.36 (KHTML, like Gecko) Chrome/107.0.0.0 Safari/537.36 Edg/107.0.1418.42","WebKit","Edge","107.0.1418.42","Windows","10.0","null","null","","<p style=""font-size: 48px;"">+</p>","3","Filler","",""
"","","","","","sentence","79093","html-keyboard-response","208","333918","0.0-6.0-1.43","73","3","2022-11-17 12:25:09","fd252370c17a9971d68c1d4354a03c2e","","Mozilla/5.0 (Windows NT 10.0; Win64; x64) AppleWebKit/537.36 (KHTML, like Gecko) Chrome/107.0.0.0 Safari/537.36 Edg/107.0.1418.42","WebKit","Edge","107.0.1418.42","Windows","10.0","1610"," ","","A needle was placed on the mouse pad","3","Filler","",""
"","","","","","fixation","79093","html-keyboard-response","209","334436","0.0-6.0-2.43","73","3","2022-11-17 12:25:09","fd252370c17a9971d68c1d4354a03c2e","","Mozilla/5.0 (Windows NT 10.0; Win64; x64) AppleWebKit/537.36 (KHTML, like Gecko) Chrome/107.0.0.0 Safari/537.36 Edg/107.0.1418.42","WebKit","Edge","107.0.1418.42","Windows","10.0","null","null","","<p style=""font-size: 48px;"">+</p>","3","Filler","",""
"","","","","","picture","79093","image-keyboard-response","210","335838","0.0-6.0-3.43","73","3","2022-11-17 12:25:09","fd252370c17a9971d68c1d4354a03c2e","","Mozilla/5.0 (Windows NT 10.0; Win64; x64) AppleWebKit/537.36 (KHTML, like Gecko) Chrome/107.0.0.0 Safari/537.36 Edg/107.0.1418.42","WebKit","Edge","107.0.1418.42","Windows","10.0","1378","n","","chocolate.jpg","3","Filler","true",""
"","","","","","fixation","79093","html-keyboard-response","211","336869","0.0-6.0-0.44","73","3","2022-11-17 12:25:09","fd252370c17a9971d68c1d4354a03c2e","","Mozilla/5.0 (Windows NT 10.0; Win64; x64) AppleWebKit/537.36 (KHTML, like Gecko) Chrome/107.0.0.0 Safari/537.36 Edg/107.0.1418.42","WebKit","Edge","107.0.1418.42","Windows","10.0","null","null","","<p style=""font-size: 48px;"">+</p>","3","Filler","",""
"","","","","","sentence","79093","html-keyboard-response","212","338226","0.0-6.0-1.44","73","3","2022-11-17 12:25:09","fd252370c17a9971d68c1d4354a03c2e","","Mozilla/5.0 (Windows NT 10.0; Win64; x64) AppleWebKit/537.36 (KHTML, like Gecko) Chrome/107.0.0.0 Safari/537.36 Edg/107.0.1418.42","WebKit","Edge","107.0.1418.42","Windows","10.0","1334"," ","","A towel was placed on the TV","3","Filler","",""
"","","","","","fixation","79093","html-keyboard-response","213","338747","0.0-6.0-2.44","73","3","2022-11-17 12:25:09","fd252370c17a9971d68c1d4354a03c2e","","Mozilla/5.0 (Windows NT 10.0; Win64; x64) AppleWebKit/537.36 (KHTML, like Gecko) Chrome/107.0.0.0 Safari/537.36 Edg/107.0.1418.42","WebKit","Edge","107.0.1418.42","Windows","10.0","null","null","","<p style=""font-size: 48px;"">+</p>","3","Filler","",""
"","","","","","picture","79093","image-keyboard-response","214","340307","0.0-6.0-3.44","73","3","2022-11-17 12:25:09","fd252370c17a9971d68c1d4354a03c2e","","Mozilla/5.0 (Windows NT 10.0; Win64; x64) AppleWebKit/537.36 (KHTML, like Gecko) Chrome/107.0.0.0 Safari/537.36 Edg/107.0.1418.42","WebKit","Edge","107.0.1418.42","Windows","10.0","1542","n","","pencil.jpg","3","Filler","true",""
"","","","","","fixation","79093","html-keyboard-response","215","341325","0.0-6.0-0.45","73","3","2022-11-17 12:25:09","fd252370c17a9971d68c1d4354a03c2e","","Mozilla/5.0 (Windows NT 10.0; Win64; x64) AppleWebKit/537.36 (KHTML, like Gecko) Chrome/107.0.0.0 Safari/537.36 Edg/107.0.1418.42","WebKit","Edge","107.0.1418.42","Windows","10.0","null","null","","<p style=""font-size: 48px;"">+</p>","3","Heavy_Matched","",""
"","","","","","sentence","79093","html-keyboard-response","216","343569","0.0-6.0-1.45","73","3","2022-11-17 12:25:09","fd252370c17a9971d68c1d4354a03c2e","","Mozilla/5.0 (Windows NT 10.0; Win64; x64) AppleWebKit/537.36 (KHTML, like Gecko) Chrome/107.0.0.0 Safari/537.36 Edg/107.0.1418.42","WebKit","Edge","107.0.1418.42","Windows","10.0","2232"," ","","A bowling ball dropped and smashed a chocolate muffin","3","Heavy_Matched","",""
"","","","","","fixation","79093","html-keyboard-response","217","344077","0.0-6.0-2.45","73","3","2022-11-17 12:25:09","fd252370c17a9971d68c1d4354a03c2e","","Mozilla/5.0 (Windows NT 10.0; Win64; x64) AppleWebKit/537.36 (KHTML, like Gecko) Chrome/107.0.0.0 Safari/537.36 Edg/107.0.1418.42","WebKit","Edge","107.0.1418.42","Windows","10.0","null","null","","<p style=""font-size: 48px;"">+</p>","3","Heavy_Matched","",""
"","","","","","picture","79093","image-keyboard-response","218","345018","0.0-6.0-3.45","73","3","2022-11-17 12:25:09","fd252370c17a9971d68c1d4354a03c2e","","Mozilla/5.0 (Windows NT 10.0; Win64; x64) AppleWebKit/537.36 (KHTML, like Gecko) Chrome/107.0.0.0 Safari/537.36 Edg/107.0.1418.42","WebKit","Edge","107.0.1418.42","Windows","10.0","932","s","","muffinS.jpg","3","Heavy_Matched","true",""
"","","","","","fixation","79093","html-keyboard-response","219","346044","0.0-6.0-0.46","73","3","2022-11-17 12:25:09","fd252370c17a9971d68c1d4354a03c2e","","Mozilla/5.0 (Windows NT 10.0; Win64; x64) AppleWebKit/537.36 (KHTML, like Gecko) Chrome/107.0.0.0 Safari/537.36 Edg/107.0.1418.42","WebKit","Edge","107.0.1418.42","Windows","10.0","null","null","","<p style=""font-size: 48px;"">+</p>","3","Filler","",""
"","","","","","sentence","79093","html-keyboard-response","220","347881","0.0-6.0-1.46","73","3","2022-11-17 12:25:09","fd252370c17a9971d68c1d4354a03c2e","","Mozilla/5.0 (Windows NT 10.0; Win64; x64) AppleWebKit/537.36 (KHTML, like Gecko) Chrome/107.0.0.0 Safari/537.36 Edg/107.0.1418.42","WebKit","Edge","107.0.1418.42","Windows","10.0","1828"," ","","A boy is wearing a hat","3","Filler","",""
"","","","","","fixation","79093","html-keyboard-response","221","348405","0.0-6.0-2.46","73","3","2022-11-17 12:25:09","fd252370c17a9971d68c1d4354a03c2e","","Mozilla/5.0 (Windows NT 10.0; Win64; x64) AppleWebKit/537.36 (KHTML, like Gecko) Chrome/107.0.0.0 Safari/537.36 Edg/107.0.1418.42","WebKit","Edge","107.0.1418.42","Windows","10.0","null","null","","<p style=""font-size: 48px;"">+</p>","3","Filler","",""
"","","","","","picture","79093","image-keyboard-response","222","349767","0.0-6.0-3.46","73","3","2022-11-17 12:25:09","fd252370c17a9971d68c1d4354a03c2e","","Mozilla/5.0 (Windows NT 10.0; Win64; x64) AppleWebKit/537.36 (KHTML, like Gecko) Chrome/107.0.0.0 Safari/537.36 Edg/107.0.1418.42","WebKit","Edge","107.0.1418.42","Windows","10.0","1338","s","","hat.jpg","3","Filler","true",""
"","","","","","fixation","79093","html-keyboard-response","223","350796","0.0-6.0-0.47","73","3","2022-11-17 12:25:09","fd252370c17a9971d68c1d4354a03c2e","","Mozilla/5.0 (Windows NT 10.0; Win64; x64) AppleWebKit/537.36 (KHTML, like Gecko) Chrome/107.0.0.0 Safari/537.36 Edg/107.0.1418.42","WebKit","Edge","107.0.1418.42","Windows","10.0","null","null","","<p style=""font-size: 48px;"">+</p>","3","Filler","",""
"","","","","","sentence","79093","html-keyboard-response","224","353337","0.0-6.0-1.47","73","3","2022-11-17 12:25:09","fd252370c17a9971d68c1d4354a03c2e","","Mozilla/5.0 (Windows NT 10.0; Win64; x64) AppleWebKit/537.36 (KHTML, like Gecko) Chrome/107.0.0.0 Safari/537.36 Edg/107.0.1418.42","WebKit","Edge","107.0.1418.42","Windows","10.0","2532"," ","","An owl is sitting on the branch","3","Filler","",""
"","","","","","fixation","79093","html-keyboard-response","225","353860","0.0-6.0-2.47","73","3","2022-11-17 12:25:09","fd252370c17a9971d68c1d4354a03c2e","","Mozilla/5.0 (Windows NT 10.0; Win64; x64) AppleWebKit/537.36 (KHTML, like Gecko) Chrome/107.0.0.0 Safari/537.36 Edg/107.0.1418.42","WebKit","Edge","107.0.1418.42","Windows","10.0","null","null","","<p style=""font-size: 48px;"">+</p>","3","Filler","",""
"","","","","","picture","79093","image-keyboard-response","226","354979","0.0-6.0-3.47","73","3","2022-11-17 12:25:09","fd252370c17a9971d68c1d4354a03c2e","","Mozilla/5.0 (Windows NT 10.0; Win64; x64) AppleWebKit/537.36 (KHTML, like Gecko) Chrome/107.0.0.0 Safari/537.36 Edg/107.0.1418.42","WebKit","Edge","107.0.1418.42","Windows","10.0","1097","n","","rubberduck.jpg","3","Filler","true",""
"","","","","","fixation","79093","html-keyboard-response","227","356004","0.0-6.0-0.48","73","3","2022-11-17 12:25:09","fd252370c17a9971d68c1d4354a03c2e","","Mozilla/5.0 (Windows NT 10.0; Win64; x64) AppleWebKit/537.36 (KHTML, like Gecko) Chrome/107.0.0.0 Safari/537.36 Edg/107.0.1418.42","WebKit","Edge","107.0.1418.42","Windows","10.0","null","null","","<p style=""font-size: 48px;"">+</p>","3","Filler","",""
"","","","","","sentence","79093","html-keyboard-response","228","370456","0.0-6.0-1.48","73","3","2022-11-17 12:25:09","fd252370c17a9971d68c1d4354a03c2e","","Mozilla/5.0 (Windows NT 10.0; Win64; x64) AppleWebKit/537.36 (KHTML, like Gecko) Chrome/107.0.0.0 Safari/537.36 Edg/107.0.1418.42","WebKit","Edge","107.0.1418.42","Windows","10.0","14426"," ","","A man is boiling potatoes.","3","Filler","",""
"","","","","","fixation","79093","html-keyboard-response","229","370975","0.0-6.0-2.48","73","3","2022-11-17 12:25:09","fd252370c17a9971d68c1d4354a03c2e","","Mozilla/5.0 (Windows NT 10.0; Win64; x64) AppleWebKit/537.36 (KHTML, like Gecko) Chrome/107.0.0.0 Safari/537.36 Edg/107.0.1418.42","WebKit","Edge","107.0.1418.42","Windows","10.0","null","null","","<p style=""font-size: 48px;"">+</p>","3","Filler","",""
"","","","","","picture","79093","image-keyboard-response","230","372180","0.0-6.0-3.48","73","3","2022-11-17 12:25:09","fd252370c17a9971d68c1d4354a03c2e","","Mozilla/5.0 (Windows NT 10.0; Win64; x64) AppleWebKit/537.36 (KHTML, like Gecko) Chrome/107.0.0.0 Safari/537.36 Edg/107.0.1418.42","WebKit","Edge","107.0.1418.42","Windows","10.0","1186","n","","cup.jpg","3","Filler","true",""
"","","","","","fixation","79093","html-keyboard-response","231","373205","0.0-6.0-0.49","73","3","2022-11-17 12:25:09","fd252370c17a9971d68c1d4354a03c2e","","Mozilla/5.0 (Windows NT 10.0; Win64; x64) AppleWebKit/537.36 (KHTML, like Gecko) Chrome/107.0.0.0 Safari/537.36 Edg/107.0.1418.42","WebKit","Edge","107.0.1418.42","Windows","10.0","null","null","","<p style=""font-size: 48px;"">+</p>","3","Filler","",""
"","","","","","sentence","79093","html-keyboard-response","232","375123","0.0-6.0-1.49","73","3","2022-11-17 12:25:09","fd252370c17a9971d68c1d4354a03c2e","","Mozilla/5.0 (Windows NT 10.0; Win64; x64) AppleWebKit/537.36 (KHTML, like Gecko) Chrome/107.0.0.0 Safari/537.36 Edg/107.0.1418.42","WebKit","Edge","107.0.1418.42","Windows","10.0","1891"," ","","A woman is taking money out of a wallet","3","Filler","",""
"","","","","","fixation","79093","html-keyboard-response","233","375652","0.0-6.0-2.49","73","3","2022-11-17 12:25:09","fd252370c17a9971d68c1d4354a03c2e","","Mozilla/5.0 (Windows NT 10.0; Win64; x64) AppleWebKit/537.36 (KHTML, like Gecko) Chrome/107.0.0.0 Safari/537.36 Edg/107.0.1418.42","WebKit","Edge","107.0.1418.42","Windows","10.0","null","null","","<p style=""font-size: 48px;"">+</p>","3","Filler","",""
"","","","","","picture","79093","image-keyboard-response","234","376687","0.0-6.0-3.49","73","3","2022-11-17 12:25:09","fd252370c17a9971d68c1d4354a03c2e","","Mozilla/5.0 (Windows NT 10.0; Win64; x64) AppleWebKit/537.36 (KHTML, like Gecko) Chrome/107.0.0.0 Safari/537.36 Edg/107.0.1418.42","WebKit","Edge","107.0.1418.42","Windows","10.0","1011","n","","coconut.jpg","3","Filler","true",""
"","","","","","fixation","79093","html-keyboard-response","235","377716","0.0-6.0-0.50","73","3","2022-11-17 12:25:09","fd252370c17a9971d68c1d4354a03c2e","","Mozilla/5.0 (Windows NT 10.0; Win64; x64) AppleWebKit/537.36 (KHTML, like Gecko) Chrome/107.0.0.0 Safari/537.36 Edg/107.0.1418.42","WebKit","Edge","107.0.1418.42","Windows","10.0","null","null","","<p style=""font-size: 48px;"">+</p>","3","Filler","",""
"","","","","","sentence","79093","html-keyboard-response","236","378560","0.0-6.0-1.50","73","3","2022-11-17 12:25:09","fd252370c17a9971d68c1d4354a03c2e","","Mozilla/5.0 (Windows NT 10.0; Win64; x64) AppleWebKit/537.36 (KHTML, like Gecko) Chrome/107.0.0.0 Safari/537.36 Edg/107.0.1418.42","WebKit","Edge","107.0.1418.42","Windows","10.0","817"," ","","A police officer is talking on the phone","3","Filler","",""
"","","","","","fixation","79093","html-keyboard-response","237","379069","0.0-6.0-2.50","73","3","2022-11-17 12:25:09","fd252370c17a9971d68c1d4354a03c2e","","Mozilla/5.0 (Windows NT 10.0; Win64; x64) AppleWebKit/537.36 (KHTML, like Gecko) Chrome/107.0.0.0 Safari/537.36 Edg/107.0.1418.42","WebKit","Edge","107.0.1418.42","Windows","10.0","null","null","","<p style=""font-size: 48px;"">+</p>","3","Filler","",""
