"success","timeout","failed_images","failed_audio","failed_video","typeoftrial","subject","trial_type","trial_index","time_elapsed","internal_node_id","run_id","condition","recorded_at","source_code_version","ip","user_agent","device","browser","browser_version","platform","platform_version","rt","response","Experiment","stimulus","list_number","trialcondition","correct","question_order"
"true","false","[]","[]","[]","preload","7754","preload","0","1117","0.0-0.0","60","4","2022-11-17 12:22:35","fd252370c17a9971d68c1d4354a03c2e","","Mozilla/5.0 (X11; CrOS x86_64 15054.98.0) AppleWebKit/537.36 (KHTML, like Gecko) Chrome/106.0.0.0 Safari/537.36","WebKit","Chrome","106.0.0.0","ChromeOS","15054.98.0","","","","","","","",""
"","","","","","ID","7754","survey-text","1","5025","0.0-1.0","60","4","2022-11-17 12:22:35","fd252370c17a9971d68c1d4354a03c2e","","Mozilla/5.0 (X11; CrOS x86_64 15054.98.0) AppleWebKit/537.36 (KHTML, like Gecko) Chrome/106.0.0.0 Safari/537.36","WebKit","Chrome","106.0.0.0","ChromeOS","15054.98.0","3885","{""ID"":""615e38d62dffc5087aea360c""}","","","","","",""
"","","","","","instructions","7754","html-button-response","2","31748","0.0-2.0","60","4","2022-11-17 12:22:35","fd252370c17a9971d68c1d4354a03c2e","","Mozilla/5.0 (X11; CrOS x86_64 15054.98.0) AppleWebKit/537.36 (KHTML, like Gecko) Chrome/106.0.0.0 Safari/537.36","WebKit","Chrome","106.0.0.0","ChromeOS","15054.98.0","26718","0","","
                    <p style=""font-size:20px;""> Welcome to the experiment! </p>
                    <p style=""font-size:20px;""> In this experiment, you will be asked to make judgments about the content of different sentences.</p>
                    <p style=""font-size:20px;""> On each trial, you will read a sentence, and will be shown a picture immediately following the sentence. </p>
                    <p style=""font-size:20px;""> Your task is to decide whether the object displayed in the picture was mentioned in the sentence or not </p>
                    <p style=""font-size:20px;""> and respond as quickly as possible by pressing <strong>S</strong> for yes or <strong>N</strong> for no. </p>
                    <p style=""font-size:20px;""> You will now do a practice session with feedback and instructions. </p>
                    <p style=""font-size:20px;""> Click the button below to continue.</p>
                    ","","","",""
"","","","","","instructions","7754","html-button-response","3","50411","0.0-3.0","60","4","2022-11-17 12:22:35","fd252370c17a9971d68c1d4354a03c2e","","Mozilla/5.0 (X11; CrOS x86_64 15054.98.0) AppleWebKit/537.36 (KHTML, like Gecko) Chrome/106.0.0.0 Safari/537.36","WebKit","Chrome","106.0.0.0","ChromeOS","15054.98.0","18658","0","","
                    <p style=""font-size:20px;""> You are about to begin the practice test. </p>
                    <p style=""font-size:20px;""> On each trial, a sentence will appear on the screen. You should press SPACEBAR when you have read and understood the sentence.</p>
                    <p style=""font-size:20px;""> After you press SPACEBAR, a picture will appear on the screen. </p>
                    <p style=""font-size:20px;""> You need to indicate whether or not the pictured object was mentioned in the sentence. </p>
                    <p style=""font-size:20px;""> If the object WAS mentioned in the preceding sentence, you should press <strong>S</strong> </p>
                    <p style=""font-size:20px;""> If the object was NOT mentioned in the preceding sentence, you should press <strong>N</strong>. </p>
                    <p style=""font-size:20px;""> Click the button below to continue to the practice session.</p>
                    ","","","",""
"","","","","","fixation","7754","html-keyboard-response","4","51416","0.0-4.0-0.0","60","4","2022-11-17 12:22:35","fd252370c17a9971d68c1d4354a03c2e","","Mozilla/5.0 (X11; CrOS x86_64 15054.98.0) AppleWebKit/537.36 (KHTML, like Gecko) Chrome/106.0.0.0 Safari/537.36","WebKit","Chrome","106.0.0.0","ChromeOS","15054.98.0","null","null","","<p style=""font-size: 48px;"">+</p>","practice","practice_s","",""
"","","","","","sentence","7754","html-keyboard-response","5","55923","0.0-4.0-1.0","60","4","2022-11-17 12:22:35","fd252370c17a9971d68c1d4354a03c2e","","Mozilla/5.0 (X11; CrOS x86_64 15054.98.0) AppleWebKit/537.36 (KHTML, like Gecko) Chrome/106.0.0.0 Safari/537.36","WebKit","Chrome","106.0.0.0","ChromeOS","15054.98.0","4502"," ","","A balloon dropped and touched a cigarette","practice","practice_s","",""
"","","","","","fixation","7754","html-keyboard-response","6","56429","0.0-4.0-2.0","60","4","2022-11-17 12:22:35","fd252370c17a9971d68c1d4354a03c2e","","Mozilla/5.0 (X11; CrOS x86_64 15054.98.0) AppleWebKit/537.36 (KHTML, like Gecko) Chrome/106.0.0.0 Safari/537.36","WebKit","Chrome","106.0.0.0","ChromeOS","15054.98.0","null","null","","<p style=""font-size: 48px;"">+</p>","practice","practice_s","",""
"","","","","","picture","7754","image-keyboard-response","7","57361","0.0-4.0-3.0","60","4","2022-11-17 12:22:35","fd252370c17a9971d68c1d4354a03c2e","","Mozilla/5.0 (X11; CrOS x86_64 15054.98.0) AppleWebKit/537.36 (KHTML, like Gecko) Chrome/106.0.0.0 Safari/537.36","WebKit","Chrome","106.0.0.0","ChromeOS","15054.98.0","916","n","","cigaretteB.jpg","practice","practice_s","false",""
"","","","","","","","html-keyboard-response","8","59368","0.0-4.0-4.0","60","4","2022-11-17 12:22:35","fd252370c17a9971d68c1d4354a03c2e","","Mozilla/5.0 (X11; CrOS x86_64 15054.98.0) AppleWebKit/537.36 (KHTML, like Gecko) Chrome/106.0.0.0 Safari/537.36","WebKit","Chrome","106.0.0.0","ChromeOS","15054.98.0","null","null","","WRONG!","","","",""
"","","","","","fixation","7754","html-keyboard-response","9","60374","0.0-4.0-0.1","60","4","2022-11-17 12:22:35","fd252370c17a9971d68c1d4354a03c2e","","Mozilla/5.0 (X11; CrOS x86_64 15054.98.0) AppleWebKit/537.36 (KHTML, like Gecko) Chrome/106.0.0.0 Safari/537.36","WebKit","Chrome","106.0.0.0","ChromeOS","15054.98.0","null","null","","<p style=""font-size: 48px;"">+</p>","practice","practice_s","",""
"","","","","","sentence","7754","html-keyboard-response","10","65760","0.0-4.0-1.1","60","4","2022-11-17 12:22:35","fd252370c17a9971d68c1d4354a03c2e","","Mozilla/5.0 (X11; CrOS x86_64 15054.98.0) AppleWebKit/537.36 (KHTML, like Gecko) Chrome/106.0.0.0 Safari/537.36","WebKit","Chrome","106.0.0.0","ChromeOS","15054.98.0","5380"," ","","A bowling ball dropped and smashed a teacup","practice","practice_s","",""
"","","","","","fixation","7754","html-keyboard-response","11","66264","0.0-4.0-2.1","60","4","2022-11-17 12:22:35","fd252370c17a9971d68c1d4354a03c2e","","Mozilla/5.0 (X11; CrOS x86_64 15054.98.0) AppleWebKit/537.36 (KHTML, like Gecko) Chrome/106.0.0.0 Safari/537.36","WebKit","Chrome","106.0.0.0","ChromeOS","15054.98.0","null","null","","<p style=""font-size: 48px;"">+</p>","practice","practice_s","",""
"","","","","","picture","7754","image-keyboard-response","12","67440","0.0-4.0-3.1","60","4","2022-11-17 12:22:35","fd252370c17a9971d68c1d4354a03c2e","","Mozilla/5.0 (X11; CrOS x86_64 15054.98.0) AppleWebKit/537.36 (KHTML, like Gecko) Chrome/106.0.0.0 Safari/537.36","WebKit","Chrome","106.0.0.0","ChromeOS","15054.98.0","1169","s","","cupB.jpg","practice","practice_s","true",""
"","","","","","","","html-keyboard-response","13","69446","0.0-4.0-4.1","60","4","2022-11-17 12:22:35","fd252370c17a9971d68c1d4354a03c2e","","Mozilla/5.0 (X11; CrOS x86_64 15054.98.0) AppleWebKit/537.36 (KHTML, like Gecko) Chrome/106.0.0.0 Safari/537.36","WebKit","Chrome","106.0.0.0","ChromeOS","15054.98.0","null","null","","CORRECT!","","","",""
"","","","","","fixation","7754","html-keyboard-response","14","70451","0.0-4.0-0.2","60","4","2022-11-17 12:22:35","fd252370c17a9971d68c1d4354a03c2e","","Mozilla/5.0 (X11; CrOS x86_64 15054.98.0) AppleWebKit/537.36 (KHTML, like Gecko) Chrome/106.0.0.0 Safari/537.36","WebKit","Chrome","106.0.0.0","ChromeOS","15054.98.0","null","null","","<p style=""font-size: 48px;"">+</p>","practice","practice_n","",""
"","","","","","sentence","7754","html-keyboard-response","15","73500","0.0-4.0-1.2","60","4","2022-11-17 12:22:35","fd252370c17a9971d68c1d4354a03c2e","","Mozilla/5.0 (X11; CrOS x86_64 15054.98.0) AppleWebKit/537.36 (KHTML, like Gecko) Chrome/106.0.0.0 Safari/537.36","WebKit","Chrome","106.0.0.0","ChromeOS","15054.98.0","3044"," ","","A bowling ball dropped and touched a bottle","practice","practice_n","",""
"","","","","","fixation","7754","html-keyboard-response","16","74010","0.0-4.0-2.2","60","4","2022-11-17 12:22:35","fd252370c17a9971d68c1d4354a03c2e","","Mozilla/5.0 (X11; CrOS x86_64 15054.98.0) AppleWebKit/537.36 (KHTML, like Gecko) Chrome/106.0.0.0 Safari/537.36","WebKit","Chrome","106.0.0.0","ChromeOS","15054.98.0","null","null","","<p style=""font-size: 48px;"">+</p>","practice","practice_n","",""
"","","","","","picture","7754","image-keyboard-response","17","74699","0.0-4.0-3.2","60","4","2022-11-17 12:22:35","fd252370c17a9971d68c1d4354a03c2e","","Mozilla/5.0 (X11; CrOS x86_64 15054.98.0) AppleWebKit/537.36 (KHTML, like Gecko) Chrome/106.0.0.0 Safari/537.36","WebKit","Chrome","106.0.0.0","ChromeOS","15054.98.0","683","n","","bookB.jpg","practice","practice_n","true",""
"","","","","","","","html-keyboard-response","18","76704","0.0-4.0-4.2","60","4","2022-11-17 12:22:35","fd252370c17a9971d68c1d4354a03c2e","","Mozilla/5.0 (X11; CrOS x86_64 15054.98.0) AppleWebKit/537.36 (KHTML, like Gecko) Chrome/106.0.0.0 Safari/537.36","WebKit","Chrome","106.0.0.0","ChromeOS","15054.98.0","null","null","","CORRECT!","","","",""
"","","","","","fixation","7754","html-keyboard-response","19","77707","0.0-4.0-0.3","60","4","2022-11-17 12:22:35","fd252370c17a9971d68c1d4354a03c2e","","Mozilla/5.0 (X11; CrOS x86_64 15054.98.0) AppleWebKit/537.36 (KHTML, like Gecko) Chrome/106.0.0.0 Safari/537.36","WebKit","Chrome","106.0.0.0","ChromeOS","15054.98.0","null","null","","<p style=""font-size: 48px;"">+</p>","practice","practice_n","",""
"","","","","","sentence","7754","html-keyboard-response","20","81845","0.0-4.0-1.3","60","4","2022-11-17 12:22:35","fd252370c17a9971d68c1d4354a03c2e","","Mozilla/5.0 (X11; CrOS x86_64 15054.98.0) AppleWebKit/537.36 (KHTML, like Gecko) Chrome/106.0.0.0 Safari/537.36","WebKit","Chrome","106.0.0.0","ChromeOS","15054.98.0","4134"," ","","A fork was placed on a stool","practice","practice_n","",""
"","","","","","fixation","7754","html-keyboard-response","21","82353","0.0-4.0-2.3","60","4","2022-11-17 12:22:35","fd252370c17a9971d68c1d4354a03c2e","","Mozilla/5.0 (X11; CrOS x86_64 15054.98.0) AppleWebKit/537.36 (KHTML, like Gecko) Chrome/106.0.0.0 Safari/537.36","WebKit","Chrome","106.0.0.0","ChromeOS","15054.98.0","null","null","","<p style=""font-size: 48px;"">+</p>","practice","practice_n","",""
"","","","","","picture","7754","image-keyboard-response","22","83305","0.0-4.0-3.3","60","4","2022-11-17 12:22:35","fd252370c17a9971d68c1d4354a03c2e","","Mozilla/5.0 (X11; CrOS x86_64 15054.98.0) AppleWebKit/537.36 (KHTML, like Gecko) Chrome/106.0.0.0 Safari/537.36","WebKit","Chrome","106.0.0.0","ChromeOS","15054.98.0","944","n","","tableB.jpg","practice","practice_n","true",""
"","","","","","","","html-keyboard-response","23","85312","0.0-4.0-4.3","60","4","2022-11-17 12:22:35","fd252370c17a9971d68c1d4354a03c2e","","Mozilla/5.0 (X11; CrOS x86_64 15054.98.0) AppleWebKit/537.36 (KHTML, like Gecko) Chrome/106.0.0.0 Safari/537.36","WebKit","Chrome","106.0.0.0","ChromeOS","15054.98.0","null","null","","CORRECT!","","","",""
"","","","","","fixation","7754","html-keyboard-response","24","86320","0.0-4.0-0.4","60","4","2022-11-17 12:22:35","fd252370c17a9971d68c1d4354a03c2e","","Mozilla/5.0 (X11; CrOS x86_64 15054.98.0) AppleWebKit/537.36 (KHTML, like Gecko) Chrome/106.0.0.0 Safari/537.36","WebKit","Chrome","106.0.0.0","ChromeOS","15054.98.0","null","null","","<p style=""font-size: 48px;"">+</p>","practice","practice_n","",""
"","","","","","sentence","7754","html-keyboard-response","25","89867","0.0-4.0-1.4","60","4","2022-11-17 12:22:35","fd252370c17a9971d68c1d4354a03c2e","","Mozilla/5.0 (X11; CrOS x86_64 15054.98.0) AppleWebKit/537.36 (KHTML, like Gecko) Chrome/106.0.0.0 Safari/537.36","WebKit","Chrome","106.0.0.0","ChromeOS","15054.98.0","3544"," ","","A balloon dropped and smashed a cup","practice","practice_n","",""
"","","","","","fixation","7754","html-keyboard-response","26","90371","0.0-4.0-2.4","60","4","2022-11-17 12:22:35","fd252370c17a9971d68c1d4354a03c2e","","Mozilla/5.0 (X11; CrOS x86_64 15054.98.0) AppleWebKit/537.36 (KHTML, like Gecko) Chrome/106.0.0.0 Safari/537.36","WebKit","Chrome","106.0.0.0","ChromeOS","15054.98.0","null","null","","<p style=""font-size: 48px;"">+</p>","practice","practice_n","",""
"","","","","","picture","7754","image-keyboard-response","27","91088","0.0-4.0-3.4","60","4","2022-11-17 12:22:35","fd252370c17a9971d68c1d4354a03c2e","","Mozilla/5.0 (X11; CrOS x86_64 15054.98.0) AppleWebKit/537.36 (KHTML, like Gecko) Chrome/106.0.0.0 Safari/537.36","WebKit","Chrome","106.0.0.0","ChromeOS","15054.98.0","712","n","","bananaB.jpg","practice","practice_n","true",""
"","","","","","","","html-keyboard-response","28","93094","0.0-4.0-4.4","60","4","2022-11-17 12:22:35","fd252370c17a9971d68c1d4354a03c2e","","Mozilla/5.0 (X11; CrOS x86_64 15054.98.0) AppleWebKit/537.36 (KHTML, like Gecko) Chrome/106.0.0.0 Safari/537.36","WebKit","Chrome","106.0.0.0","ChromeOS","15054.98.0","null","null","","CORRECT!","","","",""
"","","","","","fixation","7754","html-keyboard-response","29","94100","0.0-4.0-0.5","60","4","2022-11-17 12:22:35","fd252370c17a9971d68c1d4354a03c2e","","Mozilla/5.0 (X11; CrOS x86_64 15054.98.0) AppleWebKit/537.36 (KHTML, like Gecko) Chrome/106.0.0.0 Safari/537.36","WebKit","Chrome","106.0.0.0","ChromeOS","15054.98.0","null","null","","<p style=""font-size: 48px;"">+</p>","practice","practice_s","",""
"","","","","","sentence","7754","html-keyboard-response","30","95913","0.0-4.0-1.5","60","4","2022-11-17 12:22:35","fd252370c17a9971d68c1d4354a03c2e","","Mozilla/5.0 (X11; CrOS x86_64 15054.98.0) AppleWebKit/537.36 (KHTML, like Gecko) Chrome/106.0.0.0 Safari/537.36","WebKit","Chrome","106.0.0.0","ChromeOS","15054.98.0","1807"," ","","A knife was placed on a hammer","practice","practice_s","",""
"","","","","","fixation","7754","html-keyboard-response","31","96419","0.0-4.0-2.5","60","4","2022-11-17 12:22:35","fd252370c17a9971d68c1d4354a03c2e","","Mozilla/5.0 (X11; CrOS x86_64 15054.98.0) AppleWebKit/537.36 (KHTML, like Gecko) Chrome/106.0.0.0 Safari/537.36","WebKit","Chrome","106.0.0.0","ChromeOS","15054.98.0","null","null","","<p style=""font-size: 48px;"">+</p>","practice","practice_s","",""
"","","","","","picture","7754","image-keyboard-response","32","97336","0.0-4.0-3.5","60","4","2022-11-17 12:22:35","fd252370c17a9971d68c1d4354a03c2e","","Mozilla/5.0 (X11; CrOS x86_64 15054.98.0) AppleWebKit/537.36 (KHTML, like Gecko) Chrome/106.0.0.0 Safari/537.36","WebKit","Chrome","106.0.0.0","ChromeOS","15054.98.0","910","s","","hammerB.jpg","practice","practice_s","true",""
"","","","","","","","html-keyboard-response","33","99343","0.0-4.0-4.5","60","4","2022-11-17 12:22:35","fd252370c17a9971d68c1d4354a03c2e","","Mozilla/5.0 (X11; CrOS x86_64 15054.98.0) AppleWebKit/537.36 (KHTML, like Gecko) Chrome/106.0.0.0 Safari/537.36","WebKit","Chrome","106.0.0.0","ChromeOS","15054.98.0","null","null","","CORRECT!","","","",""
"","","","","","movetoexp","7754","html-button-response","34","109363","0.0-5.0","60","4","2022-11-17 12:22:35","fd252370c17a9971d68c1d4354a03c2e","","Mozilla/5.0 (X11; CrOS x86_64 15054.98.0) AppleWebKit/537.36 (KHTML, like Gecko) Chrome/106.0.0.0 Safari/537.36","WebKit","Chrome","106.0.0.0","ChromeOS","15054.98.0","10010","0","","<p style=""font-size:20px;"">You have now completed the practice session! </p>
                    <p style=""font-size:20px;"">You will now move on to the main experiment, where you will not be provided any feedback. </p>
                    <p style=""font-size:20px;"">Remember, you should press <strong>S</strong> if the pictured object was mentioned in the preceding sentence<br> and <strong>N</strong> if the pictured object was not mentioned in the preceding sentence.</p>
                    <p style=""font-size:20px;"">Please click the button below to continue to the main experiment. </p>","","","",""
"","","","","","fixation","7754","html-keyboard-response","35","110371","0.0-6.0-0.0","60","4","2022-11-17 12:22:35","fd252370c17a9971d68c1d4354a03c2e","","Mozilla/5.0 (X11; CrOS x86_64 15054.98.0) AppleWebKit/537.36 (KHTML, like Gecko) Chrome/106.0.0.0 Safari/537.36","WebKit","Chrome","106.0.0.0","ChromeOS","15054.98.0","null","null","","<p style=""font-size: 48px;"">+</p>","4","Light-Contradictory","",""
"","","","","","sentence","7754","html-keyboard-response","36","114370","0.0-6.0-1.0","60","4","2022-11-17 12:22:35","fd252370c17a9971d68c1d4354a03c2e","","Mozilla/5.0 (X11; CrOS x86_64 15054.98.0) AppleWebKit/537.36 (KHTML, like Gecko) Chrome/106.0.0.0 Safari/537.36","WebKit","Chrome","106.0.0.0","ChromeOS","15054.98.0","3992"," ","","A balloon dropped and smashed a mirror","4","Light-Contradictory","",""
"","","","","","fixation","7754","html-keyboard-response","37","114877","0.0-6.0-2.0","60","4","2022-11-17 12:22:35","fd252370c17a9971d68c1d4354a03c2e","","Mozilla/5.0 (X11; CrOS x86_64 15054.98.0) AppleWebKit/537.36 (KHTML, like Gecko) Chrome/106.0.0.0 Safari/537.36","WebKit","Chrome","106.0.0.0","ChromeOS","15054.98.0","null","null","","<p style=""font-size: 48px;"">+</p>","4","Light-Contradictory","",""
"","","","","","picture","7754","image-keyboard-response","38","115499","0.0-6.0-3.0","60","4","2022-11-17 12:22:35","fd252370c17a9971d68c1d4354a03c2e","","Mozilla/5.0 (X11; CrOS x86_64 15054.98.0) AppleWebKit/537.36 (KHTML, like Gecko) Chrome/106.0.0.0 Safari/537.36","WebKit","Chrome","106.0.0.0","ChromeOS","15054.98.0","613","s","","mirrorS.jpg","4","Light-Contradictory","true",""
"","","","","","fixation","7754","html-keyboard-response","39","116506","0.0-6.0-0.1","60","4","2022-11-17 12:22:35","fd252370c17a9971d68c1d4354a03c2e","","Mozilla/5.0 (X11; CrOS x86_64 15054.98.0) AppleWebKit/537.36 (KHTML, like Gecko) Chrome/106.0.0.0 Safari/537.36","WebKit","Chrome","106.0.0.0","ChromeOS","15054.98.0","null","null","","<p style=""font-size: 48px;"">+</p>","4","Light-Contradictory","",""
"","","","","","sentence","7754","html-keyboard-response","40","119158","0.0-6.0-1.1","60","4","2022-11-17 12:22:35","fd252370c17a9971d68c1d4354a03c2e","","Mozilla/5.0 (X11; CrOS x86_64 15054.98.0) AppleWebKit/537.36 (KHTML, like Gecko) Chrome/106.0.0.0 Safari/537.36","WebKit","Chrome","106.0.0.0","ChromeOS","15054.98.0","2642"," ","","A balloon dropped and smashed a rice cake","4","Light-Contradictory","",""
"","","","","","fixation","7754","html-keyboard-response","41","119665","0.0-6.0-2.1","60","4","2022-11-17 12:22:35","fd252370c17a9971d68c1d4354a03c2e","","Mozilla/5.0 (X11; CrOS x86_64 15054.98.0) AppleWebKit/537.36 (KHTML, like Gecko) Chrome/106.0.0.0 Safari/537.36","WebKit","Chrome","106.0.0.0","ChromeOS","15054.98.0","null","null","","<p style=""font-size: 48px;"">+</p>","4","Light-Contradictory","",""
"","","","","","picture","7754","image-keyboard-response","42","120548","0.0-6.0-3.1","60","4","2022-11-17 12:22:35","fd252370c17a9971d68c1d4354a03c2e","","Mozilla/5.0 (X11; CrOS x86_64 15054.98.0) AppleWebKit/537.36 (KHTML, like Gecko) Chrome/106.0.0.0 Safari/537.36","WebKit","Chrome","106.0.0.0","ChromeOS","15054.98.0","878","s","","tortitaS.jpg","4","Light-Contradictory","true",""
"","","","","","fixation","7754","html-keyboard-response","43","121557","0.0-6.0-0.2","60","4","2022-11-17 12:22:35","fd252370c17a9971d68c1d4354a03c2e","","Mozilla/5.0 (X11; CrOS x86_64 15054.98.0) AppleWebKit/537.36 (KHTML, like Gecko) Chrome/106.0.0.0 Safari/537.36","WebKit","Chrome","106.0.0.0","ChromeOS","15054.98.0","null","null","","<p style=""font-size: 48px;"">+</p>","4","Filler","",""
"","","","","","sentence","7754","html-keyboard-response","44","124155","0.0-6.0-1.2","60","4","2022-11-17 12:22:35","fd252370c17a9971d68c1d4354a03c2e","","Mozilla/5.0 (X11; CrOS x86_64 15054.98.0) AppleWebKit/537.36 (KHTML, like Gecko) Chrome/106.0.0.0 Safari/537.36","WebKit","Chrome","106.0.0.0","ChromeOS","15054.98.0","2592"," ","","A donkey is drinking water.","4","Filler","",""
"","","","","","fixation","7754","html-keyboard-response","45","124664","0.0-6.0-2.2","60","4","2022-11-17 12:22:35","fd252370c17a9971d68c1d4354a03c2e","","Mozilla/5.0 (X11; CrOS x86_64 15054.98.0) AppleWebKit/537.36 (KHTML, like Gecko) Chrome/106.0.0.0 Safari/537.36","WebKit","Chrome","106.0.0.0","ChromeOS","15054.98.0","null","null","","<p style=""font-size: 48px;"">+</p>","4","Filler","",""
"","","","","","picture","7754","image-keyboard-response","46","125441","0.0-6.0-3.2","60","4","2022-11-17 12:22:35","fd252370c17a9971d68c1d4354a03c2e","","Mozilla/5.0 (X11; CrOS x86_64 15054.98.0) AppleWebKit/537.36 (KHTML, like Gecko) Chrome/106.0.0.0 Safari/537.36","WebKit","Chrome","106.0.0.0","ChromeOS","15054.98.0","768","n","","couch.jpg","4","Filler","true",""
"","","","","","fixation","7754","html-keyboard-response","47","126450","0.0-6.0-0.3","60","4","2022-11-17 12:22:35","fd252370c17a9971d68c1d4354a03c2e","","Mozilla/5.0 (X11; CrOS x86_64 15054.98.0) AppleWebKit/537.36 (KHTML, like Gecko) Chrome/106.0.0.0 Safari/537.36","WebKit","Chrome","106.0.0.0","ChromeOS","15054.98.0","null","null","","<p style=""font-size: 48px;"">+</p>","4","Filler","",""
"","","","","","sentence","7754","html-keyboard-response","48","128642","0.0-6.0-1.3","60","4","2022-11-17 12:22:35","fd252370c17a9971d68c1d4354a03c2e","","Mozilla/5.0 (X11; CrOS x86_64 15054.98.0) AppleWebKit/537.36 (KHTML, like Gecko) Chrome/106.0.0.0 Safari/537.36","WebKit","Chrome","106.0.0.0","ChromeOS","15054.98.0","2184"," ","","A student is writing on a board","4","Filler","",""
"","","","","","fixation","7754","html-keyboard-response","49","129154","0.0-6.0-2.3","60","4","2022-11-17 12:22:35","fd252370c17a9971d68c1d4354a03c2e","","Mozilla/5.0 (X11; CrOS x86_64 15054.98.0) AppleWebKit/537.36 (KHTML, like Gecko) Chrome/106.0.0.0 Safari/537.36","WebKit","Chrome","106.0.0.0","ChromeOS","15054.98.0","null","null","","<p style=""font-size: 48px;"">+</p>","4","Filler","",""
"","","","","","picture","7754","image-keyboard-response","50","129919","0.0-6.0-3.3","60","4","2022-11-17 12:22:35","fd252370c17a9971d68c1d4354a03c2e","","Mozilla/5.0 (X11; CrOS x86_64 15054.98.0) AppleWebKit/537.36 (KHTML, like Gecko) Chrome/106.0.0.0 Safari/537.36","WebKit","Chrome","106.0.0.0","ChromeOS","15054.98.0","755","n","","owl.jpg","4","Filler","true",""
"","","","","","fixation","7754","html-keyboard-response","51","130929","0.0-6.0-0.4","60","4","2022-11-17 12:22:35","fd252370c17a9971d68c1d4354a03c2e","","Mozilla/5.0 (X11; CrOS x86_64 15054.98.0) AppleWebKit/537.36 (KHTML, like Gecko) Chrome/106.0.0.0 Safari/537.36","WebKit","Chrome","106.0.0.0","ChromeOS","15054.98.0","null","null","","<p style=""font-size: 48px;"">+</p>","4","Filler","",""
"","","","","","sentence","7754","html-keyboard-response","52","132379","0.0-6.0-1.4","60","4","2022-11-17 12:22:35","fd252370c17a9971d68c1d4354a03c2e","","Mozilla/5.0 (X11; CrOS x86_64 15054.98.0) AppleWebKit/537.36 (KHTML, like Gecko) Chrome/106.0.0.0 Safari/537.36","WebKit","Chrome","106.0.0.0","ChromeOS","15054.98.0","1443"," ","","A thief is stealing a wallet","4","Filler","",""
"","","","","","fixation","7754","html-keyboard-response","53","132890","0.0-6.0-2.4","60","4","2022-11-17 12:22:35","fd252370c17a9971d68c1d4354a03c2e","","Mozilla/5.0 (X11; CrOS x86_64 15054.98.0) AppleWebKit/537.36 (KHTML, like Gecko) Chrome/106.0.0.0 Safari/537.36","WebKit","Chrome","106.0.0.0","ChromeOS","15054.98.0","null","null","","<p style=""font-size: 48px;"">+</p>","4","Filler","",""
"","","","","","picture","7754","image-keyboard-response","54","133636","0.0-6.0-3.4","60","4","2022-11-17 12:22:35","fd252370c17a9971d68c1d4354a03c2e","","Mozilla/5.0 (X11; CrOS x86_64 15054.98.0) AppleWebKit/537.36 (KHTML, like Gecko) Chrome/106.0.0.0 Safari/537.36","WebKit","Chrome","106.0.0.0","ChromeOS","15054.98.0","736","n","","teddybear.jpg","4","Filler","true",""
"","","","","","fixation","7754","html-keyboard-response","55","134646","0.0-6.0-0.5","60","4","2022-11-17 12:22:35","fd252370c17a9971d68c1d4354a03c2e","","Mozilla/5.0 (X11; CrOS x86_64 15054.98.0) AppleWebKit/537.36 (KHTML, like Gecko) Chrome/106.0.0.0 Safari/537.36","WebKit","Chrome","106.0.0.0","ChromeOS","15054.98.0","null","null","","<p style=""font-size: 48px;"">+</p>","4","Filler","",""
"","","","","","sentence","7754","html-keyboard-response","56","136302","0.0-6.0-1.5","60","4","2022-11-17 12:22:35","fd252370c17a9971d68c1d4354a03c2e","","Mozilla/5.0 (X11; CrOS x86_64 15054.98.0) AppleWebKit/537.36 (KHTML, like Gecko) Chrome/106.0.0.0 Safari/537.36","WebKit","Chrome","106.0.0.0","ChromeOS","15054.98.0","1647"," ","","An actress is taking a microphone","4","Filler","",""
"","","","","","fixation","7754","html-keyboard-response","57","136812","0.0-6.0-2.5","60","4","2022-11-17 12:22:35","fd252370c17a9971d68c1d4354a03c2e","","Mozilla/5.0 (X11; CrOS x86_64 15054.98.0) AppleWebKit/537.36 (KHTML, like Gecko) Chrome/106.0.0.0 Safari/537.36","WebKit","Chrome","106.0.0.0","ChromeOS","15054.98.0","null","null","","<p style=""font-size: 48px;"">+</p>","4","Filler","",""
"","","","","","picture","7754","image-keyboard-response","58","137688","0.0-6.0-3.5","60","4","2022-11-17 12:22:35","fd252370c17a9971d68c1d4354a03c2e","","Mozilla/5.0 (X11; CrOS x86_64 15054.98.0) AppleWebKit/537.36 (KHTML, like Gecko) Chrome/106.0.0.0 Safari/537.36","WebKit","Chrome","106.0.0.0","ChromeOS","15054.98.0","864","n","","pants.jpg","4","Filler","true",""
"","","","","","fixation","7754","html-keyboard-response","59","138697","0.0-6.0-0.6","60","4","2022-11-17 12:22:35","fd252370c17a9971d68c1d4354a03c2e","","Mozilla/5.0 (X11; CrOS x86_64 15054.98.0) AppleWebKit/537.36 (KHTML, like Gecko) Chrome/106.0.0.0 Safari/537.36","WebKit","Chrome","106.0.0.0","ChromeOS","15054.98.0","null","null","","<p style=""font-size: 48px;"">+</p>","4","Filler","",""
"","","","","","sentence","7754","html-keyboard-response","60","140841","0.0-6.0-1.6","60","4","2022-11-17 12:22:35","fd252370c17a9971d68c1d4354a03c2e","","Mozilla/5.0 (X11; CrOS x86_64 15054.98.0) AppleWebKit/537.36 (KHTML, like Gecko) Chrome/106.0.0.0 Safari/537.36","WebKit","Chrome","106.0.0.0","ChromeOS","15054.98.0","2136"," ","","A giraffe is playing with a zebra","4","Filler","",""
"","","","","","fixation","7754","html-keyboard-response","61","141351","0.0-6.0-2.6","60","4","2022-11-17 12:22:35","fd252370c17a9971d68c1d4354a03c2e","","Mozilla/5.0 (X11; CrOS x86_64 15054.98.0) AppleWebKit/537.36 (KHTML, like Gecko) Chrome/106.0.0.0 Safari/537.36","WebKit","Chrome","106.0.0.0","ChromeOS","15054.98.0","null","null","","<p style=""font-size: 48px;"">+</p>","4","Filler","",""
"","","","","","picture","7754","image-keyboard-response","62","141891","0.0-6.0-3.6","60","4","2022-11-17 12:22:35","fd252370c17a9971d68c1d4354a03c2e","","Mozilla/5.0 (X11; CrOS x86_64 15054.98.0) AppleWebKit/537.36 (KHTML, like Gecko) Chrome/106.0.0.0 Safari/537.36","WebKit","Chrome","106.0.0.0","ChromeOS","15054.98.0","527","n","","wallet.jpg","4","Filler","true",""
"","","","","","fixation","7754","html-keyboard-response","63","142900","0.0-6.0-0.7","60","4","2022-11-17 12:22:35","fd252370c17a9971d68c1d4354a03c2e","","Mozilla/5.0 (X11; CrOS x86_64 15054.98.0) AppleWebKit/537.36 (KHTML, like Gecko) Chrome/106.0.0.0 Safari/537.36","WebKit","Chrome","106.0.0.0","ChromeOS","15054.98.0","null","null","","<p style=""font-size: 48px;"">+</p>","4","Filler","",""
"","","","","","sentence","7754","html-keyboard-response","64","146010","0.0-6.0-1.7","60","4","2022-11-17 12:22:35","fd252370c17a9971d68c1d4354a03c2e","","Mozilla/5.0 (X11; CrOS x86_64 15054.98.0) AppleWebKit/537.36 (KHTML, like Gecko) Chrome/106.0.0.0 Safari/537.36","WebKit","Chrome","106.0.0.0","ChromeOS","15054.98.0","3099"," ","","A cat is drinking water from a bowl","4","Filler","",""
"","","","","","fixation","7754","html-keyboard-response","65","146520","0.0-6.0-2.7","60","4","2022-11-17 12:22:35","fd252370c17a9971d68c1d4354a03c2e","","Mozilla/5.0 (X11; CrOS x86_64 15054.98.0) AppleWebKit/537.36 (KHTML, like Gecko) Chrome/106.0.0.0 Safari/537.36","WebKit","Chrome","106.0.0.0","ChromeOS","15054.98.0","null","null","","<p style=""font-size: 48px;"">+</p>","4","Filler","",""
"","","","","","picture","7754","image-keyboard-response","66","147594","0.0-6.0-3.7","60","4","2022-11-17 12:22:35","fd252370c17a9971d68c1d4354a03c2e","","Mozilla/5.0 (X11; CrOS x86_64 15054.98.0) AppleWebKit/537.36 (KHTML, like Gecko) Chrome/106.0.0.0 Safari/537.36","WebKit","Chrome","106.0.0.0","ChromeOS","15054.98.0","1067","s","","bowl.jpg","4","Filler","true",""
"","","","","","fixation","7754","html-keyboard-response","67","148603","0.0-6.0-0.8","60","4","2022-11-17 12:22:35","fd252370c17a9971d68c1d4354a03c2e","","Mozilla/5.0 (X11; CrOS x86_64 15054.98.0) AppleWebKit/537.36 (KHTML, like Gecko) Chrome/106.0.0.0 Safari/537.36","WebKit","Chrome","106.0.0.0","ChromeOS","15054.98.0","null","null","","<p style=""font-size: 48px;"">+</p>","4","Filler","",""
"","","","","","sentence","7754","html-keyboard-response","68","151465","0.0-6.0-1.8","60","4","2022-11-17 12:22:35","fd252370c17a9971d68c1d4354a03c2e","","Mozilla/5.0 (X11; CrOS x86_64 15054.98.0) AppleWebKit/537.36 (KHTML, like Gecko) Chrome/106.0.0.0 Safari/537.36","WebKit","Chrome","106.0.0.0","ChromeOS","15054.98.0","2850"," ","","An old man is hammering a nail","4","Filler","",""
"","","","","","fixation","7754","html-keyboard-response","69","151976","0.0-6.0-2.8","60","4","2022-11-17 12:22:35","fd252370c17a9971d68c1d4354a03c2e","","Mozilla/5.0 (X11; CrOS x86_64 15054.98.0) AppleWebKit/537.36 (KHTML, like Gecko) Chrome/106.0.0.0 Safari/537.36","WebKit","Chrome","106.0.0.0","ChromeOS","15054.98.0","null","null","","<p style=""font-size: 48px;"">+</p>","4","Filler","",""
"","","","","","picture","7754","image-keyboard-response","70","152890","0.0-6.0-3.8","60","4","2022-11-17 12:22:35","fd252370c17a9971d68c1d4354a03c2e","","Mozilla/5.0 (X11; CrOS x86_64 15054.98.0) AppleWebKit/537.36 (KHTML, like Gecko) Chrome/106.0.0.0 Safari/537.36","WebKit","Chrome","106.0.0.0","ChromeOS","15054.98.0","902","s","","nail.jpg","4","Filler","true",""
"","","","","","fixation","7754","html-keyboard-response","71","153902","0.0-6.0-0.9","60","4","2022-11-17 12:22:35","fd252370c17a9971d68c1d4354a03c2e","","Mozilla/5.0 (X11; CrOS x86_64 15054.98.0) AppleWebKit/537.36 (KHTML, like Gecko) Chrome/106.0.0.0 Safari/537.36","WebKit","Chrome","106.0.0.0","ChromeOS","15054.98.0","null","null","","<p style=""font-size: 48px;"">+</p>","4","Filler","",""
"","","","","","sentence","7754","html-keyboard-response","72","156055","0.0-6.0-1.9","60","4","2022-11-17 12:22:35","fd252370c17a9971d68c1d4354a03c2e","","Mozilla/5.0 (X11; CrOS x86_64 15054.98.0) AppleWebKit/537.36 (KHTML, like Gecko) Chrome/106.0.0.0 Safari/537.36","WebKit","Chrome","106.0.0.0","ChromeOS","15054.98.0","2142"," ","","A boy is wearing a hat","4","Filler","",""
"","","","","","fixation","7754","html-keyboard-response","73","156568","0.0-6.0-2.9","60","4","2022-11-17 12:22:35","fd252370c17a9971d68c1d4354a03c2e","","Mozilla/5.0 (X11; CrOS x86_64 15054.98.0) AppleWebKit/537.36 (KHTML, like Gecko) Chrome/106.0.0.0 Safari/537.36","WebKit","Chrome","106.0.0.0","ChromeOS","15054.98.0","null","null","","<p style=""font-size: 48px;"">+</p>","4","Filler","",""
"","","","","","picture","7754","image-keyboard-response","74","157452","0.0-6.0-3.9","60","4","2022-11-17 12:22:35","fd252370c17a9971d68c1d4354a03c2e","","Mozilla/5.0 (X11; CrOS x86_64 15054.98.0) AppleWebKit/537.36 (KHTML, like Gecko) Chrome/106.0.0.0 Safari/537.36","WebKit","Chrome","106.0.0.0","ChromeOS","15054.98.0","876","s","","hat.jpg","4","Filler","true",""
"","","","","","fixation","7754","html-keyboard-response","75","158463","0.0-6.0-0.10","60","4","2022-11-17 12:22:35","fd252370c17a9971d68c1d4354a03c2e","","Mozilla/5.0 (X11; CrOS x86_64 15054.98.0) AppleWebKit/537.36 (KHTML, like Gecko) Chrome/106.0.0.0 Safari/537.36","WebKit","Chrome","106.0.0.0","ChromeOS","15054.98.0","null","null","","<p style=""font-size: 48px;"">+</p>","4","Filler","",""
"","","","","","sentence","7754","html-keyboard-response","76","160956","0.0-6.0-1.10","60","4","2022-11-17 12:22:35","fd252370c17a9971d68c1d4354a03c2e","","Mozilla/5.0 (X11; CrOS x86_64 15054.98.0) AppleWebKit/537.36 (KHTML, like Gecko) Chrome/106.0.0.0 Safari/537.36","WebKit","Chrome","106.0.0.0","ChromeOS","15054.98.0","2482"," ","","A fork was placed on the plate","4","Filler","",""
"","","","","","fixation","7754","html-keyboard-response","77","161468","0.0-6.0-2.10","60","4","2022-11-17 12:22:35","fd252370c17a9971d68c1d4354a03c2e","","Mozilla/5.0 (X11; CrOS x86_64 15054.98.0) AppleWebKit/537.36 (KHTML, like Gecko) Chrome/106.0.0.0 Safari/537.36","WebKit","Chrome","106.0.0.0","ChromeOS","15054.98.0","null","null","","<p style=""font-size: 48px;"">+</p>","4","Filler","",""
"","","","","","picture","7754","image-keyboard-response","78","162703","0.0-6.0-3.10","60","4","2022-11-17 12:22:35","fd252370c17a9971d68c1d4354a03c2e","","Mozilla/5.0 (X11; CrOS x86_64 15054.98.0) AppleWebKit/537.36 (KHTML, like Gecko) Chrome/106.0.0.0 Safari/537.36","WebKit","Chrome","106.0.0.0","ChromeOS","15054.98.0","1222","s","","plate.jpg","4","Filler","true",""
"","","","","","fixation","7754","html-keyboard-response","79","163707","0.0-6.0-0.11","60","4","2022-11-17 12:22:35","fd252370c17a9971d68c1d4354a03c2e","","Mozilla/5.0 (X11; CrOS x86_64 15054.98.0) AppleWebKit/537.36 (KHTML, like Gecko) Chrome/106.0.0.0 Safari/537.36","WebKit","Chrome","106.0.0.0","ChromeOS","15054.98.0","null","null","","<p style=""font-size: 48px;"">+</p>","4","Filler","",""
"","","","","","sentence","7754","html-keyboard-response","80","167277","0.0-6.0-1.11","60","4","2022-11-17 12:22:35","fd252370c17a9971d68c1d4354a03c2e","","Mozilla/5.0 (X11; CrOS x86_64 15054.98.0) AppleWebKit/537.36 (KHTML, like Gecko) Chrome/106.0.0.0 Safari/537.36","WebKit","Chrome","106.0.0.0","ChromeOS","15054.98.0","3556"," ","","A dentist is drinking a can of cola","4","Filler","",""
"","","","","","fixation","7754","html-keyboard-response","81","167790","0.0-6.0-2.11","60","4","2022-11-17 12:22:35","fd252370c17a9971d68c1d4354a03c2e","","Mozilla/5.0 (X11; CrOS x86_64 15054.98.0) AppleWebKit/537.36 (KHTML, like Gecko) Chrome/106.0.0.0 Safari/537.36","WebKit","Chrome","106.0.0.0","ChromeOS","15054.98.0","null","null","","<p style=""font-size: 48px;"">+</p>","4","Filler","",""
"","","","","","picture","7754","image-keyboard-response","82","168522","0.0-6.0-3.11","60","4","2022-11-17 12:22:35","fd252370c17a9971d68c1d4354a03c2e","","Mozilla/5.0 (X11; CrOS x86_64 15054.98.0) AppleWebKit/537.36 (KHTML, like Gecko) Chrome/106.0.0.0 Safari/537.36","WebKit","Chrome","106.0.0.0","ChromeOS","15054.98.0","715","n","","doll.jpg","4","Filler","true",""
"","","","","","fixation","7754","html-keyboard-response","83","169534","0.0-6.0-0.12","60","4","2022-11-17 12:22:35","fd252370c17a9971d68c1d4354a03c2e","","Mozilla/5.0 (X11; CrOS x86_64 15054.98.0) AppleWebKit/537.36 (KHTML, like Gecko) Chrome/106.0.0.0 Safari/537.36","WebKit","Chrome","106.0.0.0","ChromeOS","15054.98.0","null","null","","<p style=""font-size: 48px;"">+</p>","4","Light-Contradictory","",""
"","","","","","sentence","7754","html-keyboard-response","84","171816","0.0-6.0-1.12","60","4","2022-11-17 12:22:35","fd252370c17a9971d68c1d4354a03c2e","","Mozilla/5.0 (X11; CrOS x86_64 15054.98.0) AppleWebKit/537.36 (KHTML, like Gecko) Chrome/106.0.0.0 Safari/537.36","WebKit","Chrome","106.0.0.0","ChromeOS","15054.98.0","2269"," ","","A balloon dropped and smashed a light bulb","4","Light-Contradictory","",""
"","","","","","fixation","7754","html-keyboard-response","85","172327","0.0-6.0-2.12","60","4","2022-11-17 12:22:35","fd252370c17a9971d68c1d4354a03c2e","","Mozilla/5.0 (X11; CrOS x86_64 15054.98.0) AppleWebKit/537.36 (KHTML, like Gecko) Chrome/106.0.0.0 Safari/537.36","WebKit","Chrome","106.0.0.0","ChromeOS","15054.98.0","null","null","","<p style=""font-size: 48px;"">+</p>","4","Light-Contradictory","",""
"","","","","","picture","7754","image-keyboard-response","86","173248","0.0-6.0-3.12","60","4","2022-11-17 12:22:35","fd252370c17a9971d68c1d4354a03c2e","","Mozilla/5.0 (X11; CrOS x86_64 15054.98.0) AppleWebKit/537.36 (KHTML, like Gecko) Chrome/106.0.0.0 Safari/537.36","WebKit","Chrome","106.0.0.0","ChromeOS","15054.98.0","906","s","","lampS.jpg","4","Light-Contradictory","true",""
"","","","","","fixation","7754","html-keyboard-response","87","174262","0.0-6.0-0.13","60","4","2022-11-17 12:22:35","fd252370c17a9971d68c1d4354a03c2e","","Mozilla/5.0 (X11; CrOS x86_64 15054.98.0) AppleWebKit/537.36 (KHTML, like Gecko) Chrome/106.0.0.0 Safari/537.36","WebKit","Chrome","106.0.0.0","ChromeOS","15054.98.0","null","null","","<p style=""font-size: 48px;"">+</p>","4","Filler","",""
"","","","","","sentence","7754","html-keyboard-response","88","175213","0.0-6.0-1.13","60","4","2022-11-17 12:22:35","fd252370c17a9971d68c1d4354a03c2e","","Mozilla/5.0 (X11; CrOS x86_64 15054.98.0) AppleWebKit/537.36 (KHTML, like Gecko) Chrome/106.0.0.0 Safari/537.36","WebKit","Chrome","106.0.0.0","ChromeOS","15054.98.0","939"," ","","A man is shaving his beard","4","Filler","",""
"","","","","","fixation","7754","html-keyboard-response","89","175727","0.0-6.0-2.13","60","4","2022-11-17 12:22:35","fd252370c17a9971d68c1d4354a03c2e","","Mozilla/5.0 (X11; CrOS x86_64 15054.98.0) AppleWebKit/537.36 (KHTML, like Gecko) Chrome/106.0.0.0 Safari/537.36","WebKit","Chrome","106.0.0.0","ChromeOS","15054.98.0","null","null","","<p style=""font-size: 48px;"">+</p>","4","Filler","",""
"","","","","","picture","7754","image-keyboard-response","90","176648","0.0-6.0-3.13","60","4","2022-11-17 12:22:35","fd252370c17a9971d68c1d4354a03c2e","","Mozilla/5.0 (X11; CrOS x86_64 15054.98.0) AppleWebKit/537.36 (KHTML, like Gecko) Chrome/106.0.0.0 Safari/537.36","WebKit","Chrome","106.0.0.0","ChromeOS","15054.98.0","906","n","","clock.jpg","4","Filler","true",""
"","","","","","fixation","7754","html-keyboard-response","91","177662","0.0-6.0-0.14","60","4","2022-11-17 12:22:35","fd252370c17a9971d68c1d4354a03c2e","","Mozilla/5.0 (X11; CrOS x86_64 15054.98.0) AppleWebKit/537.36 (KHTML, like Gecko) Chrome/106.0.0.0 Safari/537.36","WebKit","Chrome","106.0.0.0","ChromeOS","15054.98.0","null","null","","<p style=""font-size: 48px;"">+</p>","4","Filler","",""
"","","","","","sentence","7754","html-keyboard-response","92","179436","0.0-6.0-1.14","60","4","2022-11-17 12:22:35","fd252370c17a9971d68c1d4354a03c2e","","Mozilla/5.0 (X11; CrOS x86_64 15054.98.0) AppleWebKit/537.36 (KHTML, like Gecko) Chrome/106.0.0.0 Safari/537.36","WebKit","Chrome","106.0.0.0","ChromeOS","15054.98.0","1760"," ","","A kitten is playing in the sandbox","4","Filler","",""
"","","","","","fixation","7754","html-keyboard-response","93","179952","0.0-6.0-2.14","60","4","2022-11-17 12:22:35","fd252370c17a9971d68c1d4354a03c2e","","Mozilla/5.0 (X11; CrOS x86_64 15054.98.0) AppleWebKit/537.36 (KHTML, like Gecko) Chrome/106.0.0.0 Safari/537.36","WebKit","Chrome","106.0.0.0","ChromeOS","15054.98.0","null","null","","<p style=""font-size: 48px;"">+</p>","4","Filler","",""
"","","","","","picture","7754","image-keyboard-response","94","180731","0.0-6.0-3.14","60","4","2022-11-17 12:22:35","fd252370c17a9971d68c1d4354a03c2e","","Mozilla/5.0 (X11; CrOS x86_64 15054.98.0) AppleWebKit/537.36 (KHTML, like Gecko) Chrome/106.0.0.0 Safari/537.36","WebKit","Chrome","106.0.0.0","ChromeOS","15054.98.0","763","n","","dustbin.jpg","4","Filler","true",""
"","","","","","fixation","7754","html-keyboard-response","95","181745","0.0-6.0-0.15","60","4","2022-11-17 12:22:35","fd252370c17a9971d68c1d4354a03c2e","","Mozilla/5.0 (X11; CrOS x86_64 15054.98.0) AppleWebKit/537.36 (KHTML, like Gecko) Chrome/106.0.0.0 Safari/537.36","WebKit","Chrome","106.0.0.0","ChromeOS","15054.98.0","null","null","","<p style=""font-size: 48px;"">+</p>","4","Filler","",""
"","","","","","sentence","7754","html-keyboard-response","96","183619","0.0-6.0-1.15","60","4","2022-11-17 12:22:35","fd252370c17a9971d68c1d4354a03c2e","","Mozilla/5.0 (X11; CrOS x86_64 15054.98.0) AppleWebKit/537.36 (KHTML, like Gecko) Chrome/106.0.0.0 Safari/537.36","WebKit","Chrome","106.0.0.0","ChromeOS","15054.98.0","1861"," ","","A man is boiling potatoes.","4","Filler","",""
"","","","","","fixation","7754","html-keyboard-response","97","184133","0.0-6.0-2.15","60","4","2022-11-17 12:22:35","fd252370c17a9971d68c1d4354a03c2e","","Mozilla/5.0 (X11; CrOS x86_64 15054.98.0) AppleWebKit/537.36 (KHTML, like Gecko) Chrome/106.0.0.0 Safari/537.36","WebKit","Chrome","106.0.0.0","ChromeOS","15054.98.0","null","null","","<p style=""font-size: 48px;"">+</p>","4","Filler","",""
"","","","","","picture","7754","image-keyboard-response","98","185069","0.0-6.0-3.15","60","4","2022-11-17 12:22:35","fd252370c17a9971d68c1d4354a03c2e","","Mozilla/5.0 (X11; CrOS x86_64 15054.98.0) AppleWebKit/537.36 (KHTML, like Gecko) Chrome/106.0.0.0 Safari/537.36","WebKit","Chrome","106.0.0.0","ChromeOS","15054.98.0","921","n","","cup.jpg","4","Filler","true",""
"","","","","","fixation","7754","html-keyboard-response","99","186083","0.0-6.0-0.16","60","4","2022-11-17 12:22:35","fd252370c17a9971d68c1d4354a03c2e","","Mozilla/5.0 (X11; CrOS x86_64 15054.98.0) AppleWebKit/537.36 (KHTML, like Gecko) Chrome/106.0.0.0 Safari/537.36","WebKit","Chrome","106.0.0.0","ChromeOS","15054.98.0","null","null","","<p style=""font-size: 48px;"">+</p>","4","Filler","",""
"","","","","","sentence","7754","html-keyboard-response","100","187545","0.0-6.0-1.16","60","4","2022-11-17 12:22:35","fd252370c17a9971d68c1d4354a03c2e","","Mozilla/5.0 (X11; CrOS x86_64 15054.98.0) AppleWebKit/537.36 (KHTML, like Gecko) Chrome/106.0.0.0 Safari/537.36","WebKit","Chrome","106.0.0.0","ChromeOS","15054.98.0","1454"," ","","A cook is taking a knife","4","Filler","",""
"","","","","","fixation","7754","html-keyboard-response","101","188060","0.0-6.0-2.16","60","4","2022-11-17 12:22:35","fd252370c17a9971d68c1d4354a03c2e","","Mozilla/5.0 (X11; CrOS x86_64 15054.98.0) AppleWebKit/537.36 (KHTML, like Gecko) Chrome/106.0.0.0 Safari/537.36","WebKit","Chrome","106.0.0.0","ChromeOS","15054.98.0","null","null","","<p style=""font-size: 48px;"">+</p>","4","Filler","",""
"","","","","","picture","7754","image-keyboard-response","102","188703","0.0-6.0-3.16","60","4","2022-11-17 12:22:35","fd252370c17a9971d68c1d4354a03c2e","","Mozilla/5.0 (X11; CrOS x86_64 15054.98.0) AppleWebKit/537.36 (KHTML, like Gecko) Chrome/106.0.0.0 Safari/537.36","WebKit","Chrome","106.0.0.0","ChromeOS","15054.98.0","627","s","","knife.jpg","4","Filler","true",""
"","","","","","fixation","7754","html-keyboard-response","103","189716","0.0-6.0-0.17","60","4","2022-11-17 12:22:35","fd252370c17a9971d68c1d4354a03c2e","","Mozilla/5.0 (X11; CrOS x86_64 15054.98.0) AppleWebKit/537.36 (KHTML, like Gecko) Chrome/106.0.0.0 Safari/537.36","WebKit","Chrome","106.0.0.0","ChromeOS","15054.98.0","null","null","","<p style=""font-size: 48px;"">+</p>","4","Filler","",""
"","","","","","sentence","7754","html-keyboard-response","104","190930","0.0-6.0-1.17","60","4","2022-11-17 12:22:35","fd252370c17a9971d68c1d4354a03c2e","","Mozilla/5.0 (X11; CrOS x86_64 15054.98.0) AppleWebKit/537.36 (KHTML, like Gecko) Chrome/106.0.0.0 Safari/537.36","WebKit","Chrome","106.0.0.0","ChromeOS","15054.98.0","1200"," ","","A towel was placed on the TV","4","Filler","",""
"","","","","","fixation","7754","html-keyboard-response","105","191445","0.0-6.0-2.17","60","4","2022-11-17 12:22:35","fd252370c17a9971d68c1d4354a03c2e","","Mozilla/5.0 (X11; CrOS x86_64 15054.98.0) AppleWebKit/537.36 (KHTML, like Gecko) Chrome/106.0.0.0 Safari/537.36","WebKit","Chrome","106.0.0.0","ChromeOS","15054.98.0","null","null","","<p style=""font-size: 48px;"">+</p>","4","Filler","",""
"","","","","","picture","7754","image-keyboard-response","106","192128","0.0-6.0-3.17","60","4","2022-11-17 12:22:35","fd252370c17a9971d68c1d4354a03c2e","","Mozilla/5.0 (X11; CrOS x86_64 15054.98.0) AppleWebKit/537.36 (KHTML, like Gecko) Chrome/106.0.0.0 Safari/537.36","WebKit","Chrome","106.0.0.0","ChromeOS","15054.98.0","622","n","","pencil.jpg","4","Filler","true",""
"","","","","","fixation","7754","html-keyboard-response","107","193139","0.0-6.0-0.18","60","4","2022-11-17 12:22:35","fd252370c17a9971d68c1d4354a03c2e","","Mozilla/5.0 (X11; CrOS x86_64 15054.98.0) AppleWebKit/537.36 (KHTML, like Gecko) Chrome/106.0.0.0 Safari/537.36","WebKit","Chrome","106.0.0.0","ChromeOS","15054.98.0","null","null","","<p style=""font-size: 48px;"">+</p>","4","Filler","",""
"","","","","","sentence","7754","html-keyboard-response","108","193805","0.0-6.0-1.18","60","4","2022-11-17 12:22:35","fd252370c17a9971d68c1d4354a03c2e","","Mozilla/5.0 (X11; CrOS x86_64 15054.98.0) AppleWebKit/537.36 (KHTML, like Gecko) Chrome/106.0.0.0 Safari/537.36","WebKit","Chrome","106.0.0.0","ChromeOS","15054.98.0","654"," ","","A police officer is talking on the phone","4","Filler","",""
"","","","","","fixation","7754","html-keyboard-response","109","194315","0.0-6.0-2.18","60","4","2022-11-17 12:22:35","fd252370c17a9971d68c1d4354a03c2e","","Mozilla/5.0 (X11; CrOS x86_64 15054.98.0) AppleWebKit/537.36 (KHTML, like Gecko) Chrome/106.0.0.0 Safari/537.36","WebKit","Chrome","106.0.0.0","ChromeOS","15054.98.0","null","null","","<p style=""font-size: 48px;"">+</p>","4","Filler","",""
"","","","","","picture","7754","image-keyboard-response","110","195015","0.0-6.0-3.18","60","4","2022-11-17 12:22:35","fd252370c17a9971d68c1d4354a03c2e","","Mozilla/5.0 (X11; CrOS x86_64 15054.98.0) AppleWebKit/537.36 (KHTML, like Gecko) Chrome/106.0.0.0 Safari/537.36","WebKit","Chrome","106.0.0.0","ChromeOS","15054.98.0","684","n","","tissuebox.jpg","4","Filler","true",""
"","","","","","fixation","7754","html-keyboard-response","111","196029","0.0-6.0-0.19","60","4","2022-11-17 12:22:35","fd252370c17a9971d68c1d4354a03c2e","","Mozilla/5.0 (X11; CrOS x86_64 15054.98.0) AppleWebKit/537.36 (KHTML, like Gecko) Chrome/106.0.0.0 Safari/537.36","WebKit","Chrome","106.0.0.0","ChromeOS","15054.98.0","null","null","","<p style=""font-size: 48px;"">+</p>","4","Heavy-Contradictory","",""
"","","","","","sentence","7754","html-keyboard-response","112","197216","0.0-6.0-1.19","60","4","2022-11-17 12:22:35","fd252370c17a9971d68c1d4354a03c2e","","Mozilla/5.0 (X11; CrOS x86_64 15054.98.0) AppleWebKit/537.36 (KHTML, like Gecko) Chrome/106.0.0.0 Safari/537.36","WebKit","Chrome","106.0.0.0","ChromeOS","15054.98.0","1174"," ","","A bowling ball dropped and touched a piece of cake","4","Heavy-Contradictory","",""
"","","","","","fixation","7754","html-keyboard-response","113","197730","0.0-6.0-2.19","60","4","2022-11-17 12:22:35","fd252370c17a9971d68c1d4354a03c2e","","Mozilla/5.0 (X11; CrOS x86_64 15054.98.0) AppleWebKit/537.36 (KHTML, like Gecko) Chrome/106.0.0.0 Safari/537.36","WebKit","Chrome","106.0.0.0","ChromeOS","15054.98.0","null","null","","<p style=""font-size: 48px;"">+</p>","4","Heavy-Contradictory","",""
"","","","","","picture","7754","image-keyboard-response","114","198490","0.0-6.0-3.19","60","4","2022-11-17 12:22:35","fd252370c17a9971d68c1d4354a03c2e","","Mozilla/5.0 (X11; CrOS x86_64 15054.98.0) AppleWebKit/537.36 (KHTML, like Gecko) Chrome/106.0.0.0 Safari/537.36","WebKit","Chrome","106.0.0.0","ChromeOS","15054.98.0","744","s","","cakeS.jpg","4","Heavy-Contradictory","true",""
"","","","","","fixation","7754","html-keyboard-response","115","199506","0.0-6.0-0.20","60","4","2022-11-17 12:22:35","fd252370c17a9971d68c1d4354a03c2e","","Mozilla/5.0 (X11; CrOS x86_64 15054.98.0) AppleWebKit/537.36 (KHTML, like Gecko) Chrome/106.0.0.0 Safari/537.36","WebKit","Chrome","106.0.0.0","ChromeOS","15054.98.0","null","null","","<p style=""font-size: 48px;"">+</p>","4","Heavy-Contradictory","",""
"","","","","","sentence","7754","html-keyboard-response","116","201112","0.0-6.0-1.20","60","4","2022-11-17 12:22:35","fd252370c17a9971d68c1d4354a03c2e","","Mozilla/5.0 (X11; CrOS x86_64 15054.98.0) AppleWebKit/537.36 (KHTML, like Gecko) Chrome/106.0.0.0 Safari/537.36","WebKit","Chrome","106.0.0.0","ChromeOS","15054.98.0","1591"," ","","A bowling ball dropped and touched a porcelain figure","4","Heavy-Contradictory","",""
"","","","","","fixation","7754","html-keyboard-response","117","201626","0.0-6.0-2.20","60","4","2022-11-17 12:22:35","fd252370c17a9971d68c1d4354a03c2e","","Mozilla/5.0 (X11; CrOS x86_64 15054.98.0) AppleWebKit/537.36 (KHTML, like Gecko) Chrome/106.0.0.0 Safari/537.36","WebKit","Chrome","106.0.0.0","ChromeOS","15054.98.0","null","null","","<p style=""font-size: 48px;"">+</p>","4","Heavy-Contradictory","",""
"","","","","","picture","7754","image-keyboard-response","118","202264","0.0-6.0-3.20","60","4","2022-11-17 12:22:35","fd252370c17a9971d68c1d4354a03c2e","","Mozilla/5.0 (X11; CrOS x86_64 15054.98.0) AppleWebKit/537.36 (KHTML, like Gecko) Chrome/106.0.0.0 Safari/537.36","WebKit","Chrome","106.0.0.0","ChromeOS","15054.98.0","618","s","","figureS.jpg","4","Heavy-Contradictory","true",""
"","","","","","fixation","7754","html-keyboard-response","119","203279","0.0-6.0-0.21","60","4","2022-11-17 12:22:35","fd252370c17a9971d68c1d4354a03c2e","","Mozilla/5.0 (X11; CrOS x86_64 15054.98.0) AppleWebKit/537.36 (KHTML, like Gecko) Chrome/106.0.0.0 Safari/537.36","WebKit","Chrome","106.0.0.0","ChromeOS","15054.98.0","null","null","","<p style=""font-size: 48px;"">+</p>","4","Light-Contradictory","",""
"","","","","","sentence","7754","html-keyboard-response","120","205110","0.0-6.0-1.21","60","4","2022-11-17 12:22:35","fd252370c17a9971d68c1d4354a03c2e","","Mozilla/5.0 (X11; CrOS x86_64 15054.98.0) AppleWebKit/537.36 (KHTML, like Gecko) Chrome/106.0.0.0 Safari/537.36","WebKit","Chrome","106.0.0.0","ChromeOS","15054.98.0","1815"," ","","A balloon dropped and smashed a chocolate muffin","4","Light-Contradictory","",""
"","","","","","fixation","7754","html-keyboard-response","121","205625","0.0-6.0-2.21","60","4","2022-11-17 12:22:35","fd252370c17a9971d68c1d4354a03c2e","","Mozilla/5.0 (X11; CrOS x86_64 15054.98.0) AppleWebKit/537.36 (KHTML, like Gecko) Chrome/106.0.0.0 Safari/537.36","WebKit","Chrome","106.0.0.0","ChromeOS","15054.98.0","null","null","","<p style=""font-size: 48px;"">+</p>","4","Light-Contradictory","",""
"","","","","","picture","7754","image-keyboard-response","122","206204","0.0-6.0-3.21","60","4","2022-11-17 12:22:35","fd252370c17a9971d68c1d4354a03c2e","","Mozilla/5.0 (X11; CrOS x86_64 15054.98.0) AppleWebKit/537.36 (KHTML, like Gecko) Chrome/106.0.0.0 Safari/537.36","WebKit","Chrome","106.0.0.0","ChromeOS","15054.98.0","562","s","","muffinS.jpg","4","Light-Contradictory","true",""
"","","","","","fixation","7754","html-keyboard-response","123","207220","0.0-6.0-0.22","60","4","2022-11-17 12:22:35","fd252370c17a9971d68c1d4354a03c2e","","Mozilla/5.0 (X11; CrOS x86_64 15054.98.0) AppleWebKit/537.36 (KHTML, like Gecko) Chrome/106.0.0.0 Safari/537.36","WebKit","Chrome","106.0.0.0","ChromeOS","15054.98.0","null","null","","<p style=""font-size: 48px;"">+</p>","4","Light-Contradictory","",""
"","","","","","sentence","7754","html-keyboard-response","124","208659","0.0-6.0-1.22","60","4","2022-11-17 12:22:35","fd252370c17a9971d68c1d4354a03c2e","","Mozilla/5.0 (X11; CrOS x86_64 15054.98.0) AppleWebKit/537.36 (KHTML, like Gecko) Chrome/106.0.0.0 Safari/537.36","WebKit","Chrome","106.0.0.0","ChromeOS","15054.98.0","1422"," ","","A balloon dropped and smashed a donut","4","Light-Contradictory","",""
"","","","","","fixation","7754","html-keyboard-response","125","209174","0.0-6.0-2.22","60","4","2022-11-17 12:22:35","fd252370c17a9971d68c1d4354a03c2e","","Mozilla/5.0 (X11; CrOS x86_64 15054.98.0) AppleWebKit/537.36 (KHTML, like Gecko) Chrome/106.0.0.0 Safari/537.36","WebKit","Chrome","106.0.0.0","ChromeOS","15054.98.0","null","null","","<p style=""font-size: 48px;"">+</p>","4","Light-Contradictory","",""
"","","","","","picture","7754","image-keyboard-response","126","209751","0.0-6.0-3.22","60","4","2022-11-17 12:22:35","fd252370c17a9971d68c1d4354a03c2e","","Mozilla/5.0 (X11; CrOS x86_64 15054.98.0) AppleWebKit/537.36 (KHTML, like Gecko) Chrome/106.0.0.0 Safari/537.36","WebKit","Chrome","106.0.0.0","ChromeOS","15054.98.0","558","s","","donutS.jpg","4","Light-Contradictory","true",""
"","","","","","fixation","7754","html-keyboard-response","127","210768","0.0-6.0-0.23","60","4","2022-11-17 12:22:35","fd252370c17a9971d68c1d4354a03c2e","","Mozilla/5.0 (X11; CrOS x86_64 15054.98.0) AppleWebKit/537.36 (KHTML, like Gecko) Chrome/106.0.0.0 Safari/537.36","WebKit","Chrome","106.0.0.0","ChromeOS","15054.98.0","null","null","","<p style=""font-size: 48px;"">+</p>","4","Filler","",""
"","","","","","sentence","7754","html-keyboard-response","128","212237","0.0-6.0-1.23","60","4","2022-11-17 12:22:35","fd252370c17a9971d68c1d4354a03c2e","","Mozilla/5.0 (X11; CrOS x86_64 15054.98.0) AppleWebKit/537.36 (KHTML, like Gecko) Chrome/106.0.0.0 Safari/537.36","WebKit","Chrome","106.0.0.0","ChromeOS","15054.98.0","1463"," ","","A nurse is taking a syringe","4","Filler","",""
"","","","","","fixation","7754","html-keyboard-response","129","212753","0.0-6.0-2.23","60","4","2022-11-17 12:22:35","fd252370c17a9971d68c1d4354a03c2e","","Mozilla/5.0 (X11; CrOS x86_64 15054.98.0) AppleWebKit/537.36 (KHTML, like Gecko) Chrome/106.0.0.0 Safari/537.36","WebKit","Chrome","106.0.0.0","ChromeOS","15054.98.0","null","null","","<p style=""font-size: 48px;"">+</p>","4","Filler","",""
"","","","","","picture","7754","image-keyboard-response","130","213360","0.0-6.0-3.23","60","4","2022-11-17 12:22:35","fd252370c17a9971d68c1d4354a03c2e","","Mozilla/5.0 (X11; CrOS x86_64 15054.98.0) AppleWebKit/537.36 (KHTML, like Gecko) Chrome/106.0.0.0 Safari/537.36","WebKit","Chrome","106.0.0.0","ChromeOS","15054.98.0","588","n","","headphones.jpg","4","Filler","true",""
"","","","","","fixation","7754","html-keyboard-response","131","214376","0.0-6.0-0.24","60","4","2022-11-17 12:22:35","fd252370c17a9971d68c1d4354a03c2e","","Mozilla/5.0 (X11; CrOS x86_64 15054.98.0) AppleWebKit/537.36 (KHTML, like Gecko) Chrome/106.0.0.0 Safari/537.36","WebKit","Chrome","106.0.0.0","ChromeOS","15054.98.0","null","null","","<p style=""font-size: 48px;"">+</p>","4","Filler","",""
"","","","","","sentence","7754","html-keyboard-response","132","215327","0.0-6.0-1.24","60","4","2022-11-17 12:22:35","fd252370c17a9971d68c1d4354a03c2e","","Mozilla/5.0 (X11; CrOS x86_64 15054.98.0) AppleWebKit/537.36 (KHTML, like Gecko) Chrome/106.0.0.0 Safari/537.36","WebKit","Chrome","106.0.0.0","ChromeOS","15054.98.0","935"," ","","A parrot is eating an apple","4","Filler","",""
"","","","","","fixation","7754","html-keyboard-response","133","215843","0.0-6.0-2.24","60","4","2022-11-17 12:22:35","fd252370c17a9971d68c1d4354a03c2e","","Mozilla/5.0 (X11; CrOS x86_64 15054.98.0) AppleWebKit/537.36 (KHTML, like Gecko) Chrome/106.0.0.0 Safari/537.36","WebKit","Chrome","106.0.0.0","ChromeOS","15054.98.0","null","null","","<p style=""font-size: 48px;"">+</p>","4","Filler","",""
"","","","","","picture","7754","image-keyboard-response","134","216492","0.0-6.0-3.24","60","4","2022-11-17 12:22:35","fd252370c17a9971d68c1d4354a03c2e","","Mozilla/5.0 (X11; CrOS x86_64 15054.98.0) AppleWebKit/537.36 (KHTML, like Gecko) Chrome/106.0.0.0 Safari/537.36","WebKit","Chrome","106.0.0.0","ChromeOS","15054.98.0","631","n","","shirt.jpg","4","Filler","true",""
"","","","","","fixation","7754","html-keyboard-response","135","217510","0.0-6.0-0.25","60","4","2022-11-17 12:22:35","fd252370c17a9971d68c1d4354a03c2e","","Mozilla/5.0 (X11; CrOS x86_64 15054.98.0) AppleWebKit/537.36 (KHTML, like Gecko) Chrome/106.0.0.0 Safari/537.36","WebKit","Chrome","106.0.0.0","ChromeOS","15054.98.0","null","null","","<p style=""font-size: 48px;"">+</p>","4","Filler","",""
"","","","","","sentence","7754","html-keyboard-response","136","218458","0.0-6.0-1.25","60","4","2022-11-17 12:22:35","fd252370c17a9971d68c1d4354a03c2e","","Mozilla/5.0 (X11; CrOS x86_64 15054.98.0) AppleWebKit/537.36 (KHTML, like Gecko) Chrome/106.0.0.0 Safari/537.36","WebKit","Chrome","106.0.0.0","ChromeOS","15054.98.0","933"," ","","A woman is paying with a debit card","4","Filler","",""
"","","","","","fixation","7754","html-keyboard-response","137","218973","0.0-6.0-2.25","60","4","2022-11-17 12:22:35","fd252370c17a9971d68c1d4354a03c2e","","Mozilla/5.0 (X11; CrOS x86_64 15054.98.0) AppleWebKit/537.36 (KHTML, like Gecko) Chrome/106.0.0.0 Safari/537.36","WebKit","Chrome","106.0.0.0","ChromeOS","15054.98.0","null","null","","<p style=""font-size: 48px;"">+</p>","4","Filler","",""
"","","","","","picture","7754","image-keyboard-response","138","219490","0.0-6.0-3.25","60","4","2022-11-17 12:22:35","fd252370c17a9971d68c1d4354a03c2e","","Mozilla/5.0 (X11; CrOS x86_64 15054.98.0) AppleWebKit/537.36 (KHTML, like Gecko) Chrome/106.0.0.0 Safari/537.36","WebKit","Chrome","106.0.0.0","ChromeOS","15054.98.0","498","n","","papercup.jpg","4","Filler","true",""
"","","","","","fixation","7754","html-keyboard-response","139","220504","0.0-6.0-0.26","60","4","2022-11-17 12:22:35","fd252370c17a9971d68c1d4354a03c2e","","Mozilla/5.0 (X11; CrOS x86_64 15054.98.0) AppleWebKit/537.36 (KHTML, like Gecko) Chrome/106.0.0.0 Safari/537.36","WebKit","Chrome","106.0.0.0","ChromeOS","15054.98.0","null","null","","<p style=""font-size: 48px;"">+</p>","4","Filler","",""
"","","","","","sentence","7754","html-keyboard-response","140","221702","0.0-6.0-1.26","60","4","2022-11-17 12:22:35","fd252370c17a9971d68c1d4354a03c2e","","Mozilla/5.0 (X11; CrOS x86_64 15054.98.0) AppleWebKit/537.36 (KHTML, like Gecko) Chrome/106.0.0.0 Safari/537.36","WebKit","Chrome","106.0.0.0","ChromeOS","15054.98.0","1182"," ","","A toothbrush was placed on the sponge","4","Filler","",""
"","","","","","fixation","7754","html-keyboard-response","141","222209","0.0-6.0-2.26","60","4","2022-11-17 12:22:35","fd252370c17a9971d68c1d4354a03c2e","","Mozilla/5.0 (X11; CrOS x86_64 15054.98.0) AppleWebKit/537.36 (KHTML, like Gecko) Chrome/106.0.0.0 Safari/537.36","WebKit","Chrome","106.0.0.0","ChromeOS","15054.98.0","null","null","","<p style=""font-size: 48px;"">+</p>","4","Filler","",""
"","","","","","picture","7754","image-keyboard-response","142","222906","0.0-6.0-3.26","60","4","2022-11-17 12:22:35","fd252370c17a9971d68c1d4354a03c2e","","Mozilla/5.0 (X11; CrOS x86_64 15054.98.0) AppleWebKit/537.36 (KHTML, like Gecko) Chrome/106.0.0.0 Safari/537.36","WebKit","Chrome","106.0.0.0","ChromeOS","15054.98.0","681","s","","sponge.jpg","4","Filler","true",""
"","","","","","fixation","7754","html-keyboard-response","143","223922","0.0-6.0-0.27","60","4","2022-11-17 12:22:35","fd252370c17a9971d68c1d4354a03c2e","","Mozilla/5.0 (X11; CrOS x86_64 15054.98.0) AppleWebKit/537.36 (KHTML, like Gecko) Chrome/106.0.0.0 Safari/537.36","WebKit","Chrome","106.0.0.0","ChromeOS","15054.98.0","null","null","","<p style=""font-size: 48px;"">+</p>","4","Light-Matched","",""
"","","","","","sentence","7754","html-keyboard-response","144","226200","0.0-6.0-1.27","60","4","2022-11-17 12:22:35","fd252370c17a9971d68c1d4354a03c2e","","Mozilla/5.0 (X11; CrOS x86_64 15054.98.0) AppleWebKit/537.36 (KHTML, like Gecko) Chrome/106.0.0.0 Safari/537.36","WebKit","Chrome","106.0.0.0","ChromeOS","15054.98.0","2266"," ","","A balloon dropped and touched an egg flan","4","Light-Matched","",""
"","","","","","fixation","7754","html-keyboard-response","145","226717","0.0-6.0-2.27","60","4","2022-11-17 12:22:35","fd252370c17a9971d68c1d4354a03c2e","","Mozilla/5.0 (X11; CrOS x86_64 15054.98.0) AppleWebKit/537.36 (KHTML, like Gecko) Chrome/106.0.0.0 Safari/537.36","WebKit","Chrome","106.0.0.0","ChromeOS","15054.98.0","null","null","","<p style=""font-size: 48px;"">+</p>","4","Light-Matched","",""
"","","","","","picture","7754","image-keyboard-response","146","227995","0.0-6.0-3.27","60","4","2022-11-17 12:22:35","fd252370c17a9971d68c1d4354a03c2e","","Mozilla/5.0 (X11; CrOS x86_64 15054.98.0) AppleWebKit/537.36 (KHTML, like Gecko) Chrome/106.0.0.0 Safari/537.36","WebKit","Chrome","106.0.0.0","ChromeOS","15054.98.0","1261","n","","eggflanS.jpg","4","Light-Matched","false",""
"","","","","","fixation","7754","html-keyboard-response","147","229013","0.0-6.0-0.28","60","4","2022-11-17 12:22:35","fd252370c17a9971d68c1d4354a03c2e","","Mozilla/5.0 (X11; CrOS x86_64 15054.98.0) AppleWebKit/537.36 (KHTML, like Gecko) Chrome/106.0.0.0 Safari/537.36","WebKit","Chrome","106.0.0.0","ChromeOS","15054.98.0","null","null","","<p style=""font-size: 48px;"">+</p>","4","Filler","",""
"","","","","","sentence","7754","html-keyboard-response","148","232700","0.0-6.0-1.28","60","4","2022-11-17 12:22:35","fd252370c17a9971d68c1d4354a03c2e","","Mozilla/5.0 (X11; CrOS x86_64 15054.98.0) AppleWebKit/537.36 (KHTML, like Gecko) Chrome/106.0.0.0 Safari/537.36","WebKit","Chrome","106.0.0.0","ChromeOS","15054.98.0","3669"," ","","A woman is taking money out of a wallet","4","Filler","",""
"","","","","","fixation","7754","html-keyboard-response","149","233212","0.0-6.0-2.28","60","4","2022-11-17 12:22:35","fd252370c17a9971d68c1d4354a03c2e","","Mozilla/5.0 (X11; CrOS x86_64 15054.98.0) AppleWebKit/537.36 (KHTML, like Gecko) Chrome/106.0.0.0 Safari/537.36","WebKit","Chrome","106.0.0.0","ChromeOS","15054.98.0","null","null","","<p style=""font-size: 48px;"">+</p>","4","Filler","",""
"","","","","","picture","7754","image-keyboard-response","150","233938","0.0-6.0-3.28","60","4","2022-11-17 12:22:35","fd252370c17a9971d68c1d4354a03c2e","","Mozilla/5.0 (X11; CrOS x86_64 15054.98.0) AppleWebKit/537.36 (KHTML, like Gecko) Chrome/106.0.0.0 Safari/537.36","WebKit","Chrome","106.0.0.0","ChromeOS","15054.98.0","706","n","","coconut.jpg","4","Filler","true",""
"","","","","","fixation","7754","html-keyboard-response","151","234958","0.0-6.0-0.29","60","4","2022-11-17 12:22:35","fd252370c17a9971d68c1d4354a03c2e","","Mozilla/5.0 (X11; CrOS x86_64 15054.98.0) AppleWebKit/537.36 (KHTML, like Gecko) Chrome/106.0.0.0 Safari/537.36","WebKit","Chrome","106.0.0.0","ChromeOS","15054.98.0","null","null","","<p style=""font-size: 48px;"">+</p>","4","Filler","",""
"","","","","","sentence","7754","html-keyboard-response","152","235988","0.0-6.0-1.29","60","4","2022-11-17 12:22:35","fd252370c17a9971d68c1d4354a03c2e","","Mozilla/5.0 (X11; CrOS x86_64 15054.98.0) AppleWebKit/537.36 (KHTML, like Gecko) Chrome/106.0.0.0 Safari/537.36","WebKit","Chrome","106.0.0.0","ChromeOS","15054.98.0","1013"," ","","A cushion was placed on the magazine","4","Filler","",""
"","","","","","fixation","7754","html-keyboard-response","153","236506","0.0-6.0-2.29","60","4","2022-11-17 12:22:35","fd252370c17a9971d68c1d4354a03c2e","","Mozilla/5.0 (X11; CrOS x86_64 15054.98.0) AppleWebKit/537.36 (KHTML, like Gecko) Chrome/106.0.0.0 Safari/537.36","WebKit","Chrome","106.0.0.0","ChromeOS","15054.98.0","null","null","","<p style=""font-size: 48px;"">+</p>","4","Filler","",""
"","","","","","picture","7754","image-keyboard-response","154","237167","0.0-6.0-3.29","60","4","2022-11-17 12:22:35","fd252370c17a9971d68c1d4354a03c2e","","Mozilla/5.0 (X11; CrOS x86_64 15054.98.0) AppleWebKit/537.36 (KHTML, like Gecko) Chrome/106.0.0.0 Safari/537.36","WebKit","Chrome","106.0.0.0","ChromeOS","15054.98.0","639","n","","box.jpg","4","Filler","true",""
"","","","","","fixation","7754","html-keyboard-response","155","238186","0.0-6.0-0.30","60","4","2022-11-17 12:22:35","fd252370c17a9971d68c1d4354a03c2e","","Mozilla/5.0 (X11; CrOS x86_64 15054.98.0) AppleWebKit/537.36 (KHTML, like Gecko) Chrome/106.0.0.0 Safari/537.36","WebKit","Chrome","106.0.0.0","ChromeOS","15054.98.0","null","null","","<p style=""font-size: 48px;"">+</p>","4","Filler","",""
"","","","","","sentence","7754","html-keyboard-response","156","240819","0.0-6.0-1.30","60","4","2022-11-17 12:22:35","fd252370c17a9971d68c1d4354a03c2e","","Mozilla/5.0 (X11; CrOS x86_64 15054.98.0) AppleWebKit/537.36 (KHTML, like Gecko) Chrome/106.0.0.0 Safari/537.36","WebKit","Chrome","106.0.0.0","ChromeOS","15054.98.0","2613"," ","","A photographer is taking a photo of a lion","4","Filler","",""
"","","","","","fixation","7754","html-keyboard-response","157","241337","0.0-6.0-2.30","60","4","2022-11-17 12:22:35","fd252370c17a9971d68c1d4354a03c2e","","Mozilla/5.0 (X11; CrOS x86_64 15054.98.0) AppleWebKit/537.36 (KHTML, like Gecko) Chrome/106.0.0.0 Safari/537.36","WebKit","Chrome","106.0.0.0","ChromeOS","15054.98.0","null","null","","<p style=""font-size: 48px;"">+</p>","4","Filler","",""
"","","","","","picture","7754","image-keyboard-response","158","241973","0.0-6.0-3.30","60","4","2022-11-17 12:22:35","fd252370c17a9971d68c1d4354a03c2e","","Mozilla/5.0 (X11; CrOS x86_64 15054.98.0) AppleWebKit/537.36 (KHTML, like Gecko) Chrome/106.0.0.0 Safari/537.36","WebKit","Chrome","106.0.0.0","ChromeOS","15054.98.0","615","s","","lion.jpg","4","Filler","true",""
"","","","","","fixation","7754","html-keyboard-response","159","242984","0.0-6.0-0.31","60","4","2022-11-17 12:22:35","fd252370c17a9971d68c1d4354a03c2e","","Mozilla/5.0 (X11; CrOS x86_64 15054.98.0) AppleWebKit/537.36 (KHTML, like Gecko) Chrome/106.0.0.0 Safari/537.36","WebKit","Chrome","106.0.0.0","ChromeOS","15054.98.0","null","null","","<p style=""font-size: 48px;"">+</p>","4","Filler","",""
"","","","","","sentence","7754","html-keyboard-response","160","244029","0.0-6.0-1.31","60","4","2022-11-17 12:22:35","fd252370c17a9971d68c1d4354a03c2e","","Mozilla/5.0 (X11; CrOS x86_64 15054.98.0) AppleWebKit/537.36 (KHTML, like Gecko) Chrome/106.0.0.0 Safari/537.36","WebKit","Chrome","106.0.0.0","ChromeOS","15054.98.0","1024"," ","","An astronaut is putting on a space suit","4","Filler","",""
"","","","","","fixation","7754","html-keyboard-response","161","244547","0.0-6.0-2.31","60","4","2022-11-17 12:22:35","fd252370c17a9971d68c1d4354a03c2e","","Mozilla/5.0 (X11; CrOS x86_64 15054.98.0) AppleWebKit/537.36 (KHTML, like Gecko) Chrome/106.0.0.0 Safari/537.36","WebKit","Chrome","106.0.0.0","ChromeOS","15054.98.0","null","null","","<p style=""font-size: 48px;"">+</p>","4","Filler","",""
"","","","","","picture","7754","image-keyboard-response","162","244967","0.0-6.0-3.31","60","4","2022-11-17 12:22:35","fd252370c17a9971d68c1d4354a03c2e","","Mozilla/5.0 (X11; CrOS x86_64 15054.98.0) AppleWebKit/537.36 (KHTML, like Gecko) Chrome/106.0.0.0 Safari/537.36","WebKit","Chrome","106.0.0.0","ChromeOS","15054.98.0","396","s","","spacesuit.jpg","4","Filler","true",""
"","","","","","fixation","7754","html-keyboard-response","163","245989","0.0-6.0-0.32","60","4","2022-11-17 12:22:35","fd252370c17a9971d68c1d4354a03c2e","","Mozilla/5.0 (X11; CrOS x86_64 15054.98.0) AppleWebKit/537.36 (KHTML, like Gecko) Chrome/106.0.0.0 Safari/537.36","WebKit","Chrome","106.0.0.0","ChromeOS","15054.98.0","null","null","","<p style=""font-size: 48px;"">+</p>","4","Filler","",""
"","","","","","sentence","7754","html-keyboard-response","164","246832","0.0-6.0-1.32","60","4","2022-11-17 12:22:35","fd252370c17a9971d68c1d4354a03c2e","","Mozilla/5.0 (X11; CrOS x86_64 15054.98.0) AppleWebKit/537.36 (KHTML, like Gecko) Chrome/106.0.0.0 Safari/537.36","WebKit","Chrome","106.0.0.0","ChromeOS","15054.98.0","823"," ","","A postman is driving a car","4","Filler","",""
"","","","","","fixation","7754","html-keyboard-response","165","247351","0.0-6.0-2.32","60","4","2022-11-17 12:22:35","fd252370c17a9971d68c1d4354a03c2e","","Mozilla/5.0 (X11; CrOS x86_64 15054.98.0) AppleWebKit/537.36 (KHTML, like Gecko) Chrome/106.0.0.0 Safari/537.36","WebKit","Chrome","106.0.0.0","ChromeOS","15054.98.0","null","null","","<p style=""font-size: 48px;"">+</p>","4","Filler","",""
"","","","","","picture","7754","image-keyboard-response","166","248218","0.0-6.0-3.32","60","4","2022-11-17 12:22:35","fd252370c17a9971d68c1d4354a03c2e","","Mozilla/5.0 (X11; CrOS x86_64 15054.98.0) AppleWebKit/537.36 (KHTML, like Gecko) Chrome/106.0.0.0 Safari/537.36","WebKit","Chrome","106.0.0.0","ChromeOS","15054.98.0","847","s","","car.jpg","4","Filler","true",""
"","","","","","fixation","7754","html-keyboard-response","167","249235","0.0-6.0-0.33","60","4","2022-11-17 12:22:35","fd252370c17a9971d68c1d4354a03c2e","","Mozilla/5.0 (X11; CrOS x86_64 15054.98.0) AppleWebKit/537.36 (KHTML, like Gecko) Chrome/106.0.0.0 Safari/537.36","WebKit","Chrome","106.0.0.0","ChromeOS","15054.98.0","null","null","","<p style=""font-size: 48px;"">+</p>","4","Filler","",""
"","","","","","sentence","7754","html-keyboard-response","168","249972","0.0-6.0-1.33","60","4","2022-11-17 12:22:35","fd252370c17a9971d68c1d4354a03c2e","","Mozilla/5.0 (X11; CrOS x86_64 15054.98.0) AppleWebKit/537.36 (KHTML, like Gecko) Chrome/106.0.0.0 Safari/537.36","WebKit","Chrome","106.0.0.0","ChromeOS","15054.98.0","718"," ","","A remote was placed on the rug","4","Filler","",""
"","","","","","fixation","7754","html-keyboard-response","169","250489","0.0-6.0-2.33","60","4","2022-11-17 12:22:35","fd252370c17a9971d68c1d4354a03c2e","","Mozilla/5.0 (X11; CrOS x86_64 15054.98.0) AppleWebKit/537.36 (KHTML, like Gecko) Chrome/106.0.0.0 Safari/537.36","WebKit","Chrome","106.0.0.0","ChromeOS","15054.98.0","null","null","","<p style=""font-size: 48px;"">+</p>","4","Filler","",""
"","","","","","picture","7754","image-keyboard-response","170","251117","0.0-6.0-3.33","60","4","2022-11-17 12:22:35","fd252370c17a9971d68c1d4354a03c2e","","Mozilla/5.0 (X11; CrOS x86_64 15054.98.0) AppleWebKit/537.36 (KHTML, like Gecko) Chrome/106.0.0.0 Safari/537.36","WebKit","Chrome","106.0.0.0","ChromeOS","15054.98.0","613","n","","CD.jpg","4","Filler","true",""
"","","","","","fixation","7754","html-keyboard-response","171","252135","0.0-6.0-0.34","60","4","2022-11-17 12:22:35","fd252370c17a9971d68c1d4354a03c2e","","Mozilla/5.0 (X11; CrOS x86_64 15054.98.0) AppleWebKit/537.36 (KHTML, like Gecko) Chrome/106.0.0.0 Safari/537.36","WebKit","Chrome","106.0.0.0","ChromeOS","15054.98.0","null","null","","<p style=""font-size: 48px;"">+</p>","4","Filler","",""
"","","","","","sentence","7754","html-keyboard-response","172","253052","0.0-6.0-1.34","60","4","2022-11-17 12:22:35","fd252370c17a9971d68c1d4354a03c2e","","Mozilla/5.0 (X11; CrOS x86_64 15054.98.0) AppleWebKit/537.36 (KHTML, like Gecko) Chrome/106.0.0.0 Safari/537.36","WebKit","Chrome","106.0.0.0","ChromeOS","15054.98.0","901"," ","","A president is writing in the notebook","4","Filler","",""
"","","","","","fixation","7754","html-keyboard-response","173","253574","0.0-6.0-2.34","60","4","2022-11-17 12:22:35","fd252370c17a9971d68c1d4354a03c2e","","Mozilla/5.0 (X11; CrOS x86_64 15054.98.0) AppleWebKit/537.36 (KHTML, like Gecko) Chrome/106.0.0.0 Safari/537.36","WebKit","Chrome","106.0.0.0","ChromeOS","15054.98.0","null","null","","<p style=""font-size: 48px;"">+</p>","4","Filler","",""
"","","","","","picture","7754","image-keyboard-response","174","254377","0.0-6.0-3.34","60","4","2022-11-17 12:22:35","fd252370c17a9971d68c1d4354a03c2e","","Mozilla/5.0 (X11; CrOS x86_64 15054.98.0) AppleWebKit/537.36 (KHTML, like Gecko) Chrome/106.0.0.0 Safari/537.36","WebKit","Chrome","106.0.0.0","ChromeOS","15054.98.0","784","n","","can.jpg","4","Filler","true",""
"","","","","","fixation","7754","html-keyboard-response","175","255399","0.0-6.0-0.35","60","4","2022-11-17 12:22:35","fd252370c17a9971d68c1d4354a03c2e","","Mozilla/5.0 (X11; CrOS x86_64 15054.98.0) AppleWebKit/537.36 (KHTML, like Gecko) Chrome/106.0.0.0 Safari/537.36","WebKit","Chrome","106.0.0.0","ChromeOS","15054.98.0","null","null","","<p style=""font-size: 48px;"">+</p>","4","Filler","",""
"","","","","","sentence","7754","html-keyboard-response","176","256085","0.0-6.0-1.35","60","4","2022-11-17 12:22:35","fd252370c17a9971d68c1d4354a03c2e","","Mozilla/5.0 (X11; CrOS x86_64 15054.98.0) AppleWebKit/537.36 (KHTML, like Gecko) Chrome/106.0.0.0 Safari/537.36","WebKit","Chrome","106.0.0.0","ChromeOS","15054.98.0","649"," ","","A hairdresser is taking scissors","4","Filler","",""
"","","","","","fixation","7754","html-keyboard-response","177","256604","0.0-6.0-2.35","60","4","2022-11-17 12:22:35","fd252370c17a9971d68c1d4354a03c2e","","Mozilla/5.0 (X11; CrOS x86_64 15054.98.0) AppleWebKit/537.36 (KHTML, like Gecko) Chrome/106.0.0.0 Safari/537.36","WebKit","Chrome","106.0.0.0","ChromeOS","15054.98.0","null","null","","<p style=""font-size: 48px;"">+</p>","4","Filler","",""
"","","","","","picture","7754","image-keyboard-response","178","257090","0.0-6.0-3.35","60","4","2022-11-17 12:22:35","fd252370c17a9971d68c1d4354a03c2e","","Mozilla/5.0 (X11; CrOS x86_64 15054.98.0) AppleWebKit/537.36 (KHTML, like Gecko) Chrome/106.0.0.0 Safari/537.36","WebKit","Chrome","106.0.0.0","ChromeOS","15054.98.0","464","n","","sock.jpg","4","Filler","true",""
"","","","","","fixation","7754","html-keyboard-response","179","258109","0.0-6.0-0.36","60","4","2022-11-17 12:22:35","fd252370c17a9971d68c1d4354a03c2e","","Mozilla/5.0 (X11; CrOS x86_64 15054.98.0) AppleWebKit/537.36 (KHTML, like Gecko) Chrome/106.0.0.0 Safari/537.36","WebKit","Chrome","106.0.0.0","ChromeOS","15054.98.0","null","null","","<p style=""font-size: 48px;"">+</p>","4","Heavy-Matched","",""
"","","","","","sentence","7754","html-keyboard-response","180","259180","0.0-6.0-1.36","60","4","2022-11-17 12:22:35","fd252370c17a9971d68c1d4354a03c2e","","Mozilla/5.0 (X11; CrOS x86_64 15054.98.0) AppleWebKit/537.36 (KHTML, like Gecko) Chrome/106.0.0.0 Safari/537.36","WebKit","Chrome","106.0.0.0","ChromeOS","15054.98.0","1054"," ","","A bowling ball  dropped and smashed a ceramic plate","4","Heavy-Matched","",""
"","","","","","fixation","7754","html-keyboard-response","181","259693","0.0-6.0-2.36","60","4","2022-11-17 12:22:35","fd252370c17a9971d68c1d4354a03c2e","","Mozilla/5.0 (X11; CrOS x86_64 15054.98.0) AppleWebKit/537.36 (KHTML, like Gecko) Chrome/106.0.0.0 Safari/537.36","WebKit","Chrome","106.0.0.0","ChromeOS","15054.98.0","null","null","","<p style=""font-size: 48px;"">+</p>","4","Heavy-Matched","",""
"","","","","","picture","7754","image-keyboard-response","182","260217","0.0-6.0-3.36","60","4","2022-11-17 12:22:35","fd252370c17a9971d68c1d4354a03c2e","","Mozilla/5.0 (X11; CrOS x86_64 15054.98.0) AppleWebKit/537.36 (KHTML, like Gecko) Chrome/106.0.0.0 Safari/537.36","WebKit","Chrome","106.0.0.0","ChromeOS","15054.98.0","509","s","","plateS.jpg","4","Heavy-Matched","true",""
"","","","","","fixation","7754","html-keyboard-response","183","261234","0.0-6.0-0.37","60","4","2022-11-17 12:22:35","fd252370c17a9971d68c1d4354a03c2e","","Mozilla/5.0 (X11; CrOS x86_64 15054.98.0) AppleWebKit/537.36 (KHTML, like Gecko) Chrome/106.0.0.0 Safari/537.36","WebKit","Chrome","106.0.0.0","ChromeOS","15054.98.0","null","null","","<p style=""font-size: 48px;"">+</p>","4","Filler","",""
"","","","","","sentence","7754","html-keyboard-response","184","261841","0.0-6.0-1.37","60","4","2022-11-17 12:22:35","fd252370c17a9971d68c1d4354a03c2e","","Mozilla/5.0 (X11; CrOS x86_64 15054.98.0) AppleWebKit/537.36 (KHTML, like Gecko) Chrome/106.0.0.0 Safari/537.36","WebKit","Chrome","106.0.0.0","ChromeOS","15054.98.0","589"," ","","A watch was placed on the laptop","4","Filler","",""
"","","","","","fixation","7754","html-keyboard-response","185","262354","0.0-6.0-2.37","60","4","2022-11-17 12:22:35","fd252370c17a9971d68c1d4354a03c2e","","Mozilla/5.0 (X11; CrOS x86_64 15054.98.0) AppleWebKit/537.36 (KHTML, like Gecko) Chrome/106.0.0.0 Safari/537.36","WebKit","Chrome","106.0.0.0","ChromeOS","15054.98.0","null","null","","<p style=""font-size: 48px;"">+</p>","4","Filler","",""
"","","","","","picture","7754","image-keyboard-response","186","263074","0.0-6.0-3.37","60","4","2022-11-17 12:22:35","fd252370c17a9971d68c1d4354a03c2e","","Mozilla/5.0 (X11; CrOS x86_64 15054.98.0) AppleWebKit/537.36 (KHTML, like Gecko) Chrome/106.0.0.0 Safari/537.36","WebKit","Chrome","106.0.0.0","ChromeOS","15054.98.0","698","n","","bow.jpg","4","Filler","true",""
"","","","","","fixation","7754","html-keyboard-response","187","264093","0.0-6.0-0.38","60","4","2022-11-17 12:22:35","fd252370c17a9971d68c1d4354a03c2e","","Mozilla/5.0 (X11; CrOS x86_64 15054.98.0) AppleWebKit/537.36 (KHTML, like Gecko) Chrome/106.0.0.0 Safari/537.36","WebKit","Chrome","106.0.0.0","ChromeOS","15054.98.0","null","null","","<p style=""font-size: 48px;"">+</p>","4","Heavy-Contradictory","",""
"","","","","","sentence","7754","html-keyboard-response","188","264849","0.0-6.0-1.38","60","4","2022-11-17 12:22:35","fd252370c17a9971d68c1d4354a03c2e","","Mozilla/5.0 (X11; CrOS x86_64 15054.98.0) AppleWebKit/537.36 (KHTML, like Gecko) Chrome/106.0.0.0 Safari/537.36","WebKit","Chrome","106.0.0.0","ChromeOS","15054.98.0","740"," ","","A bowling ball dropped and touched a TV","4","Heavy-Contradictory","",""
"","","","","","fixation","7754","html-keyboard-response","189","265367","0.0-6.0-2.38","60","4","2022-11-17 12:22:35","fd252370c17a9971d68c1d4354a03c2e","","Mozilla/5.0 (X11; CrOS x86_64 15054.98.0) AppleWebKit/537.36 (KHTML, like Gecko) Chrome/106.0.0.0 Safari/537.36","WebKit","Chrome","106.0.0.0","ChromeOS","15054.98.0","null","null","","<p style=""font-size: 48px;"">+</p>","4","Heavy-Contradictory","",""
"","","","","","picture","7754","image-keyboard-response","190","266254","0.0-6.0-3.38","60","4","2022-11-17 12:22:35","fd252370c17a9971d68c1d4354a03c2e","","Mozilla/5.0 (X11; CrOS x86_64 15054.98.0) AppleWebKit/537.36 (KHTML, like Gecko) Chrome/106.0.0.0 Safari/537.36","WebKit","Chrome","106.0.0.0","ChromeOS","15054.98.0","864","s","","tvS.jpg","4","Heavy-Contradictory","true",""
"","","","","","fixation","7754","html-keyboard-response","191","267273","0.0-6.0-0.39","60","4","2022-11-17 12:22:35","fd252370c17a9971d68c1d4354a03c2e","","Mozilla/5.0 (X11; CrOS x86_64 15054.98.0) AppleWebKit/537.36 (KHTML, like Gecko) Chrome/106.0.0.0 Safari/537.36","WebKit","Chrome","106.0.0.0","ChromeOS","15054.98.0","null","null","","<p style=""font-size: 48px;"">+</p>","4","Heavy-Matched","",""
"","","","","","sentence","7754","html-keyboard-response","192","268689","0.0-6.0-1.39","60","4","2022-11-17 12:22:35","fd252370c17a9971d68c1d4354a03c2e","","Mozilla/5.0 (X11; CrOS x86_64 15054.98.0) AppleWebKit/537.36 (KHTML, like Gecko) Chrome/106.0.0.0 Safari/537.36","WebKit","Chrome","106.0.0.0","ChromeOS","15054.98.0","1396"," ","","A bowling ball dropped and smashed a strawberry","4","Heavy-Matched","",""
"","","","","","fixation","7754","html-keyboard-response","193","269204","0.0-6.0-2.39","60","4","2022-11-17 12:22:35","fd252370c17a9971d68c1d4354a03c2e","","Mozilla/5.0 (X11; CrOS x86_64 15054.98.0) AppleWebKit/537.36 (KHTML, like Gecko) Chrome/106.0.0.0 Safari/537.36","WebKit","Chrome","106.0.0.0","ChromeOS","15054.98.0","null","null","","<p style=""font-size: 48px;"">+</p>","4","Heavy-Matched","",""
"","","","","","picture","7754","image-keyboard-response","194","270764","0.0-6.0-3.39","60","4","2022-11-17 12:22:35","fd252370c17a9971d68c1d4354a03c2e","","Mozilla/5.0 (X11; CrOS x86_64 15054.98.0) AppleWebKit/537.36 (KHTML, like Gecko) Chrome/106.0.0.0 Safari/537.36","WebKit","Chrome","106.0.0.0","ChromeOS","15054.98.0","1536","s","","strawberryS.jpg","4","Heavy-Matched","true",""
"","","","","","fixation","7754","html-keyboard-response","195","271783","0.0-6.0-0.40","60","4","2022-11-17 12:22:35","fd252370c17a9971d68c1d4354a03c2e","","Mozilla/5.0 (X11; CrOS x86_64 15054.98.0) AppleWebKit/537.36 (KHTML, like Gecko) Chrome/106.0.0.0 Safari/537.36","WebKit","Chrome","106.0.0.0","ChromeOS","15054.98.0","null","null","","<p style=""font-size: 48px;"">+</p>","4","Filler","",""
"","","","","","sentence","7754","html-keyboard-response","196","272393","0.0-6.0-1.40","60","4","2022-11-17 12:22:35","fd252370c17a9971d68c1d4354a03c2e","","Mozilla/5.0 (X11; CrOS x86_64 15054.98.0) AppleWebKit/537.36 (KHTML, like Gecko) Chrome/106.0.0.0 Safari/537.36","WebKit","Chrome","106.0.0.0","ChromeOS","15054.98.0","590"," ","","A horse is chewing hay","4","Filler","",""
"","","","","","fixation","7754","html-keyboard-response","197","272912","0.0-6.0-2.40","60","4","2022-11-17 12:22:35","fd252370c17a9971d68c1d4354a03c2e","","Mozilla/5.0 (X11; CrOS x86_64 15054.98.0) AppleWebKit/537.36 (KHTML, like Gecko) Chrome/106.0.0.0 Safari/537.36","WebKit","Chrome","106.0.0.0","ChromeOS","15054.98.0","null","null","","<p style=""font-size: 48px;"">+</p>","4","Filler","",""
"","","","","","picture","7754","image-keyboard-response","198","273461","0.0-6.0-3.40","60","4","2022-11-17 12:22:35","fd252370c17a9971d68c1d4354a03c2e","","Mozilla/5.0 (X11; CrOS x86_64 15054.98.0) AppleWebKit/537.36 (KHTML, like Gecko) Chrome/106.0.0.0 Safari/537.36","WebKit","Chrome","106.0.0.0","ChromeOS","15054.98.0","527","n","","purse.jpg","4","Filler","true",""
"","","","","","fixation","7754","html-keyboard-response","199","274481","0.0-6.0-0.41","60","4","2022-11-17 12:22:35","fd252370c17a9971d68c1d4354a03c2e","","Mozilla/5.0 (X11; CrOS x86_64 15054.98.0) AppleWebKit/537.36 (KHTML, like Gecko) Chrome/106.0.0.0 Safari/537.36","WebKit","Chrome","106.0.0.0","ChromeOS","15054.98.0","null","null","","<p style=""font-size: 48px;"">+</p>","4","Filler","",""
"","","","","","sentence","7754","html-keyboard-response","200","275423","0.0-6.0-1.41","60","4","2022-11-17 12:22:35","fd252370c17a9971d68c1d4354a03c2e","","Mozilla/5.0 (X11; CrOS x86_64 15054.98.0) AppleWebKit/537.36 (KHTML, like Gecko) Chrome/106.0.0.0 Safari/537.36","WebKit","Chrome","106.0.0.0","ChromeOS","15054.98.0","933"," ","","A zebra is playing with a horse","4","Filler","",""
"","","","","","fixation","7754","html-keyboard-response","201","275944","0.0-6.0-2.41","60","4","2022-11-17 12:22:35","fd252370c17a9971d68c1d4354a03c2e","","Mozilla/5.0 (X11; CrOS x86_64 15054.98.0) AppleWebKit/537.36 (KHTML, like Gecko) Chrome/106.0.0.0 Safari/537.36","WebKit","Chrome","106.0.0.0","ChromeOS","15054.98.0","null","null","","<p style=""font-size: 48px;"">+</p>","4","Filler","",""
"","","","","","picture","7754","image-keyboard-response","202","276505","0.0-6.0-3.41","60","4","2022-11-17 12:22:35","fd252370c17a9971d68c1d4354a03c2e","","Mozilla/5.0 (X11; CrOS x86_64 15054.98.0) AppleWebKit/537.36 (KHTML, like Gecko) Chrome/106.0.0.0 Safari/537.36","WebKit","Chrome","106.0.0.0","ChromeOS","15054.98.0","539","n","","watch.jpg","4","Filler","true",""
"","","","","","fixation","7754","html-keyboard-response","203","277525","0.0-6.0-0.42","60","4","2022-11-17 12:22:35","fd252370c17a9971d68c1d4354a03c2e","","Mozilla/5.0 (X11; CrOS x86_64 15054.98.0) AppleWebKit/537.36 (KHTML, like Gecko) Chrome/106.0.0.0 Safari/537.36","WebKit","Chrome","106.0.0.0","ChromeOS","15054.98.0","null","null","","<p style=""font-size: 48px;"">+</p>","4","Heavy-Matched","",""
"","","","","","sentence","7754","html-keyboard-response","204","278653","0.0-6.0-1.42","60","4","2022-11-17 12:22:35","fd252370c17a9971d68c1d4354a03c2e","","Mozilla/5.0 (X11; CrOS x86_64 15054.98.0) AppleWebKit/537.36 (KHTML, like Gecko) Chrome/106.0.0.0 Safari/537.36","WebKit","Chrome","106.0.0.0","ChromeOS","15054.98.0","1105"," ","","A bowling ball dropped and smashed a piece of sushi","4","Heavy-Matched","",""
"","","","","","fixation","7754","html-keyboard-response","205","279177","0.0-6.0-2.42","60","4","2022-11-17 12:22:35","fd252370c17a9971d68c1d4354a03c2e","","Mozilla/5.0 (X11; CrOS x86_64 15054.98.0) AppleWebKit/537.36 (KHTML, like Gecko) Chrome/106.0.0.0 Safari/537.36","WebKit","Chrome","106.0.0.0","ChromeOS","15054.98.0","null","null","","<p style=""font-size: 48px;"">+</p>","4","Heavy-Matched","",""
"","","","","","picture","7754","image-keyboard-response","206","279890","0.0-6.0-3.42","60","4","2022-11-17 12:22:35","fd252370c17a9971d68c1d4354a03c2e","","Mozilla/5.0 (X11; CrOS x86_64 15054.98.0) AppleWebKit/537.36 (KHTML, like Gecko) Chrome/106.0.0.0 Safari/537.36","WebKit","Chrome","106.0.0.0","ChromeOS","15054.98.0","689","s","","sushiS.jpg","4","Heavy-Matched","true",""
"","","","","","fixation","7754","html-keyboard-response","207","280910","0.0-6.0-0.43","60","4","2022-11-17 12:22:35","fd252370c17a9971d68c1d4354a03c2e","","Mozilla/5.0 (X11; CrOS x86_64 15054.98.0) AppleWebKit/537.36 (KHTML, like Gecko) Chrome/106.0.0.0 Safari/537.36","WebKit","Chrome","106.0.0.0","ChromeOS","15054.98.0","null","null","","<p style=""font-size: 48px;"">+</p>","4","Heavy-Matched","",""
"","","","","","sentence","7754","html-keyboard-response","208","281666","0.0-6.0-1.43","60","4","2022-11-17 12:22:35","fd252370c17a9971d68c1d4354a03c2e","","Mozilla/5.0 (X11; CrOS x86_64 15054.98.0) AppleWebKit/537.36 (KHTML, like Gecko) Chrome/106.0.0.0 Safari/537.36","WebKit","Chrome","106.0.0.0","ChromeOS","15054.98.0","735"," ","","A bowling ball dropped and smashed a tile","4","Heavy-Matched","",""
"","","","","","fixation","7754","html-keyboard-response","209","282188","0.0-6.0-2.43","60","4","2022-11-17 12:22:35","fd252370c17a9971d68c1d4354a03c2e","","Mozilla/5.0 (X11; CrOS x86_64 15054.98.0) AppleWebKit/537.36 (KHTML, like Gecko) Chrome/106.0.0.0 Safari/537.36","WebKit","Chrome","106.0.0.0","ChromeOS","15054.98.0","null","null","","<p style=""font-size: 48px;"">+</p>","4","Heavy-Matched","",""
"","","","","","picture","7754","image-keyboard-response","210","283613","0.0-6.0-3.43","60","4","2022-11-17 12:22:35","fd252370c17a9971d68c1d4354a03c2e","","Mozilla/5.0 (X11; CrOS x86_64 15054.98.0) AppleWebKit/537.36 (KHTML, like Gecko) Chrome/106.0.0.0 Safari/537.36","WebKit","Chrome","106.0.0.0","ChromeOS","15054.98.0","1401","s","","tileS.jpg","4","Heavy-Matched","true",""
"","","","","","fixation","7754","html-keyboard-response","211","284638","0.0-6.0-0.44","60","4","2022-11-17 12:22:35","fd252370c17a9971d68c1d4354a03c2e","","Mozilla/5.0 (X11; CrOS x86_64 15054.98.0) AppleWebKit/537.36 (KHTML, like Gecko) Chrome/106.0.0.0 Safari/537.36","WebKit","Chrome","106.0.0.0","ChromeOS","15054.98.0","null","null","","<p style=""font-size: 48px;"">+</p>","4","Filler","",""
"","","","","","sentence","7754","html-keyboard-response","212","285095","0.0-6.0-1.44","60","4","2022-11-17 12:22:35","fd252370c17a9971d68c1d4354a03c2e","","Mozilla/5.0 (X11; CrOS x86_64 15054.98.0) AppleWebKit/537.36 (KHTML, like Gecko) Chrome/106.0.0.0 Safari/537.36","WebKit","Chrome","106.0.0.0","ChromeOS","15054.98.0","441"," ","","A pilot is reading a book","4","Filler","",""
"","","","","","fixation","7754","html-keyboard-response","213","285620","0.0-6.0-2.44","60","4","2022-11-17 12:22:35","fd252370c17a9971d68c1d4354a03c2e","","Mozilla/5.0 (X11; CrOS x86_64 15054.98.0) AppleWebKit/537.36 (KHTML, like Gecko) Chrome/106.0.0.0 Safari/537.36","WebKit","Chrome","106.0.0.0","ChromeOS","15054.98.0","null","null","","<p style=""font-size: 48px;"">+</p>","4","Filler","",""
"","","","","","picture","7754","image-keyboard-response","214","286284","0.0-6.0-3.44","60","4","2022-11-17 12:22:35","fd252370c17a9971d68c1d4354a03c2e","","Mozilla/5.0 (X11; CrOS x86_64 15054.98.0) AppleWebKit/537.36 (KHTML, like Gecko) Chrome/106.0.0.0 Safari/537.36","WebKit","Chrome","106.0.0.0","ChromeOS","15054.98.0","638","n","","spoon.jpg","4","Filler","true",""
"","","","","","fixation","7754","html-keyboard-response","215","287295","0.0-6.0-0.45","60","4","2022-11-17 12:22:35","fd252370c17a9971d68c1d4354a03c2e","","Mozilla/5.0 (X11; CrOS x86_64 15054.98.0) AppleWebKit/537.36 (KHTML, like Gecko) Chrome/106.0.0.0 Safari/537.36","WebKit","Chrome","106.0.0.0","ChromeOS","15054.98.0","null","null","","<p style=""font-size: 48px;"">+</p>","4","Filler","",""
"","","","","","sentence","7754","html-keyboard-response","216","288021","0.0-6.0-1.45","60","4","2022-11-17 12:22:35","fd252370c17a9971d68c1d4354a03c2e","","Mozilla/5.0 (X11; CrOS x86_64 15054.98.0) AppleWebKit/537.36 (KHTML, like Gecko) Chrome/106.0.0.0 Safari/537.36","WebKit","Chrome","106.0.0.0","ChromeOS","15054.98.0","704"," ","","A man is playing with a cat","4","Filler","",""
"","","","","","fixation","7754","html-keyboard-response","217","288562","0.0-6.0-2.45","60","4","2022-11-17 12:22:35","fd252370c17a9971d68c1d4354a03c2e","","Mozilla/5.0 (X11; CrOS x86_64 15054.98.0) AppleWebKit/537.36 (KHTML, like Gecko) Chrome/106.0.0.0 Safari/537.36","WebKit","Chrome","106.0.0.0","ChromeOS","15054.98.0","null","null","","<p style=""font-size: 48px;"">+</p>","4","Filler","",""
"","","","","","picture","7754","image-keyboard-response","218","289188","0.0-6.0-3.45","60","4","2022-11-17 12:22:35","fd252370c17a9971d68c1d4354a03c2e","","Mozilla/5.0 (X11; CrOS x86_64 15054.98.0) AppleWebKit/537.36 (KHTML, like Gecko) Chrome/106.0.0.0 Safari/537.36","WebKit","Chrome","106.0.0.0","ChromeOS","15054.98.0","602","n","","ceramicplate.jpg","4","Filler","true",""
"","","","","","fixation","7754","html-keyboard-response","219","290211","0.0-6.0-0.46","60","4","2022-11-17 12:22:35","fd252370c17a9971d68c1d4354a03c2e","","Mozilla/5.0 (X11; CrOS x86_64 15054.98.0) AppleWebKit/537.36 (KHTML, like Gecko) Chrome/106.0.0.0 Safari/537.36","WebKit","Chrome","106.0.0.0","ChromeOS","15054.98.0","null","null","","<p style=""font-size: 48px;"">+</p>","4","Heavy-Matched","",""
"","","","","","sentence","7754","html-keyboard-response","220","291435","0.0-6.0-1.46","60","4","2022-11-17 12:22:35","fd252370c17a9971d68c1d4354a03c2e","","Mozilla/5.0 (X11; CrOS x86_64 15054.98.0) AppleWebKit/537.36 (KHTML, like Gecko) Chrome/106.0.0.0 Safari/537.36","WebKit","Chrome","106.0.0.0","ChromeOS","15054.98.0","1202"," ","","A bowling ball  dropped and smashed a tomato","4","Heavy-Matched","",""
"","","","","","fixation","7754","html-keyboard-response","221","291960","0.0-6.0-2.46","60","4","2022-11-17 12:22:35","fd252370c17a9971d68c1d4354a03c2e","","Mozilla/5.0 (X11; CrOS x86_64 15054.98.0) AppleWebKit/537.36 (KHTML, like Gecko) Chrome/106.0.0.0 Safari/537.36","WebKit","Chrome","106.0.0.0","ChromeOS","15054.98.0","null","null","","<p style=""font-size: 48px;"">+</p>","4","Heavy-Matched","",""
"","","","","","picture","7754","image-keyboard-response","222","292467","0.0-6.0-3.46","60","4","2022-11-17 12:22:35","fd252370c17a9971d68c1d4354a03c2e","","Mozilla/5.0 (X11; CrOS x86_64 15054.98.0) AppleWebKit/537.36 (KHTML, like Gecko) Chrome/106.0.0.0 Safari/537.36","WebKit","Chrome","106.0.0.0","ChromeOS","15054.98.0","484","s","","tomatoS.jpg","4","Heavy-Matched","true",""
"","","","","","fixation","7754","html-keyboard-response","223","293490","0.0-6.0-0.47","60","4","2022-11-17 12:22:35","fd252370c17a9971d68c1d4354a03c2e","","Mozilla/5.0 (X11; CrOS x86_64 15054.98.0) AppleWebKit/537.36 (KHTML, like Gecko) Chrome/106.0.0.0 Safari/537.36","WebKit","Chrome","106.0.0.0","ChromeOS","15054.98.0","null","null","","<p style=""font-size: 48px;"">+</p>","4","Heavy-Matched","",""
"","","","","","sentence","7754","html-keyboard-response","224","294388","0.0-6.0-1.47","60","4","2022-11-17 12:22:35","fd252370c17a9971d68c1d4354a03c2e","","Mozilla/5.0 (X11; CrOS x86_64 15054.98.0) AppleWebKit/537.36 (KHTML, like Gecko) Chrome/106.0.0.0 Safari/537.36","WebKit","Chrome","106.0.0.0","ChromeOS","15054.98.0","876"," ","","A bowling ball  dropped and smashed a vase","4","Heavy-Matched","",""
"","","","","","fixation","7754","html-keyboard-response","225","294912","0.0-6.0-2.47","60","4","2022-11-17 12:22:35","fd252370c17a9971d68c1d4354a03c2e","","Mozilla/5.0 (X11; CrOS x86_64 15054.98.0) AppleWebKit/537.36 (KHTML, like Gecko) Chrome/106.0.0.0 Safari/537.36","WebKit","Chrome","106.0.0.0","ChromeOS","15054.98.0","null","null","","<p style=""font-size: 48px;"">+</p>","4","Heavy-Matched","",""
"","","","","","picture","7754","image-keyboard-response","226","295537","0.0-6.0-3.47","60","4","2022-11-17 12:22:35","fd252370c17a9971d68c1d4354a03c2e","","Mozilla/5.0 (X11; CrOS x86_64 15054.98.0) AppleWebKit/537.36 (KHTML, like Gecko) Chrome/106.0.0.0 Safari/537.36","WebKit","Chrome","106.0.0.0","ChromeOS","15054.98.0","599","s","","vaseS.jpg","4","Heavy-Matched","true",""
"","","","","","fixation","7754","html-keyboard-response","227","296559","0.0-6.0-0.48","60","4","2022-11-17 12:22:35","fd252370c17a9971d68c1d4354a03c2e","","Mozilla/5.0 (X11; CrOS x86_64 15054.98.0) AppleWebKit/537.36 (KHTML, like Gecko) Chrome/106.0.0.0 Safari/537.36","WebKit","Chrome","106.0.0.0","ChromeOS","15054.98.0","null","null","","<p style=""font-size: 48px;"">+</p>","4","Heavy-Contradictory","",""
"","","","","","sentence","7754","html-keyboard-response","228","297703","0.0-6.0-1.48","60","4","2022-11-17 12:22:35","fd252370c17a9971d68c1d4354a03c2e","","Mozilla/5.0 (X11; CrOS x86_64 15054.98.0) AppleWebKit/537.36 (KHTML, like Gecko) Chrome/106.0.0.0 Safari/537.36","WebKit","Chrome","106.0.0.0","ChromeOS","15054.98.0","1122"," ","","A bowling ball dropped and touched a wineglass","4","Heavy-Contradictory","",""
"","","","","","fixation","7754","html-keyboard-response","229","298213","0.0-6.0-2.48","60","4","2022-11-17 12:22:35","fd252370c17a9971d68c1d4354a03c2e","","Mozilla/5.0 (X11; CrOS x86_64 15054.98.0) AppleWebKit/537.36 (KHTML, like Gecko) Chrome/106.0.0.0 Safari/537.36","WebKit","Chrome","106.0.0.0","ChromeOS","15054.98.0","null","null","","<p style=""font-size: 48px;"">+</p>","4","Heavy-Contradictory","",""
"","","","","","picture","7754","image-keyboard-response","230","298679","0.0-6.0-3.48","60","4","2022-11-17 12:22:35","fd252370c17a9971d68c1d4354a03c2e","","Mozilla/5.0 (X11; CrOS x86_64 15054.98.0) AppleWebKit/537.36 (KHTML, like Gecko) Chrome/106.0.0.0 Safari/537.36","WebKit","Chrome","106.0.0.0","ChromeOS","15054.98.0","441","s","","wineglassS.jpg","4","Heavy-Contradictory","true",""
"","","","","","fixation","7754","html-keyboard-response","231","299704","0.0-6.0-0.49","60","4","2022-11-17 12:22:35","fd252370c17a9971d68c1d4354a03c2e","","Mozilla/5.0 (X11; CrOS x86_64 15054.98.0) AppleWebKit/537.36 (KHTML, like Gecko) Chrome/106.0.0.0 Safari/537.36","WebKit","Chrome","106.0.0.0","ChromeOS","15054.98.0","null","null","","<p style=""font-size: 48px;"">+</p>","4","Filler","",""
"","","","","","sentence","7754","html-keyboard-response","232","300642","0.0-6.0-1.49","60","4","2022-11-17 12:22:35","fd252370c17a9971d68c1d4354a03c2e","","Mozilla/5.0 (X11; CrOS x86_64 15054.98.0) AppleWebKit/537.36 (KHTML, like Gecko) Chrome/106.0.0.0 Safari/537.36","WebKit","Chrome","106.0.0.0","ChromeOS","15054.98.0","913"," ","","A teenage girl is playing the piano","4","Filler","",""
"","","","","","fixation","7754","html-keyboard-response","233","301166","0.0-6.0-2.49","60","4","2022-11-17 12:22:35","fd252370c17a9971d68c1d4354a03c2e","","Mozilla/5.0 (X11; CrOS x86_64 15054.98.0) AppleWebKit/537.36 (KHTML, like Gecko) Chrome/106.0.0.0 Safari/537.36","WebKit","Chrome","106.0.0.0","ChromeOS","15054.98.0","null","null","","<p style=""font-size: 48px;"">+</p>","4","Filler","",""
"","","","","","picture","7754","image-keyboard-response","234","302048","0.0-6.0-3.49","60","4","2022-11-17 12:22:35","fd252370c17a9971d68c1d4354a03c2e","","Mozilla/5.0 (X11; CrOS x86_64 15054.98.0) AppleWebKit/537.36 (KHTML, like Gecko) Chrome/106.0.0.0 Safari/537.36","WebKit","Chrome","106.0.0.0","ChromeOS","15054.98.0","856","n","","pillow.jpg","4","Filler","true",""
"","","","","","fixation","7754","html-keyboard-response","235","303069","0.0-6.0-0.50","60","4","2022-11-17 12:22:35","fd252370c17a9971d68c1d4354a03c2e","","Mozilla/5.0 (X11; CrOS x86_64 15054.98.0) AppleWebKit/537.36 (KHTML, like Gecko) Chrome/106.0.0.0 Safari/537.36","WebKit","Chrome","106.0.0.0","ChromeOS","15054.98.0","null","null","","<p style=""font-size: 48px;"">+</p>","4","Filler","",""
"","","","","","sentence","7754","html-keyboard-response","236","303704","0.0-6.0-1.50","60","4","2022-11-17 12:22:35","fd252370c17a9971d68c1d4354a03c2e","","Mozilla/5.0 (X11; CrOS x86_64 15054.98.0) AppleWebKit/537.36 (KHTML, like Gecko) Chrome/106.0.0.0 Safari/537.36","WebKit","Chrome","106.0.0.0","ChromeOS","15054.98.0","611"," ","","A ring was placed on the newspaper","4","Filler","",""
"","","","","","fixation","7754","html-keyboard-response","237","304212","0.0-6.0-2.50","60","4","2022-11-17 12:22:35","fd252370c17a9971d68c1d4354a03c2e","","Mozilla/5.0 (X11; CrOS x86_64 15054.98.0) AppleWebKit/537.36 (KHTML, like Gecko) Chrome/106.0.0.0 Safari/537.36","WebKit","Chrome","106.0.0.0","ChromeOS","15054.98.0","null","null","","<p style=""font-size: 48px;"">+</p>","4","Filler","",""
"","","","","","picture","7754","image-keyboard-response","238","304882","0.0-6.0-3.50","60","4","2022-11-17 12:22:35","fd252370c17a9971d68c1d4354a03c2e","","Mozilla/5.0 (X11; CrOS x86_64 15054.98.0) AppleWebKit/537.36 (KHTML, like Gecko) Chrome/106.0.0.0 Safari/537.36","WebKit","Chrome","106.0.0.0","ChromeOS","15054.98.0","645","n","","cat.jpg","4","Filler","true",""
"","","","","","fixation","7754","html-keyboard-response","239","305905","0.0-6.0-0.51","60","4","2022-11-17 12:22:35","fd252370c17a9971d68c1d4354a03c2e","","Mozilla/5.0 (X11; CrOS x86_64 15054.98.0) AppleWebKit/537.36 (KHTML, like Gecko) Chrome/106.0.0.0 Safari/537.36","WebKit","Chrome","106.0.0.0","ChromeOS","15054.98.0","null","null","","<p style=""font-size: 48px;"">+</p>","4","Filler","",""
"","","","","","sentence","7754","html-keyboard-response","240","306524","0.0-6.0-1.51","60","4","2022-11-17 12:22:35","fd252370c17a9971d68c1d4354a03c2e","","Mozilla/5.0 (X11; CrOS x86_64 15054.98.0) AppleWebKit/537.36 (KHTML, like Gecko) Chrome/106.0.0.0 Safari/537.36","WebKit","Chrome","106.0.0.0","ChromeOS","15054.98.0","595"," ","","A panda is resting on a tree","4","Filler","",""
"","","","","","fixation","7754","html-keyboard-response","241","307048","0.0-6.0-2.51","60","4","2022-11-17 12:22:35","fd252370c17a9971d68c1d4354a03c2e","","Mozilla/5.0 (X11; CrOS x86_64 15054.98.0) AppleWebKit/537.36 (KHTML, like Gecko) Chrome/106.0.0.0 Safari/537.36","WebKit","Chrome","106.0.0.0","ChromeOS","15054.98.0","null","null","","<p style=""font-size: 48px;"">+</p>","4","Filler","",""
"","","","","","picture","7754","image-keyboard-response","242","307683","0.0-6.0-3.51","60","4","2022-11-17 12:22:35","fd252370c17a9971d68c1d4354a03c2e","","Mozilla/5.0 (X11; CrOS x86_64 15054.98.0) AppleWebKit/537.36 (KHTML, like Gecko) Chrome/106.0.0.0 Safari/537.36","WebKit","Chrome","106.0.0.0","ChromeOS","15054.98.0","609","n","","dollar.jpg","4","Filler","true",""
"","","","","","fixation","7754","html-keyboard-response","243","308705","0.0-6.0-0.52","60","4","2022-11-17 12:22:35","fd252370c17a9971d68c1d4354a03c2e","","Mozilla/5.0 (X11; CrOS x86_64 15054.98.0) AppleWebKit/537.36 (KHTML, like Gecko) Chrome/106.0.0.0 Safari/537.36","WebKit","Chrome","106.0.0.0","ChromeOS","15054.98.0","null","null","","<p style=""font-size: 48px;"">+</p>","4","Filler","",""
"","","","","","sentence","7754","html-keyboard-response","244","309487","0.0-6.0-1.52","60","4","2022-11-17 12:22:35","fd252370c17a9971d68c1d4354a03c2e","","Mozilla/5.0 (X11; CrOS x86_64 15054.98.0) AppleWebKit/537.36 (KHTML, like Gecko) Chrome/106.0.0.0 Safari/537.36","WebKit","Chrome","106.0.0.0","ChromeOS","15054.98.0","758"," ","","A musician is playing a guitar","4","Filler","",""
"","","","","","fixation","7754","html-keyboard-response","245","310017","0.0-6.0-2.52","60","4","2022-11-17 12:22:35","fd252370c17a9971d68c1d4354a03c2e","","Mozilla/5.0 (X11; CrOS x86_64 15054.98.0) AppleWebKit/537.36 (KHTML, like Gecko) Chrome/106.0.0.0 Safari/537.36","WebKit","Chrome","106.0.0.0","ChromeOS","15054.98.0","null","null","","<p style=""font-size: 48px;"">+</p>","4","Filler","",""
