"success","timeout","failed_images","failed_audio","failed_video","typeoftrial","subject","trial_type","trial_index","time_elapsed","internal_node_id","run_id","condition","recorded_at","source_code_version","ip","user_agent","device","browser","browser_version","platform","platform_version","rt","response","Experiment","stimulus","list_number","trialcondition","correct","question_order"
"true","false","[]","[]","[]","preload","9293","preload","0","672","0.0-0.0","114","3","2022-11-17 12:35:01","fd252370c17a9971d68c1d4354a03c2e","","Mozilla/5.0 (Windows NT 6.3; Win64; x64) AppleWebKit/537.36 (KHTML, like Gecko) Chrome/107.0.0.0 Safari/537.36","WebKit","Chrome","107.0.0.0","Windows","6.3","","","","","","","",""
"","","","","","ID","9293","survey-text","1","4368","0.0-1.0","114","3","2022-11-17 12:35:01","fd252370c17a9971d68c1d4354a03c2e","","Mozilla/5.0 (Windows NT 6.3; Win64; x64) AppleWebKit/537.36 (KHTML, like Gecko) Chrome/107.0.0.0 Safari/537.36","WebKit","Chrome","107.0.0.0","Windows","6.3","3686","{""ID"":""60700ba0aead6063a9c1aac7""}","","","","","",""
"","","","","","instructions","9293","html-button-response","2","5759","0.0-2.0","114","3","2022-11-17 12:35:01","fd252370c17a9971d68c1d4354a03c2e","","Mozilla/5.0 (Windows NT 6.3; Win64; x64) AppleWebKit/537.36 (KHTML, like Gecko) Chrome/107.0.0.0 Safari/537.36","WebKit","Chrome","107.0.0.0","Windows","6.3","1387","0","","
                    <p style=""font-size:20px;""> Welcome to the experiment! </p>
                    <p style=""font-size:20px;""> In this experiment, you will be asked to make judgments about the content of different sentences.</p>
                    <p style=""font-size:20px;""> On each trial, you will read a sentence, and will be shown a picture immediately following the sentence. </p>
                    <p style=""font-size:20px;""> Your task is to decide whether the object displayed in the picture was mentioned in the sentence or not </p>
                    <p style=""font-size:20px;""> and respond as quickly as possible by pressing <strong>S</strong> for yes or <strong>N</strong> for no. </p>
                    <p style=""font-size:20px;""> You will now do a practice session with feedback and instructions. </p>
                    <p style=""font-size:20px;""> Click the button below to continue.</p>
                    ","","","",""
"","","","","","instructions","9293","html-button-response","3","6838","0.0-3.0","114","3","2022-11-17 12:35:01","fd252370c17a9971d68c1d4354a03c2e","","Mozilla/5.0 (Windows NT 6.3; Win64; x64) AppleWebKit/537.36 (KHTML, like Gecko) Chrome/107.0.0.0 Safari/537.36","WebKit","Chrome","107.0.0.0","Windows","6.3","1077","0","","
                    <p style=""font-size:20px;""> You are about to begin the practice test. </p>
                    <p style=""font-size:20px;""> On each trial, a sentence will appear on the screen. You should press SPACEBAR when you have read and understood the sentence.</p>
                    <p style=""font-size:20px;""> After you press SPACEBAR, a picture will appear on the screen. </p>
                    <p style=""font-size:20px;""> You need to indicate whether or not the pictured object was mentioned in the sentence. </p>
                    <p style=""font-size:20px;""> If the object WAS mentioned in the preceding sentence, you should press <strong>S</strong> </p>
                    <p style=""font-size:20px;""> If the object was NOT mentioned in the preceding sentence, you should press <strong>N</strong>. </p>
                    <p style=""font-size:20px;""> Click the button below to continue to the practice session.</p>
                    ","","","",""
"","","","","","fixation","9293","html-keyboard-response","4","7859","0.0-4.0-0.0","114","3","2022-11-17 12:35:01","fd252370c17a9971d68c1d4354a03c2e","","Mozilla/5.0 (Windows NT 6.3; Win64; x64) AppleWebKit/537.36 (KHTML, like Gecko) Chrome/107.0.0.0 Safari/537.36","WebKit","Chrome","107.0.0.0","Windows","6.3","null","null","","<p style=""font-size: 48px;"">+</p>","practice","practice_n","",""
"","","","","","sentence","9293","html-keyboard-response","5","9560","0.0-4.0-1.0","114","3","2022-11-17 12:35:01","fd252370c17a9971d68c1d4354a03c2e","","Mozilla/5.0 (Windows NT 6.3; Win64; x64) AppleWebKit/537.36 (KHTML, like Gecko) Chrome/107.0.0.0 Safari/537.36","WebKit","Chrome","107.0.0.0","Windows","6.3","1699"," ","","A fork was placed on a stool","practice","practice_n","",""
"","","","","","fixation","9293","html-keyboard-response","6","10071","0.0-4.0-2.0","114","3","2022-11-17 12:35:01","fd252370c17a9971d68c1d4354a03c2e","","Mozilla/5.0 (Windows NT 6.3; Win64; x64) AppleWebKit/537.36 (KHTML, like Gecko) Chrome/107.0.0.0 Safari/537.36","WebKit","Chrome","107.0.0.0","Windows","6.3","null","null","","<p style=""font-size: 48px;"">+</p>","practice","practice_n","",""
"","","","","","picture","9293","image-keyboard-response","7","11402","0.0-4.0-3.0","114","3","2022-11-17 12:35:01","fd252370c17a9971d68c1d4354a03c2e","","Mozilla/5.0 (Windows NT 6.3; Win64; x64) AppleWebKit/537.36 (KHTML, like Gecko) Chrome/107.0.0.0 Safari/537.36","WebKit","Chrome","107.0.0.0","Windows","6.3","1326","s","","tableB.jpg","practice","practice_n","false",""
"","","","","","","","html-keyboard-response","8","13412","0.0-4.0-4.0","114","3","2022-11-17 12:35:01","fd252370c17a9971d68c1d4354a03c2e","","Mozilla/5.0 (Windows NT 6.3; Win64; x64) AppleWebKit/537.36 (KHTML, like Gecko) Chrome/107.0.0.0 Safari/537.36","WebKit","Chrome","107.0.0.0","Windows","6.3","null","null","","WRONG!","","","",""
"","","","","","fixation","9293","html-keyboard-response","9","14420","0.0-4.0-0.1","114","3","2022-11-17 12:35:01","fd252370c17a9971d68c1d4354a03c2e","","Mozilla/5.0 (Windows NT 6.3; Win64; x64) AppleWebKit/537.36 (KHTML, like Gecko) Chrome/107.0.0.0 Safari/537.36","WebKit","Chrome","107.0.0.0","Windows","6.3","null","null","","<p style=""font-size: 48px;"">+</p>","practice","practice_s","",""
"","","","","","sentence","9293","html-keyboard-response","10","15810","0.0-4.0-1.1","114","3","2022-11-17 12:35:01","fd252370c17a9971d68c1d4354a03c2e","","Mozilla/5.0 (Windows NT 6.3; Win64; x64) AppleWebKit/537.36 (KHTML, like Gecko) Chrome/107.0.0.0 Safari/537.36","WebKit","Chrome","107.0.0.0","Windows","6.3","1387"," ","","A balloon dropped and touched a cigarette","practice","practice_s","",""
"","","","","","fixation","9293","html-keyboard-response","11","16328","0.0-4.0-2.1","114","3","2022-11-17 12:35:01","fd252370c17a9971d68c1d4354a03c2e","","Mozilla/5.0 (Windows NT 6.3; Win64; x64) AppleWebKit/537.36 (KHTML, like Gecko) Chrome/107.0.0.0 Safari/537.36","WebKit","Chrome","107.0.0.0","Windows","6.3","null","null","","<p style=""font-size: 48px;"">+</p>","practice","practice_s","",""
"","","","","","picture","9293","image-keyboard-response","12","17034","0.0-4.0-3.1","114","3","2022-11-17 12:35:01","fd252370c17a9971d68c1d4354a03c2e","","Mozilla/5.0 (Windows NT 6.3; Win64; x64) AppleWebKit/537.36 (KHTML, like Gecko) Chrome/107.0.0.0 Safari/537.36","WebKit","Chrome","107.0.0.0","Windows","6.3","703","s","","cigaretteB.jpg","practice","practice_s","true",""
"","","","","","","","html-keyboard-response","13","19051","0.0-4.0-4.1","114","3","2022-11-17 12:35:01","fd252370c17a9971d68c1d4354a03c2e","","Mozilla/5.0 (Windows NT 6.3; Win64; x64) AppleWebKit/537.36 (KHTML, like Gecko) Chrome/107.0.0.0 Safari/537.36","WebKit","Chrome","107.0.0.0","Windows","6.3","null","null","","CORRECT!","","","",""
"","","","","","fixation","9293","html-keyboard-response","14","20074","0.0-4.0-0.2","114","3","2022-11-17 12:35:01","fd252370c17a9971d68c1d4354a03c2e","","Mozilla/5.0 (Windows NT 6.3; Win64; x64) AppleWebKit/537.36 (KHTML, like Gecko) Chrome/107.0.0.0 Safari/537.36","WebKit","Chrome","107.0.0.0","Windows","6.3","null","null","","<p style=""font-size: 48px;"">+</p>","practice","practice_n","",""
"","","","","","sentence","9293","html-keyboard-response","15","21408","0.0-4.0-1.2","114","3","2022-11-17 12:35:01","fd252370c17a9971d68c1d4354a03c2e","","Mozilla/5.0 (Windows NT 6.3; Win64; x64) AppleWebKit/537.36 (KHTML, like Gecko) Chrome/107.0.0.0 Safari/537.36","WebKit","Chrome","107.0.0.0","Windows","6.3","1335"," ","","A balloon dropped and smashed a cup","practice","practice_n","",""
"","","","","","fixation","9293","html-keyboard-response","16","21913","0.0-4.0-2.2","114","3","2022-11-17 12:35:01","fd252370c17a9971d68c1d4354a03c2e","","Mozilla/5.0 (Windows NT 6.3; Win64; x64) AppleWebKit/537.36 (KHTML, like Gecko) Chrome/107.0.0.0 Safari/537.36","WebKit","Chrome","107.0.0.0","Windows","6.3","null","null","","<p style=""font-size: 48px;"">+</p>","practice","practice_n","",""
"","","","","","picture","9293","image-keyboard-response","17","22923","0.0-4.0-3.2","114","3","2022-11-17 12:35:01","fd252370c17a9971d68c1d4354a03c2e","","Mozilla/5.0 (Windows NT 6.3; Win64; x64) AppleWebKit/537.36 (KHTML, like Gecko) Chrome/107.0.0.0 Safari/537.36","WebKit","Chrome","107.0.0.0","Windows","6.3","1007","n","","bananaB.jpg","practice","practice_n","true",""
"","","","","","","","html-keyboard-response","18","24942","0.0-4.0-4.2","114","3","2022-11-17 12:35:01","fd252370c17a9971d68c1d4354a03c2e","","Mozilla/5.0 (Windows NT 6.3; Win64; x64) AppleWebKit/537.36 (KHTML, like Gecko) Chrome/107.0.0.0 Safari/537.36","WebKit","Chrome","107.0.0.0","Windows","6.3","null","null","","CORRECT!","","","",""
"","","","","","fixation","9293","html-keyboard-response","19","25952","0.0-4.0-0.3","114","3","2022-11-17 12:35:01","fd252370c17a9971d68c1d4354a03c2e","","Mozilla/5.0 (Windows NT 6.3; Win64; x64) AppleWebKit/537.36 (KHTML, like Gecko) Chrome/107.0.0.0 Safari/537.36","WebKit","Chrome","107.0.0.0","Windows","6.3","null","null","","<p style=""font-size: 48px;"">+</p>","practice","practice_n","",""
"","","","","","sentence","9293","html-keyboard-response","20","27749","0.0-4.0-1.3","114","3","2022-11-17 12:35:01","fd252370c17a9971d68c1d4354a03c2e","","Mozilla/5.0 (Windows NT 6.3; Win64; x64) AppleWebKit/537.36 (KHTML, like Gecko) Chrome/107.0.0.0 Safari/537.36","WebKit","Chrome","107.0.0.0","Windows","6.3","1795"," ","","A bowling ball dropped and touched a bottle","practice","practice_n","",""
"","","","","","fixation","9293","html-keyboard-response","21","28272","0.0-4.0-2.3","114","3","2022-11-17 12:35:01","fd252370c17a9971d68c1d4354a03c2e","","Mozilla/5.0 (Windows NT 6.3; Win64; x64) AppleWebKit/537.36 (KHTML, like Gecko) Chrome/107.0.0.0 Safari/537.36","WebKit","Chrome","107.0.0.0","Windows","6.3","null","null","","<p style=""font-size: 48px;"">+</p>","practice","practice_n","",""
"","","","","","picture","9293","image-keyboard-response","22","29189","0.0-4.0-3.3","114","3","2022-11-17 12:35:01","fd252370c17a9971d68c1d4354a03c2e","","Mozilla/5.0 (Windows NT 6.3; Win64; x64) AppleWebKit/537.36 (KHTML, like Gecko) Chrome/107.0.0.0 Safari/537.36","WebKit","Chrome","107.0.0.0","Windows","6.3","914","n","","bookB.jpg","practice","practice_n","true",""
"","","","","","","","html-keyboard-response","23","31194","0.0-4.0-4.3","114","3","2022-11-17 12:35:01","fd252370c17a9971d68c1d4354a03c2e","","Mozilla/5.0 (Windows NT 6.3; Win64; x64) AppleWebKit/537.36 (KHTML, like Gecko) Chrome/107.0.0.0 Safari/537.36","WebKit","Chrome","107.0.0.0","Windows","6.3","null","null","","CORRECT!","","","",""
"","","","","","fixation","9293","html-keyboard-response","24","32201","0.0-4.0-0.4","114","3","2022-11-17 12:35:01","fd252370c17a9971d68c1d4354a03c2e","","Mozilla/5.0 (Windows NT 6.3; Win64; x64) AppleWebKit/537.36 (KHTML, like Gecko) Chrome/107.0.0.0 Safari/537.36","WebKit","Chrome","107.0.0.0","Windows","6.3","null","null","","<p style=""font-size: 48px;"">+</p>","practice","practice_s","",""
"","","","","","sentence","9293","html-keyboard-response","25","34366","0.0-4.0-1.4","114","3","2022-11-17 12:35:01","fd252370c17a9971d68c1d4354a03c2e","","Mozilla/5.0 (Windows NT 6.3; Win64; x64) AppleWebKit/537.36 (KHTML, like Gecko) Chrome/107.0.0.0 Safari/537.36","WebKit","Chrome","107.0.0.0","Windows","6.3","2163"," ","","A knife was placed on a hammer","practice","practice_s","",""
"","","","","","fixation","9293","html-keyboard-response","26","34874","0.0-4.0-2.4","114","3","2022-11-17 12:35:01","fd252370c17a9971d68c1d4354a03c2e","","Mozilla/5.0 (Windows NT 6.3; Win64; x64) AppleWebKit/537.36 (KHTML, like Gecko) Chrome/107.0.0.0 Safari/537.36","WebKit","Chrome","107.0.0.0","Windows","6.3","null","null","","<p style=""font-size: 48px;"">+</p>","practice","practice_s","",""
"","","","","","picture","9293","image-keyboard-response","27","36070","0.0-4.0-3.4","114","3","2022-11-17 12:35:01","fd252370c17a9971d68c1d4354a03c2e","","Mozilla/5.0 (Windows NT 6.3; Win64; x64) AppleWebKit/537.36 (KHTML, like Gecko) Chrome/107.0.0.0 Safari/537.36","WebKit","Chrome","107.0.0.0","Windows","6.3","1192","s","","hammerB.jpg","practice","practice_s","true",""
"","","","","","","","html-keyboard-response","28","38074","0.0-4.0-4.4","114","3","2022-11-17 12:35:01","fd252370c17a9971d68c1d4354a03c2e","","Mozilla/5.0 (Windows NT 6.3; Win64; x64) AppleWebKit/537.36 (KHTML, like Gecko) Chrome/107.0.0.0 Safari/537.36","WebKit","Chrome","107.0.0.0","Windows","6.3","null","null","","CORRECT!","","","",""
"","","","","","fixation","9293","html-keyboard-response","29","39081","0.0-4.0-0.5","114","3","2022-11-17 12:35:01","fd252370c17a9971d68c1d4354a03c2e","","Mozilla/5.0 (Windows NT 6.3; Win64; x64) AppleWebKit/537.36 (KHTML, like Gecko) Chrome/107.0.0.0 Safari/537.36","WebKit","Chrome","107.0.0.0","Windows","6.3","null","null","","<p style=""font-size: 48px;"">+</p>","practice","practice_s","",""
"","","","","","sentence","9293","html-keyboard-response","30","40231","0.0-4.0-1.5","114","3","2022-11-17 12:35:01","fd252370c17a9971d68c1d4354a03c2e","","Mozilla/5.0 (Windows NT 6.3; Win64; x64) AppleWebKit/537.36 (KHTML, like Gecko) Chrome/107.0.0.0 Safari/537.36","WebKit","Chrome","107.0.0.0","Windows","6.3","1147"," ","","A bowling ball dropped and smashed a teacup","practice","practice_s","",""
"","","","","","fixation","9293","html-keyboard-response","31","40738","0.0-4.0-2.5","114","3","2022-11-17 12:35:01","fd252370c17a9971d68c1d4354a03c2e","","Mozilla/5.0 (Windows NT 6.3; Win64; x64) AppleWebKit/537.36 (KHTML, like Gecko) Chrome/107.0.0.0 Safari/537.36","WebKit","Chrome","107.0.0.0","Windows","6.3","null","null","","<p style=""font-size: 48px;"">+</p>","practice","practice_s","",""
"","","","","","picture","9293","image-keyboard-response","32","41645","0.0-4.0-3.5","114","3","2022-11-17 12:35:01","fd252370c17a9971d68c1d4354a03c2e","","Mozilla/5.0 (Windows NT 6.3; Win64; x64) AppleWebKit/537.36 (KHTML, like Gecko) Chrome/107.0.0.0 Safari/537.36","WebKit","Chrome","107.0.0.0","Windows","6.3","903","s","","cupB.jpg","practice","practice_s","true",""
"","","","","","","","html-keyboard-response","33","43649","0.0-4.0-4.5","114","3","2022-11-17 12:35:01","fd252370c17a9971d68c1d4354a03c2e","","Mozilla/5.0 (Windows NT 6.3; Win64; x64) AppleWebKit/537.36 (KHTML, like Gecko) Chrome/107.0.0.0 Safari/537.36","WebKit","Chrome","107.0.0.0","Windows","6.3","null","null","","CORRECT!","","","",""
"","","","","","movetoexp","9293","html-button-response","34","52354","0.0-5.0","114","3","2022-11-17 12:35:01","fd252370c17a9971d68c1d4354a03c2e","","Mozilla/5.0 (Windows NT 6.3; Win64; x64) AppleWebKit/537.36 (KHTML, like Gecko) Chrome/107.0.0.0 Safari/537.36","WebKit","Chrome","107.0.0.0","Windows","6.3","8701","0","","<p style=""font-size:20px;"">You have now completed the practice session! </p>
                    <p style=""font-size:20px;"">You will now move on to the main experiment, where you will not be provided any feedback. </p>
                    <p style=""font-size:20px;"">Remember, you should press <strong>S</strong> if the pictured object was mentioned in the preceding sentence<br> and <strong>N</strong> if the pictured object was not mentioned in the preceding sentence.</p>
                    <p style=""font-size:20px;"">Please click the button below to continue to the main experiment. </p>","","","",""
"","","","","","fixation","9293","html-keyboard-response","35","53362","0.0-6.0-0.0","114","3","2022-11-17 12:35:01","fd252370c17a9971d68c1d4354a03c2e","","Mozilla/5.0 (Windows NT 6.3; Win64; x64) AppleWebKit/537.36 (KHTML, like Gecko) Chrome/107.0.0.0 Safari/537.36","WebKit","Chrome","107.0.0.0","Windows","6.3","null","null","","<p style=""font-size: 48px;"">+</p>","3","Heavy_Contradictory","",""
"","","","","","sentence","9293","html-keyboard-response","36","55113","0.0-6.0-1.0","114","3","2022-11-17 12:35:01","fd252370c17a9971d68c1d4354a03c2e","","Mozilla/5.0 (Windows NT 6.3; Win64; x64) AppleWebKit/537.36 (KHTML, like Gecko) Chrome/107.0.0.0 Safari/537.36","WebKit","Chrome","107.0.0.0","Windows","6.3","1748"," ","","A bowling ball dropped and touched a tile","3","Heavy_Contradictory","",""
"","","","","","fixation","9293","html-keyboard-response","37","55618","0.0-6.0-2.0","114","3","2022-11-17 12:35:01","fd252370c17a9971d68c1d4354a03c2e","","Mozilla/5.0 (Windows NT 6.3; Win64; x64) AppleWebKit/537.36 (KHTML, like Gecko) Chrome/107.0.0.0 Safari/537.36","WebKit","Chrome","107.0.0.0","Windows","6.3","null","null","","<p style=""font-size: 48px;"">+</p>","3","Heavy_Contradictory","",""
"","","","","","picture","9293","image-keyboard-response","38","56343","0.0-6.0-3.0","114","3","2022-11-17 12:35:01","fd252370c17a9971d68c1d4354a03c2e","","Mozilla/5.0 (Windows NT 6.3; Win64; x64) AppleWebKit/537.36 (KHTML, like Gecko) Chrome/107.0.0.0 Safari/537.36","WebKit","Chrome","107.0.0.0","Windows","6.3","721","s","","tileS.jpg","3","Heavy_Contradictory","true",""
"","","","","","fixation","9293","html-keyboard-response","39","57353","0.0-6.0-0.1","114","3","2022-11-17 12:35:01","fd252370c17a9971d68c1d4354a03c2e","","Mozilla/5.0 (Windows NT 6.3; Win64; x64) AppleWebKit/537.36 (KHTML, like Gecko) Chrome/107.0.0.0 Safari/537.36","WebKit","Chrome","107.0.0.0","Windows","6.3","null","null","","<p style=""font-size: 48px;"">+</p>","3","Filler","",""
"","","","","","sentence","9293","html-keyboard-response","40","58776","0.0-6.0-1.1","114","3","2022-11-17 12:35:01","fd252370c17a9971d68c1d4354a03c2e","","Mozilla/5.0 (Windows NT 6.3; Win64; x64) AppleWebKit/537.36 (KHTML, like Gecko) Chrome/107.0.0.0 Safari/537.36","WebKit","Chrome","107.0.0.0","Windows","6.3","1420"," ","","A remote was placed on the rug","3","Filler","",""
"","","","","","fixation","9293","html-keyboard-response","41","59281","0.0-6.0-2.1","114","3","2022-11-17 12:35:01","fd252370c17a9971d68c1d4354a03c2e","","Mozilla/5.0 (Windows NT 6.3; Win64; x64) AppleWebKit/537.36 (KHTML, like Gecko) Chrome/107.0.0.0 Safari/537.36","WebKit","Chrome","107.0.0.0","Windows","6.3","null","null","","<p style=""font-size: 48px;"">+</p>","3","Filler","",""
"","","","","","picture","9293","image-keyboard-response","42","60245","0.0-6.0-3.1","114","3","2022-11-17 12:35:01","fd252370c17a9971d68c1d4354a03c2e","","Mozilla/5.0 (Windows NT 6.3; Win64; x64) AppleWebKit/537.36 (KHTML, like Gecko) Chrome/107.0.0.0 Safari/537.36","WebKit","Chrome","107.0.0.0","Windows","6.3","958","n","","CD.jpg","3","Filler","true",""
"","","","","","fixation","9293","html-keyboard-response","43","61250","0.0-6.0-0.2","114","3","2022-11-17 12:35:01","fd252370c17a9971d68c1d4354a03c2e","","Mozilla/5.0 (Windows NT 6.3; Win64; x64) AppleWebKit/537.36 (KHTML, like Gecko) Chrome/107.0.0.0 Safari/537.36","WebKit","Chrome","107.0.0.0","Windows","6.3","null","null","","<p style=""font-size: 48px;"">+</p>","3","Filler","",""
"","","","","","sentence","9293","html-keyboard-response","44","62462","0.0-6.0-1.2","114","3","2022-11-17 12:35:01","fd252370c17a9971d68c1d4354a03c2e","","Mozilla/5.0 (Windows NT 6.3; Win64; x64) AppleWebKit/537.36 (KHTML, like Gecko) Chrome/107.0.0.0 Safari/537.36","WebKit","Chrome","107.0.0.0","Windows","6.3","1208"," ","","An astronaut is putting on a space suit","3","Filler","",""
"","","","","","fixation","9293","html-keyboard-response","45","62970","0.0-6.0-2.2","114","3","2022-11-17 12:35:01","fd252370c17a9971d68c1d4354a03c2e","","Mozilla/5.0 (Windows NT 6.3; Win64; x64) AppleWebKit/537.36 (KHTML, like Gecko) Chrome/107.0.0.0 Safari/537.36","WebKit","Chrome","107.0.0.0","Windows","6.3","null","null","","<p style=""font-size: 48px;"">+</p>","3","Filler","",""
"","","","","","picture","9293","image-keyboard-response","46","63386","0.0-6.0-3.2","114","3","2022-11-17 12:35:01","fd252370c17a9971d68c1d4354a03c2e","","Mozilla/5.0 (Windows NT 6.3; Win64; x64) AppleWebKit/537.36 (KHTML, like Gecko) Chrome/107.0.0.0 Safari/537.36","WebKit","Chrome","107.0.0.0","Windows","6.3","411","s","","spacesuit.jpg","3","Filler","true",""
"","","","","","fixation","9293","html-keyboard-response","47","64394","0.0-6.0-0.3","114","3","2022-11-17 12:35:01","fd252370c17a9971d68c1d4354a03c2e","","Mozilla/5.0 (Windows NT 6.3; Win64; x64) AppleWebKit/537.36 (KHTML, like Gecko) Chrome/107.0.0.0 Safari/537.36","WebKit","Chrome","107.0.0.0","Windows","6.3","null","null","","<p style=""font-size: 48px;"">+</p>","3","Light_Matched","",""
"","","","","","sentence","9293","html-keyboard-response","48","65883","0.0-6.0-1.3","114","3","2022-11-17 12:35:01","fd252370c17a9971d68c1d4354a03c2e","","Mozilla/5.0 (Windows NT 6.3; Win64; x64) AppleWebKit/537.36 (KHTML, like Gecko) Chrome/107.0.0.0 Safari/537.36","WebKit","Chrome","107.0.0.0","Windows","6.3","1485"," ","","A balloon dropped and touched a TV","3","Light_Matched","",""
"","","","","","fixation","9293","html-keyboard-response","49","66394","0.0-6.0-2.3","114","3","2022-11-17 12:35:01","fd252370c17a9971d68c1d4354a03c2e","","Mozilla/5.0 (Windows NT 6.3; Win64; x64) AppleWebKit/537.36 (KHTML, like Gecko) Chrome/107.0.0.0 Safari/537.36","WebKit","Chrome","107.0.0.0","Windows","6.3","null","null","","<p style=""font-size: 48px;"">+</p>","3","Light_Matched","",""
"","","","","","picture","9293","image-keyboard-response","50","67080","0.0-6.0-3.3","114","3","2022-11-17 12:35:01","fd252370c17a9971d68c1d4354a03c2e","","Mozilla/5.0 (Windows NT 6.3; Win64; x64) AppleWebKit/537.36 (KHTML, like Gecko) Chrome/107.0.0.0 Safari/537.36","WebKit","Chrome","107.0.0.0","Windows","6.3","681","s","","tvS.jpg","3","Light_Matched","true",""
"","","","","","fixation","9293","html-keyboard-response","51","68089","0.0-6.0-0.4","114","3","2022-11-17 12:35:01","fd252370c17a9971d68c1d4354a03c2e","","Mozilla/5.0 (Windows NT 6.3; Win64; x64) AppleWebKit/537.36 (KHTML, like Gecko) Chrome/107.0.0.0 Safari/537.36","WebKit","Chrome","107.0.0.0","Windows","6.3","null","null","","<p style=""font-size: 48px;"">+</p>","3","Filler","",""
"","","","","","sentence","9293","html-keyboard-response","52","70223","0.0-6.0-1.4","114","3","2022-11-17 12:35:01","fd252370c17a9971d68c1d4354a03c2e","","Mozilla/5.0 (Windows NT 6.3; Win64; x64) AppleWebKit/537.36 (KHTML, like Gecko) Chrome/107.0.0.0 Safari/537.36","WebKit","Chrome","107.0.0.0","Windows","6.3","2130"," ","","A photographer is taking a photo of a lion","3","Filler","",""
"","","","","","fixation","9293","html-keyboard-response","53","70730","0.0-6.0-2.4","114","3","2022-11-17 12:35:01","fd252370c17a9971d68c1d4354a03c2e","","Mozilla/5.0 (Windows NT 6.3; Win64; x64) AppleWebKit/537.36 (KHTML, like Gecko) Chrome/107.0.0.0 Safari/537.36","WebKit","Chrome","107.0.0.0","Windows","6.3","null","null","","<p style=""font-size: 48px;"">+</p>","3","Filler","",""
"","","","","","picture","9293","image-keyboard-response","54","71448","0.0-6.0-3.4","114","3","2022-11-17 12:35:01","fd252370c17a9971d68c1d4354a03c2e","","Mozilla/5.0 (Windows NT 6.3; Win64; x64) AppleWebKit/537.36 (KHTML, like Gecko) Chrome/107.0.0.0 Safari/537.36","WebKit","Chrome","107.0.0.0","Windows","6.3","713","s","","lion.jpg","3","Filler","true",""
"","","","","","fixation","9293","html-keyboard-response","55","72457","0.0-6.0-0.5","114","3","2022-11-17 12:35:01","fd252370c17a9971d68c1d4354a03c2e","","Mozilla/5.0 (Windows NT 6.3; Win64; x64) AppleWebKit/537.36 (KHTML, like Gecko) Chrome/107.0.0.0 Safari/537.36","WebKit","Chrome","107.0.0.0","Windows","6.3","null","null","","<p style=""font-size: 48px;"">+</p>","3","Light_Matched","",""
"","","","","","sentence","9293","html-keyboard-response","56","74349","0.0-6.0-1.5","114","3","2022-11-17 12:35:01","fd252370c17a9971d68c1d4354a03c2e","","Mozilla/5.0 (Windows NT 6.3; Win64; x64) AppleWebKit/537.36 (KHTML, like Gecko) Chrome/107.0.0.0 Safari/537.36","WebKit","Chrome","107.0.0.0","Windows","6.3","1888"," ","","A balloon dropped and touched a cracker","3","Light_Matched","",""
"","","","","","fixation","9293","html-keyboard-response","57","74858","0.0-6.0-2.5","114","3","2022-11-17 12:35:01","fd252370c17a9971d68c1d4354a03c2e","","Mozilla/5.0 (Windows NT 6.3; Win64; x64) AppleWebKit/537.36 (KHTML, like Gecko) Chrome/107.0.0.0 Safari/537.36","WebKit","Chrome","107.0.0.0","Windows","6.3","null","null","","<p style=""font-size: 48px;"">+</p>","3","Light_Matched","",""
"","","","","","picture","9293","image-keyboard-response","58","75240","0.0-6.0-3.5","114","3","2022-11-17 12:35:01","fd252370c17a9971d68c1d4354a03c2e","","Mozilla/5.0 (Windows NT 6.3; Win64; x64) AppleWebKit/537.36 (KHTML, like Gecko) Chrome/107.0.0.0 Safari/537.36","WebKit","Chrome","107.0.0.0","Windows","6.3","377","s","","crackerS.jpg","3","Light_Matched","true",""
"","","","","","fixation","9293","html-keyboard-response","59","76250","0.0-6.0-0.6","114","3","2022-11-17 12:35:01","fd252370c17a9971d68c1d4354a03c2e","","Mozilla/5.0 (Windows NT 6.3; Win64; x64) AppleWebKit/537.36 (KHTML, like Gecko) Chrome/107.0.0.0 Safari/537.36","WebKit","Chrome","107.0.0.0","Windows","6.3","null","null","","<p style=""font-size: 48px;"">+</p>","3","Light_Contradictory","",""
"","","","","","sentence","9293","html-keyboard-response","60","78400","0.0-6.0-1.6","114","3","2022-11-17 12:35:01","fd252370c17a9971d68c1d4354a03c2e","","Mozilla/5.0 (Windows NT 6.3; Win64; x64) AppleWebKit/537.36 (KHTML, like Gecko) Chrome/107.0.0.0 Safari/537.36","WebKit","Chrome","107.0.0.0","Windows","6.3","2146"," ","","A balloon dropped and smashed an egg flan","3","Light_Contradictory","",""
"","","","","","fixation","9293","html-keyboard-response","61","78906","0.0-6.0-2.6","114","3","2022-11-17 12:35:01","fd252370c17a9971d68c1d4354a03c2e","","Mozilla/5.0 (Windows NT 6.3; Win64; x64) AppleWebKit/537.36 (KHTML, like Gecko) Chrome/107.0.0.0 Safari/537.36","WebKit","Chrome","107.0.0.0","Windows","6.3","null","null","","<p style=""font-size: 48px;"">+</p>","3","Light_Contradictory","",""
"","","","","","picture","9293","image-keyboard-response","62","82680","0.0-6.0-3.6","114","3","2022-11-17 12:35:01","fd252370c17a9971d68c1d4354a03c2e","","Mozilla/5.0 (Windows NT 6.3; Win64; x64) AppleWebKit/537.36 (KHTML, like Gecko) Chrome/107.0.0.0 Safari/537.36","WebKit","Chrome","107.0.0.0","Windows","6.3","3765","n","","eggflanS.jpg","3","Light_Contradictory","false",""
"","","","","","fixation","9293","html-keyboard-response","63","83694","0.0-6.0-0.7","114","3","2022-11-17 12:35:01","fd252370c17a9971d68c1d4354a03c2e","","Mozilla/5.0 (Windows NT 6.3; Win64; x64) AppleWebKit/537.36 (KHTML, like Gecko) Chrome/107.0.0.0 Safari/537.36","WebKit","Chrome","107.0.0.0","Windows","6.3","null","null","","<p style=""font-size: 48px;"">+</p>","3","Filler","",""
"","","","","","sentence","9293","html-keyboard-response","64","85332","0.0-6.0-1.7","114","3","2022-11-17 12:35:01","fd252370c17a9971d68c1d4354a03c2e","","Mozilla/5.0 (Windows NT 6.3; Win64; x64) AppleWebKit/537.36 (KHTML, like Gecko) Chrome/107.0.0.0 Safari/537.36","WebKit","Chrome","107.0.0.0","Windows","6.3","1633"," ","","A panda is resting on a tree","3","Filler","",""
"","","","","","fixation","9293","html-keyboard-response","65","85838","0.0-6.0-2.7","114","3","2022-11-17 12:35:01","fd252370c17a9971d68c1d4354a03c2e","","Mozilla/5.0 (Windows NT 6.3; Win64; x64) AppleWebKit/537.36 (KHTML, like Gecko) Chrome/107.0.0.0 Safari/537.36","WebKit","Chrome","107.0.0.0","Windows","6.3","null","null","","<p style=""font-size: 48px;"">+</p>","3","Filler","",""
"","","","","","picture","9293","image-keyboard-response","66","86333","0.0-6.0-3.7","114","3","2022-11-17 12:35:01","fd252370c17a9971d68c1d4354a03c2e","","Mozilla/5.0 (Windows NT 6.3; Win64; x64) AppleWebKit/537.36 (KHTML, like Gecko) Chrome/107.0.0.0 Safari/537.36","WebKit","Chrome","107.0.0.0","Windows","6.3","490","n","","dollar.jpg","3","Filler","true",""
"","","","","","fixation","9293","html-keyboard-response","67","87342","0.0-6.0-0.8","114","3","2022-11-17 12:35:01","fd252370c17a9971d68c1d4354a03c2e","","Mozilla/5.0 (Windows NT 6.3; Win64; x64) AppleWebKit/537.36 (KHTML, like Gecko) Chrome/107.0.0.0 Safari/537.36","WebKit","Chrome","107.0.0.0","Windows","6.3","null","null","","<p style=""font-size: 48px;"">+</p>","3","Filler","",""
"","","","","","sentence","9293","html-keyboard-response","68","88150","0.0-6.0-1.8","114","3","2022-11-17 12:35:01","fd252370c17a9971d68c1d4354a03c2e","","Mozilla/5.0 (Windows NT 6.3; Win64; x64) AppleWebKit/537.36 (KHTML, like Gecko) Chrome/107.0.0.0 Safari/537.36","WebKit","Chrome","107.0.0.0","Windows","6.3","804"," ","","A zebra is playing with a horse","3","Filler","",""
"","","","","","fixation","9293","html-keyboard-response","69","88662","0.0-6.0-2.8","114","3","2022-11-17 12:35:01","fd252370c17a9971d68c1d4354a03c2e","","Mozilla/5.0 (Windows NT 6.3; Win64; x64) AppleWebKit/537.36 (KHTML, like Gecko) Chrome/107.0.0.0 Safari/537.36","WebKit","Chrome","107.0.0.0","Windows","6.3","null","null","","<p style=""font-size: 48px;"">+</p>","3","Filler","",""
"","","","","","picture","9293","image-keyboard-response","70","89310","0.0-6.0-3.8","114","3","2022-11-17 12:35:01","fd252370c17a9971d68c1d4354a03c2e","","Mozilla/5.0 (Windows NT 6.3; Win64; x64) AppleWebKit/537.36 (KHTML, like Gecko) Chrome/107.0.0.0 Safari/537.36","WebKit","Chrome","107.0.0.0","Windows","6.3","643","n","","watch.jpg","3","Filler","true",""
"","","","","","fixation","9293","html-keyboard-response","71","90326","0.0-6.0-0.9","114","3","2022-11-17 12:35:01","fd252370c17a9971d68c1d4354a03c2e","","Mozilla/5.0 (Windows NT 6.3; Win64; x64) AppleWebKit/537.36 (KHTML, like Gecko) Chrome/107.0.0.0 Safari/537.36","WebKit","Chrome","107.0.0.0","Windows","6.3","null","null","","<p style=""font-size: 48px;"">+</p>","3","Filler","",""
"","","","","","sentence","9293","html-keyboard-response","72","92051","0.0-6.0-1.9","114","3","2022-11-17 12:35:01","fd252370c17a9971d68c1d4354a03c2e","","Mozilla/5.0 (Windows NT 6.3; Win64; x64) AppleWebKit/537.36 (KHTML, like Gecko) Chrome/107.0.0.0 Safari/537.36","WebKit","Chrome","107.0.0.0","Windows","6.3","1720"," ","","A woman is taking money out of a wallet","3","Filler","",""
"","","","","","fixation","9293","html-keyboard-response","73","92557","0.0-6.0-2.9","114","3","2022-11-17 12:35:01","fd252370c17a9971d68c1d4354a03c2e","","Mozilla/5.0 (Windows NT 6.3; Win64; x64) AppleWebKit/537.36 (KHTML, like Gecko) Chrome/107.0.0.0 Safari/537.36","WebKit","Chrome","107.0.0.0","Windows","6.3","null","null","","<p style=""font-size: 48px;"">+</p>","3","Filler","",""
"","","","","","picture","9293","image-keyboard-response","74","93231","0.0-6.0-3.9","114","3","2022-11-17 12:35:01","fd252370c17a9971d68c1d4354a03c2e","","Mozilla/5.0 (Windows NT 6.3; Win64; x64) AppleWebKit/537.36 (KHTML, like Gecko) Chrome/107.0.0.0 Safari/537.36","WebKit","Chrome","107.0.0.0","Windows","6.3","666","n","","coconut.jpg","3","Filler","true",""
"","","","","","fixation","9293","html-keyboard-response","75","94246","0.0-6.0-0.10","114","3","2022-11-17 12:35:01","fd252370c17a9971d68c1d4354a03c2e","","Mozilla/5.0 (Windows NT 6.3; Win64; x64) AppleWebKit/537.36 (KHTML, like Gecko) Chrome/107.0.0.0 Safari/537.36","WebKit","Chrome","107.0.0.0","Windows","6.3","null","null","","<p style=""font-size: 48px;"">+</p>","3","Heavy_Contradictory","",""
"","","","","","sentence","9293","html-keyboard-response","76","95573","0.0-6.0-1.10","114","3","2022-11-17 12:35:01","fd252370c17a9971d68c1d4354a03c2e","","Mozilla/5.0 (Windows NT 6.3; Win64; x64) AppleWebKit/537.36 (KHTML, like Gecko) Chrome/107.0.0.0 Safari/537.36","WebKit","Chrome","107.0.0.0","Windows","6.3","1322"," ","","A bowling ball dropped and touched a tomato","3","Heavy_Contradictory","",""
"","","","","","fixation","9293","html-keyboard-response","77","96085","0.0-6.0-2.10","114","3","2022-11-17 12:35:01","fd252370c17a9971d68c1d4354a03c2e","","Mozilla/5.0 (Windows NT 6.3; Win64; x64) AppleWebKit/537.36 (KHTML, like Gecko) Chrome/107.0.0.0 Safari/537.36","WebKit","Chrome","107.0.0.0","Windows","6.3","null","null","","<p style=""font-size: 48px;"">+</p>","3","Heavy_Contradictory","",""
"","","","","","picture","9293","image-keyboard-response","78","96474","0.0-6.0-3.10","114","3","2022-11-17 12:35:01","fd252370c17a9971d68c1d4354a03c2e","","Mozilla/5.0 (Windows NT 6.3; Win64; x64) AppleWebKit/537.36 (KHTML, like Gecko) Chrome/107.0.0.0 Safari/537.36","WebKit","Chrome","107.0.0.0","Windows","6.3","383","s","","tomatoS.jpg","3","Heavy_Contradictory","true",""
"","","","","","fixation","9293","html-keyboard-response","79","97485","0.0-6.0-0.11","114","3","2022-11-17 12:35:01","fd252370c17a9971d68c1d4354a03c2e","","Mozilla/5.0 (Windows NT 6.3; Win64; x64) AppleWebKit/537.36 (KHTML, like Gecko) Chrome/107.0.0.0 Safari/537.36","WebKit","Chrome","107.0.0.0","Windows","6.3","null","null","","<p style=""font-size: 48px;"">+</p>","3","Filler","",""
"","","","","","sentence","9293","html-keyboard-response","80","99702","0.0-6.0-1.11","114","3","2022-11-17 12:35:01","fd252370c17a9971d68c1d4354a03c2e","","Mozilla/5.0 (Windows NT 6.3; Win64; x64) AppleWebKit/537.36 (KHTML, like Gecko) Chrome/107.0.0.0 Safari/537.36","WebKit","Chrome","107.0.0.0","Windows","6.3","2212"," ","","A cushion was placed on the magazine","3","Filler","",""
"","","","","","fixation","9293","html-keyboard-response","81","100214","0.0-6.0-2.11","114","3","2022-11-17 12:35:01","fd252370c17a9971d68c1d4354a03c2e","","Mozilla/5.0 (Windows NT 6.3; Win64; x64) AppleWebKit/537.36 (KHTML, like Gecko) Chrome/107.0.0.0 Safari/537.36","WebKit","Chrome","107.0.0.0","Windows","6.3","null","null","","<p style=""font-size: 48px;"">+</p>","3","Filler","",""
"","","","","","picture","9293","image-keyboard-response","82","101736","0.0-6.0-3.11","114","3","2022-11-17 12:35:01","fd252370c17a9971d68c1d4354a03c2e","","Mozilla/5.0 (Windows NT 6.3; Win64; x64) AppleWebKit/537.36 (KHTML, like Gecko) Chrome/107.0.0.0 Safari/537.36","WebKit","Chrome","107.0.0.0","Windows","6.3","1515","n","","box.jpg","3","Filler","true",""
"","","","","","fixation","9293","html-keyboard-response","83","102750","0.0-6.0-0.12","114","3","2022-11-17 12:35:01","fd252370c17a9971d68c1d4354a03c2e","","Mozilla/5.0 (Windows NT 6.3; Win64; x64) AppleWebKit/537.36 (KHTML, like Gecko) Chrome/107.0.0.0 Safari/537.36","WebKit","Chrome","107.0.0.0","Windows","6.3","null","null","","<p style=""font-size: 48px;"">+</p>","3","Light_Matched","",""
"","","","","","sentence","9293","html-keyboard-response","84","104467","0.0-6.0-1.12","114","3","2022-11-17 12:35:01","fd252370c17a9971d68c1d4354a03c2e","","Mozilla/5.0 (Windows NT 6.3; Win64; x64) AppleWebKit/537.36 (KHTML, like Gecko) Chrome/107.0.0.0 Safari/537.36","WebKit","Chrome","107.0.0.0","Windows","6.3","1712"," ","","A balloon dropped and touched a porcelain figure","3","Light_Matched","",""
"","","","","","fixation","9293","html-keyboard-response","85","104974","0.0-6.0-2.12","114","3","2022-11-17 12:35:01","fd252370c17a9971d68c1d4354a03c2e","","Mozilla/5.0 (Windows NT 6.3; Win64; x64) AppleWebKit/537.36 (KHTML, like Gecko) Chrome/107.0.0.0 Safari/537.36","WebKit","Chrome","107.0.0.0","Windows","6.3","null","null","","<p style=""font-size: 48px;"">+</p>","3","Light_Matched","",""
"","","","","","picture","9293","image-keyboard-response","86","105962","0.0-6.0-3.12","114","3","2022-11-17 12:35:01","fd252370c17a9971d68c1d4354a03c2e","","Mozilla/5.0 (Windows NT 6.3; Win64; x64) AppleWebKit/537.36 (KHTML, like Gecko) Chrome/107.0.0.0 Safari/537.36","WebKit","Chrome","107.0.0.0","Windows","6.3","982","s","","figureS.jpg","3","Light_Matched","true",""
"","","","","","fixation","9293","html-keyboard-response","87","106973","0.0-6.0-0.13","114","3","2022-11-17 12:35:01","fd252370c17a9971d68c1d4354a03c2e","","Mozilla/5.0 (Windows NT 6.3; Win64; x64) AppleWebKit/537.36 (KHTML, like Gecko) Chrome/107.0.0.0 Safari/537.36","WebKit","Chrome","107.0.0.0","Windows","6.3","null","null","","<p style=""font-size: 48px;"">+</p>","3","Filler","",""
"","","","","","sentence","9293","html-keyboard-response","88","108099","0.0-6.0-1.13","114","3","2022-11-17 12:35:01","fd252370c17a9971d68c1d4354a03c2e","","Mozilla/5.0 (Windows NT 6.3; Win64; x64) AppleWebKit/537.36 (KHTML, like Gecko) Chrome/107.0.0.0 Safari/537.36","WebKit","Chrome","107.0.0.0","Windows","6.3","1121"," ","","A pilot is reading a book","3","Filler","",""
"","","","","","fixation","9293","html-keyboard-response","89","108613","0.0-6.0-2.13","114","3","2022-11-17 12:35:01","fd252370c17a9971d68c1d4354a03c2e","","Mozilla/5.0 (Windows NT 6.3; Win64; x64) AppleWebKit/537.36 (KHTML, like Gecko) Chrome/107.0.0.0 Safari/537.36","WebKit","Chrome","107.0.0.0","Windows","6.3","null","null","","<p style=""font-size: 48px;"">+</p>","3","Filler","",""
"","","","","","picture","9293","image-keyboard-response","90","109305","0.0-6.0-3.13","114","3","2022-11-17 12:35:01","fd252370c17a9971d68c1d4354a03c2e","","Mozilla/5.0 (Windows NT 6.3; Win64; x64) AppleWebKit/537.36 (KHTML, like Gecko) Chrome/107.0.0.0 Safari/537.36","WebKit","Chrome","107.0.0.0","Windows","6.3","684","n","","spoon.jpg","3","Filler","true",""
"","","","","","fixation","9293","html-keyboard-response","91","110317","0.0-6.0-0.14","114","3","2022-11-17 12:35:01","fd252370c17a9971d68c1d4354a03c2e","","Mozilla/5.0 (Windows NT 6.3; Win64; x64) AppleWebKit/537.36 (KHTML, like Gecko) Chrome/107.0.0.0 Safari/537.36","WebKit","Chrome","107.0.0.0","Windows","6.3","null","null","","<p style=""font-size: 48px;"">+</p>","3","Filler","",""
"","","","","","sentence","9293","html-keyboard-response","92","111657","0.0-6.0-1.14","114","3","2022-11-17 12:35:01","fd252370c17a9971d68c1d4354a03c2e","","Mozilla/5.0 (Windows NT 6.3; Win64; x64) AppleWebKit/537.36 (KHTML, like Gecko) Chrome/107.0.0.0 Safari/537.36","WebKit","Chrome","107.0.0.0","Windows","6.3","1333"," ","","A watch was placed on the laptop","3","Filler","",""
"","","","","","fixation","9293","html-keyboard-response","93","112166","0.0-6.0-2.14","114","3","2022-11-17 12:35:01","fd252370c17a9971d68c1d4354a03c2e","","Mozilla/5.0 (Windows NT 6.3; Win64; x64) AppleWebKit/537.36 (KHTML, like Gecko) Chrome/107.0.0.0 Safari/537.36","WebKit","Chrome","107.0.0.0","Windows","6.3","null","null","","<p style=""font-size: 48px;"">+</p>","3","Filler","",""
"","","","","","picture","9293","image-keyboard-response","94","112888","0.0-6.0-3.14","114","3","2022-11-17 12:35:01","fd252370c17a9971d68c1d4354a03c2e","","Mozilla/5.0 (Windows NT 6.3; Win64; x64) AppleWebKit/537.36 (KHTML, like Gecko) Chrome/107.0.0.0 Safari/537.36","WebKit","Chrome","107.0.0.0","Windows","6.3","714","n","","bow.jpg","3","Filler","true",""
"","","","","","fixation","9293","html-keyboard-response","95","113901","0.0-6.0-0.15","114","3","2022-11-17 12:35:01","fd252370c17a9971d68c1d4354a03c2e","","Mozilla/5.0 (Windows NT 6.3; Win64; x64) AppleWebKit/537.36 (KHTML, like Gecko) Chrome/107.0.0.0 Safari/537.36","WebKit","Chrome","107.0.0.0","Windows","6.3","null","null","","<p style=""font-size: 48px;"">+</p>","3","Light_Matched","",""
"","","","","","sentence","9293","html-keyboard-response","96","115632","0.0-6.0-1.15","114","3","2022-11-17 12:35:01","fd252370c17a9971d68c1d4354a03c2e","","Mozilla/5.0 (Windows NT 6.3; Win64; x64) AppleWebKit/537.36 (KHTML, like Gecko) Chrome/107.0.0.0 Safari/537.36","WebKit","Chrome","107.0.0.0","Windows","6.3","1724"," ","","A balloon dropped and touched an egg","3","Light_Matched","",""
"","","","","","fixation","9293","html-keyboard-response","97","116141","0.0-6.0-2.15","114","3","2022-11-17 12:35:01","fd252370c17a9971d68c1d4354a03c2e","","Mozilla/5.0 (Windows NT 6.3; Win64; x64) AppleWebKit/537.36 (KHTML, like Gecko) Chrome/107.0.0.0 Safari/537.36","WebKit","Chrome","107.0.0.0","Windows","6.3","null","null","","<p style=""font-size: 48px;"">+</p>","3","Light_Matched","",""
"","","","","","picture","9293","image-keyboard-response","98","116503","0.0-6.0-3.15","114","3","2022-11-17 12:35:01","fd252370c17a9971d68c1d4354a03c2e","","Mozilla/5.0 (Windows NT 6.3; Win64; x64) AppleWebKit/537.36 (KHTML, like Gecko) Chrome/107.0.0.0 Safari/537.36","WebKit","Chrome","107.0.0.0","Windows","6.3","354","s","","eggS.jpg","3","Light_Matched","true",""
"","","","","","fixation","9293","html-keyboard-response","99","117518","0.0-6.0-0.16","114","3","2022-11-17 12:35:01","fd252370c17a9971d68c1d4354a03c2e","","Mozilla/5.0 (Windows NT 6.3; Win64; x64) AppleWebKit/537.36 (KHTML, like Gecko) Chrome/107.0.0.0 Safari/537.36","WebKit","Chrome","107.0.0.0","Windows","6.3","null","null","","<p style=""font-size: 48px;"">+</p>","3","Filler","",""
"","","","","","sentence","9293","html-keyboard-response","100","118374","0.0-6.0-1.16","114","3","2022-11-17 12:35:01","fd252370c17a9971d68c1d4354a03c2e","","Mozilla/5.0 (Windows NT 6.3; Win64; x64) AppleWebKit/537.36 (KHTML, like Gecko) Chrome/107.0.0.0 Safari/537.36","WebKit","Chrome","107.0.0.0","Windows","6.3","849"," ","","A pencil was placed on the shoe","3","Filler","",""
"","","","","","fixation","9293","html-keyboard-response","101","118885","0.0-6.0-2.16","114","3","2022-11-17 12:35:01","fd252370c17a9971d68c1d4354a03c2e","","Mozilla/5.0 (Windows NT 6.3; Win64; x64) AppleWebKit/537.36 (KHTML, like Gecko) Chrome/107.0.0.0 Safari/537.36","WebKit","Chrome","107.0.0.0","Windows","6.3","null","null","","<p style=""font-size: 48px;"">+</p>","3","Filler","",""
"","","","","","picture","9293","image-keyboard-response","102","119740","0.0-6.0-3.16","114","3","2022-11-17 12:35:01","fd252370c17a9971d68c1d4354a03c2e","","Mozilla/5.0 (Windows NT 6.3; Win64; x64) AppleWebKit/537.36 (KHTML, like Gecko) Chrome/107.0.0.0 Safari/537.36","WebKit","Chrome","107.0.0.0","Windows","6.3","846","n","","perfume.jpg","3","Filler","true",""
"","","","","","fixation","9293","html-keyboard-response","103","120749","0.0-6.0-0.17","114","3","2022-11-17 12:35:01","fd252370c17a9971d68c1d4354a03c2e","","Mozilla/5.0 (Windows NT 6.3; Win64; x64) AppleWebKit/537.36 (KHTML, like Gecko) Chrome/107.0.0.0 Safari/537.36","WebKit","Chrome","107.0.0.0","Windows","6.3","null","null","","<p style=""font-size: 48px;"">+</p>","3","Filler","",""
"","","","","","sentence","9293","html-keyboard-response","104","122528","0.0-6.0-1.17","114","3","2022-11-17 12:35:01","fd252370c17a9971d68c1d4354a03c2e","","Mozilla/5.0 (Windows NT 6.3; Win64; x64) AppleWebKit/537.36 (KHTML, like Gecko) Chrome/107.0.0.0 Safari/537.36","WebKit","Chrome","107.0.0.0","Windows","6.3","1771"," ","","A fork was placed on the plate","3","Filler","",""
"","","","","","fixation","9293","html-keyboard-response","105","123037","0.0-6.0-2.17","114","3","2022-11-17 12:35:01","fd252370c17a9971d68c1d4354a03c2e","","Mozilla/5.0 (Windows NT 6.3; Win64; x64) AppleWebKit/537.36 (KHTML, like Gecko) Chrome/107.0.0.0 Safari/537.36","WebKit","Chrome","107.0.0.0","Windows","6.3","null","null","","<p style=""font-size: 48px;"">+</p>","3","Filler","",""
"","","","","","picture","9293","image-keyboard-response","106","123755","0.0-6.0-3.17","114","3","2022-11-17 12:35:01","fd252370c17a9971d68c1d4354a03c2e","","Mozilla/5.0 (Windows NT 6.3; Win64; x64) AppleWebKit/537.36 (KHTML, like Gecko) Chrome/107.0.0.0 Safari/537.36","WebKit","Chrome","107.0.0.0","Windows","6.3","711","s","","plate.jpg","3","Filler","true",""
"","","","","","fixation","9293","html-keyboard-response","107","124766","0.0-6.0-0.18","114","3","2022-11-17 12:35:01","fd252370c17a9971d68c1d4354a03c2e","","Mozilla/5.0 (Windows NT 6.3; Win64; x64) AppleWebKit/537.36 (KHTML, like Gecko) Chrome/107.0.0.0 Safari/537.36","WebKit","Chrome","107.0.0.0","Windows","6.3","null","null","","<p style=""font-size: 48px;"">+</p>","3","Filler","",""
"","","","","","sentence","9293","html-keyboard-response","108","125851","0.0-6.0-1.18","114","3","2022-11-17 12:35:01","fd252370c17a9971d68c1d4354a03c2e","","Mozilla/5.0 (Windows NT 6.3; Win64; x64) AppleWebKit/537.36 (KHTML, like Gecko) Chrome/107.0.0.0 Safari/537.36","WebKit","Chrome","107.0.0.0","Windows","6.3","1077"," ","","A musician is playing a guitar","3","Filler","",""
"","","","","","fixation","9293","html-keyboard-response","109","126365","0.0-6.0-2.18","114","3","2022-11-17 12:35:01","fd252370c17a9971d68c1d4354a03c2e","","Mozilla/5.0 (Windows NT 6.3; Win64; x64) AppleWebKit/537.36 (KHTML, like Gecko) Chrome/107.0.0.0 Safari/537.36","WebKit","Chrome","107.0.0.0","Windows","6.3","null","null","","<p style=""font-size: 48px;"">+</p>","3","Filler","",""
"","","","","","picture","9293","image-keyboard-response","110","126806","0.0-6.0-3.18","114","3","2022-11-17 12:35:01","fd252370c17a9971d68c1d4354a03c2e","","Mozilla/5.0 (Windows NT 6.3; Win64; x64) AppleWebKit/537.36 (KHTML, like Gecko) Chrome/107.0.0.0 Safari/537.36","WebKit","Chrome","107.0.0.0","Windows","6.3","432","s","","guitar.jpg","3","Filler","true",""
"","","","","","fixation","9293","html-keyboard-response","111","127821","0.0-6.0-0.19","114","3","2022-11-17 12:35:01","fd252370c17a9971d68c1d4354a03c2e","","Mozilla/5.0 (Windows NT 6.3; Win64; x64) AppleWebKit/537.36 (KHTML, like Gecko) Chrome/107.0.0.0 Safari/537.36","WebKit","Chrome","107.0.0.0","Windows","6.3","null","null","","<p style=""font-size: 48px;"">+</p>","3","Heavy_Contradictory","",""
"","","","","","sentence","9293","html-keyboard-response","112","130150","0.0-6.0-1.19","114","3","2022-11-17 12:35:01","fd252370c17a9971d68c1d4354a03c2e","","Mozilla/5.0 (Windows NT 6.3; Win64; x64) AppleWebKit/537.36 (KHTML, like Gecko) Chrome/107.0.0.0 Safari/537.36","WebKit","Chrome","107.0.0.0","Windows","6.3","2322"," ","","A bowling ball dropped and touched a vase","3","Heavy_Contradictory","",""
"","","","","","fixation","9293","html-keyboard-response","113","130661","0.0-6.0-2.19","114","3","2022-11-17 12:35:01","fd252370c17a9971d68c1d4354a03c2e","","Mozilla/5.0 (Windows NT 6.3; Win64; x64) AppleWebKit/537.36 (KHTML, like Gecko) Chrome/107.0.0.0 Safari/537.36","WebKit","Chrome","107.0.0.0","Windows","6.3","null","null","","<p style=""font-size: 48px;"">+</p>","3","Heavy_Contradictory","",""
"","","","","","picture","9293","image-keyboard-response","114","131728","0.0-6.0-3.19","114","3","2022-11-17 12:35:01","fd252370c17a9971d68c1d4354a03c2e","","Mozilla/5.0 (Windows NT 6.3; Win64; x64) AppleWebKit/537.36 (KHTML, like Gecko) Chrome/107.0.0.0 Safari/537.36","WebKit","Chrome","107.0.0.0","Windows","6.3","1057","s","","vaseS.jpg","3","Heavy_Contradictory","true",""
"","","","","","fixation","9293","html-keyboard-response","115","132742","0.0-6.0-0.20","114","3","2022-11-17 12:35:01","fd252370c17a9971d68c1d4354a03c2e","","Mozilla/5.0 (Windows NT 6.3; Win64; x64) AppleWebKit/537.36 (KHTML, like Gecko) Chrome/107.0.0.0 Safari/537.36","WebKit","Chrome","107.0.0.0","Windows","6.3","null","null","","<p style=""font-size: 48px;"">+</p>","3","Filler","",""
"","","","","","sentence","9293","html-keyboard-response","116","134315","0.0-6.0-1.20","114","3","2022-11-17 12:35:01","fd252370c17a9971d68c1d4354a03c2e","","Mozilla/5.0 (Windows NT 6.3; Win64; x64) AppleWebKit/537.36 (KHTML, like Gecko) Chrome/107.0.0.0 Safari/537.36","WebKit","Chrome","107.0.0.0","Windows","6.3","1566"," ","","A dentist is drinking a can of cola","3","Filler","",""
"","","","","","fixation","9293","html-keyboard-response","117","134829","0.0-6.0-2.20","114","3","2022-11-17 12:35:01","fd252370c17a9971d68c1d4354a03c2e","","Mozilla/5.0 (Windows NT 6.3; Win64; x64) AppleWebKit/537.36 (KHTML, like Gecko) Chrome/107.0.0.0 Safari/537.36","WebKit","Chrome","107.0.0.0","Windows","6.3","null","null","","<p style=""font-size: 48px;"">+</p>","3","Filler","",""
"","","","","","picture","9293","image-keyboard-response","118","135294","0.0-6.0-3.20","114","3","2022-11-17 12:35:01","fd252370c17a9971d68c1d4354a03c2e","","Mozilla/5.0 (Windows NT 6.3; Win64; x64) AppleWebKit/537.36 (KHTML, like Gecko) Chrome/107.0.0.0 Safari/537.36","WebKit","Chrome","107.0.0.0","Windows","6.3","456","n","","doll.jpg","3","Filler","true",""
"","","","","","fixation","9293","html-keyboard-response","119","136309","0.0-6.0-0.21","114","3","2022-11-17 12:35:01","fd252370c17a9971d68c1d4354a03c2e","","Mozilla/5.0 (Windows NT 6.3; Win64; x64) AppleWebKit/537.36 (KHTML, like Gecko) Chrome/107.0.0.0 Safari/537.36","WebKit","Chrome","107.0.0.0","Windows","6.3","null","null","","<p style=""font-size: 48px;"">+</p>","3","Light_Contradictory","",""
"","","","","","sentence","9293","html-keyboard-response","120","138838","0.0-6.0-1.21","114","3","2022-11-17 12:35:01","fd252370c17a9971d68c1d4354a03c2e","","Mozilla/5.0 (Windows NT 6.3; Win64; x64) AppleWebKit/537.36 (KHTML, like Gecko) Chrome/107.0.0.0 Safari/537.36","WebKit","Chrome","107.0.0.0","Windows","6.3","2521"," ","","A balloon dropped and smashed a blackberry","3","Light_Contradictory","",""
"","","","","","fixation","9293","html-keyboard-response","121","139349","0.0-6.0-2.21","114","3","2022-11-17 12:35:01","fd252370c17a9971d68c1d4354a03c2e","","Mozilla/5.0 (Windows NT 6.3; Win64; x64) AppleWebKit/537.36 (KHTML, like Gecko) Chrome/107.0.0.0 Safari/537.36","WebKit","Chrome","107.0.0.0","Windows","6.3","null","null","","<p style=""font-size: 48px;"">+</p>","3","Light_Contradictory","",""
"","","","","","picture","9293","image-keyboard-response","122","139828","0.0-6.0-3.21","114","3","2022-11-17 12:35:01","fd252370c17a9971d68c1d4354a03c2e","","Mozilla/5.0 (Windows NT 6.3; Win64; x64) AppleWebKit/537.36 (KHTML, like Gecko) Chrome/107.0.0.0 Safari/537.36","WebKit","Chrome","107.0.0.0","Windows","6.3","469","s","","blackberryS.jpg","3","Light_Contradictory","true",""
"","","","","","fixation","9293","html-keyboard-response","123","140846","0.0-6.0-0.22","114","3","2022-11-17 12:35:01","fd252370c17a9971d68c1d4354a03c2e","","Mozilla/5.0 (Windows NT 6.3; Win64; x64) AppleWebKit/537.36 (KHTML, like Gecko) Chrome/107.0.0.0 Safari/537.36","WebKit","Chrome","107.0.0.0","Windows","6.3","null","null","","<p style=""font-size: 48px;"">+</p>","3","Filler","",""
"","","","","","sentence","9293","html-keyboard-response","124","141943","0.0-6.0-1.22","114","3","2022-11-17 12:35:01","fd252370c17a9971d68c1d4354a03c2e","","Mozilla/5.0 (Windows NT 6.3; Win64; x64) AppleWebKit/537.36 (KHTML, like Gecko) Chrome/107.0.0.0 Safari/537.36","WebKit","Chrome","107.0.0.0","Windows","6.3","1089"," ","","A giraffe is playing with a zebra","3","Filler","",""
"","","","","","fixation","9293","html-keyboard-response","125","142462","0.0-6.0-2.22","114","3","2022-11-17 12:35:01","fd252370c17a9971d68c1d4354a03c2e","","Mozilla/5.0 (Windows NT 6.3; Win64; x64) AppleWebKit/537.36 (KHTML, like Gecko) Chrome/107.0.0.0 Safari/537.36","WebKit","Chrome","107.0.0.0","Windows","6.3","null","null","","<p style=""font-size: 48px;"">+</p>","3","Filler","",""
"","","","","","picture","9293","image-keyboard-response","126","143045","0.0-6.0-3.22","114","3","2022-11-17 12:35:01","fd252370c17a9971d68c1d4354a03c2e","","Mozilla/5.0 (Windows NT 6.3; Win64; x64) AppleWebKit/537.36 (KHTML, like Gecko) Chrome/107.0.0.0 Safari/537.36","WebKit","Chrome","107.0.0.0","Windows","6.3","573","n","","wallet.jpg","3","Filler","true",""
"","","","","","fixation","9293","html-keyboard-response","127","144063","0.0-6.0-0.23","114","3","2022-11-17 12:35:01","fd252370c17a9971d68c1d4354a03c2e","","Mozilla/5.0 (Windows NT 6.3; Win64; x64) AppleWebKit/537.36 (KHTML, like Gecko) Chrome/107.0.0.0 Safari/537.36","WebKit","Chrome","107.0.0.0","Windows","6.3","null","null","","<p style=""font-size: 48px;"">+</p>","3","Filler","",""
"","","","","","sentence","9293","html-keyboard-response","128","144939","0.0-6.0-1.23","114","3","2022-11-17 12:35:01","fd252370c17a9971d68c1d4354a03c2e","","Mozilla/5.0 (Windows NT 6.3; Win64; x64) AppleWebKit/537.36 (KHTML, like Gecko) Chrome/107.0.0.0 Safari/537.36","WebKit","Chrome","107.0.0.0","Windows","6.3","865"," ","","A mouse is eating cheese","3","Filler","",""
"","","","","","fixation","9293","html-keyboard-response","129","145446","0.0-6.0-2.23","114","3","2022-11-17 12:35:01","fd252370c17a9971d68c1d4354a03c2e","","Mozilla/5.0 (Windows NT 6.3; Win64; x64) AppleWebKit/537.36 (KHTML, like Gecko) Chrome/107.0.0.0 Safari/537.36","WebKit","Chrome","107.0.0.0","Windows","6.3","null","null","","<p style=""font-size: 48px;"">+</p>","3","Filler","",""
"","","","","","picture","9293","image-keyboard-response","130","146091","0.0-6.0-3.23","114","3","2022-11-17 12:35:01","fd252370c17a9971d68c1d4354a03c2e","","Mozilla/5.0 (Windows NT 6.3; Win64; x64) AppleWebKit/537.36 (KHTML, like Gecko) Chrome/107.0.0.0 Safari/537.36","WebKit","Chrome","107.0.0.0","Windows","6.3","635","n","","ring.jpg","3","Filler","true",""
"","","","","","fixation","9293","html-keyboard-response","131","147102","0.0-6.0-0.24","114","3","2022-11-17 12:35:01","fd252370c17a9971d68c1d4354a03c2e","","Mozilla/5.0 (Windows NT 6.3; Win64; x64) AppleWebKit/537.36 (KHTML, like Gecko) Chrome/107.0.0.0 Safari/537.36","WebKit","Chrome","107.0.0.0","Windows","6.3","null","null","","<p style=""font-size: 48px;"">+</p>","3","Light_Matched","",""
"","","","","","sentence","9293","html-keyboard-response","132","148342","0.0-6.0-1.24","114","3","2022-11-17 12:35:01","fd252370c17a9971d68c1d4354a03c2e","","Mozilla/5.0 (Windows NT 6.3; Win64; x64) AppleWebKit/537.36 (KHTML, like Gecko) Chrome/107.0.0.0 Safari/537.36","WebKit","Chrome","107.0.0.0","Windows","6.3","1233"," ","","A balloon dropped and touched a wineglass","3","Light_Matched","",""
"","","","","","fixation","9293","html-keyboard-response","133","148854","0.0-6.0-2.24","114","3","2022-11-17 12:35:01","fd252370c17a9971d68c1d4354a03c2e","","Mozilla/5.0 (Windows NT 6.3; Win64; x64) AppleWebKit/537.36 (KHTML, like Gecko) Chrome/107.0.0.0 Safari/537.36","WebKit","Chrome","107.0.0.0","Windows","6.3","null","null","","<p style=""font-size: 48px;"">+</p>","3","Light_Matched","",""
"","","","","","picture","9293","image-keyboard-response","134","149469","0.0-6.0-3.24","114","3","2022-11-17 12:35:01","fd252370c17a9971d68c1d4354a03c2e","","Mozilla/5.0 (Windows NT 6.3; Win64; x64) AppleWebKit/537.36 (KHTML, like Gecko) Chrome/107.0.0.0 Safari/537.36","WebKit","Chrome","107.0.0.0","Windows","6.3","607","s","","wineglassS.jpg","3","Light_Matched","true",""
"","","","","","fixation","9293","html-keyboard-response","135","150478","0.0-6.0-0.25","114","3","2022-11-17 12:35:01","fd252370c17a9971d68c1d4354a03c2e","","Mozilla/5.0 (Windows NT 6.3; Win64; x64) AppleWebKit/537.36 (KHTML, like Gecko) Chrome/107.0.0.0 Safari/537.36","WebKit","Chrome","107.0.0.0","Windows","6.3","null","null","","<p style=""font-size: 48px;"">+</p>","3","Heavy_Contradictory","",""
"","","","","","sentence","9293","html-keyboard-response","136","151183","0.0-6.0-1.25","114","3","2022-11-17 12:35:01","fd252370c17a9971d68c1d4354a03c2e","","Mozilla/5.0 (Windows NT 6.3; Win64; x64) AppleWebKit/537.36 (KHTML, like Gecko) Chrome/107.0.0.0 Safari/537.36","WebKit","Chrome","107.0.0.0","Windows","6.3","699"," ","","A bowling ball dropped and touched a strawberry","3","Heavy_Contradictory","",""
"","","","","","fixation","9293","html-keyboard-response","137","151694","0.0-6.0-2.25","114","3","2022-11-17 12:35:01","fd252370c17a9971d68c1d4354a03c2e","","Mozilla/5.0 (Windows NT 6.3; Win64; x64) AppleWebKit/537.36 (KHTML, like Gecko) Chrome/107.0.0.0 Safari/537.36","WebKit","Chrome","107.0.0.0","Windows","6.3","null","null","","<p style=""font-size: 48px;"">+</p>","3","Heavy_Contradictory","",""
"","","","","","picture","9293","image-keyboard-response","138","152310","0.0-6.0-3.25","114","3","2022-11-17 12:35:01","fd252370c17a9971d68c1d4354a03c2e","","Mozilla/5.0 (Windows NT 6.3; Win64; x64) AppleWebKit/537.36 (KHTML, like Gecko) Chrome/107.0.0.0 Safari/537.36","WebKit","Chrome","107.0.0.0","Windows","6.3","608","s","","strawberryS.jpg","3","Heavy_Contradictory","true",""
"","","","","","fixation","9293","html-keyboard-response","139","153318","0.0-6.0-0.26","114","3","2022-11-17 12:35:01","fd252370c17a9971d68c1d4354a03c2e","","Mozilla/5.0 (Windows NT 6.3; Win64; x64) AppleWebKit/537.36 (KHTML, like Gecko) Chrome/107.0.0.0 Safari/537.36","WebKit","Chrome","107.0.0.0","Windows","6.3","null","null","","<p style=""font-size: 48px;"">+</p>","3","Filler","",""
"","","","","","sentence","9293","html-keyboard-response","140","154116","0.0-6.0-1.26","114","3","2022-11-17 12:35:01","fd252370c17a9971d68c1d4354a03c2e","","Mozilla/5.0 (Windows NT 6.3; Win64; x64) AppleWebKit/537.36 (KHTML, like Gecko) Chrome/107.0.0.0 Safari/537.36","WebKit","Chrome","107.0.0.0","Windows","6.3","793"," ","","An old man is hammering a nail","3","Filler","",""
"","","","","","fixation","9293","html-keyboard-response","141","154629","0.0-6.0-2.26","114","3","2022-11-17 12:35:01","fd252370c17a9971d68c1d4354a03c2e","","Mozilla/5.0 (Windows NT 6.3; Win64; x64) AppleWebKit/537.36 (KHTML, like Gecko) Chrome/107.0.0.0 Safari/537.36","WebKit","Chrome","107.0.0.0","Windows","6.3","null","null","","<p style=""font-size: 48px;"">+</p>","3","Filler","",""
"","","","","","picture","9293","image-keyboard-response","142","155305","0.0-6.0-3.26","114","3","2022-11-17 12:35:01","fd252370c17a9971d68c1d4354a03c2e","","Mozilla/5.0 (Windows NT 6.3; Win64; x64) AppleWebKit/537.36 (KHTML, like Gecko) Chrome/107.0.0.0 Safari/537.36","WebKit","Chrome","107.0.0.0","Windows","6.3","667","s","","nail.jpg","3","Filler","true",""
"","","","","","fixation","9293","html-keyboard-response","143","156318","0.0-6.0-0.27","114","3","2022-11-17 12:35:01","fd252370c17a9971d68c1d4354a03c2e","","Mozilla/5.0 (Windows NT 6.3; Win64; x64) AppleWebKit/537.36 (KHTML, like Gecko) Chrome/107.0.0.0 Safari/537.36","WebKit","Chrome","107.0.0.0","Windows","6.3","null","null","","<p style=""font-size: 48px;"">+</p>","3","Filler","",""
"","","","","","sentence","9293","html-keyboard-response","144","157360","0.0-6.0-1.27","114","3","2022-11-17 12:35:01","fd252370c17a9971d68c1d4354a03c2e","","Mozilla/5.0 (Windows NT 6.3; Win64; x64) AppleWebKit/537.36 (KHTML, like Gecko) Chrome/107.0.0.0 Safari/537.36","WebKit","Chrome","107.0.0.0","Windows","6.3","1034"," ","","A student is writing on a board","3","Filler","",""
"","","","","","fixation","9293","html-keyboard-response","145","157869","0.0-6.0-2.27","114","3","2022-11-17 12:35:01","fd252370c17a9971d68c1d4354a03c2e","","Mozilla/5.0 (Windows NT 6.3; Win64; x64) AppleWebKit/537.36 (KHTML, like Gecko) Chrome/107.0.0.0 Safari/537.36","WebKit","Chrome","107.0.0.0","Windows","6.3","null","null","","<p style=""font-size: 48px;"">+</p>","3","Filler","",""
"","","","","","picture","9293","image-keyboard-response","146","158424","0.0-6.0-3.27","114","3","2022-11-17 12:35:01","fd252370c17a9971d68c1d4354a03c2e","","Mozilla/5.0 (Windows NT 6.3; Win64; x64) AppleWebKit/537.36 (KHTML, like Gecko) Chrome/107.0.0.0 Safari/537.36","WebKit","Chrome","107.0.0.0","Windows","6.3","547","n","","owl.jpg","3","Filler","true",""
"","","","","","fixation","9293","html-keyboard-response","147","159438","0.0-6.0-0.28","114","3","2022-11-17 12:35:01","fd252370c17a9971d68c1d4354a03c2e","","Mozilla/5.0 (Windows NT 6.3; Win64; x64) AppleWebKit/537.36 (KHTML, like Gecko) Chrome/107.0.0.0 Safari/537.36","WebKit","Chrome","107.0.0.0","Windows","6.3","null","null","","<p style=""font-size: 48px;"">+</p>","3","Filler","",""
"","","","","","sentence","9293","html-keyboard-response","148","160804","0.0-6.0-1.28","114","3","2022-11-17 12:35:01","fd252370c17a9971d68c1d4354a03c2e","","Mozilla/5.0 (Windows NT 6.3; Win64; x64) AppleWebKit/537.36 (KHTML, like Gecko) Chrome/107.0.0.0 Safari/537.36","WebKit","Chrome","107.0.0.0","Windows","6.3","1360"," ","","A toothbrush was placed on the sponge","3","Filler","",""
"","","","","","fixation","9293","html-keyboard-response","149","161318","0.0-6.0-2.28","114","3","2022-11-17 12:35:01","fd252370c17a9971d68c1d4354a03c2e","","Mozilla/5.0 (Windows NT 6.3; Win64; x64) AppleWebKit/537.36 (KHTML, like Gecko) Chrome/107.0.0.0 Safari/537.36","WebKit","Chrome","107.0.0.0","Windows","6.3","null","null","","<p style=""font-size: 48px;"">+</p>","3","Filler","",""
"","","","","","picture","9293","image-keyboard-response","150","161748","0.0-6.0-3.28","114","3","2022-11-17 12:35:01","fd252370c17a9971d68c1d4354a03c2e","","Mozilla/5.0 (Windows NT 6.3; Win64; x64) AppleWebKit/537.36 (KHTML, like Gecko) Chrome/107.0.0.0 Safari/537.36","WebKit","Chrome","107.0.0.0","Windows","6.3","421","s","","sponge.jpg","3","Filler","true",""
"","","","","","fixation","9293","html-keyboard-response","151","162758","0.0-6.0-0.29","114","3","2022-11-17 12:35:01","fd252370c17a9971d68c1d4354a03c2e","","Mozilla/5.0 (Windows NT 6.3; Win64; x64) AppleWebKit/537.36 (KHTML, like Gecko) Chrome/107.0.0.0 Safari/537.36","WebKit","Chrome","107.0.0.0","Windows","6.3","null","null","","<p style=""font-size: 48px;"">+</p>","3","Filler","",""
"","","","","","sentence","9293","html-keyboard-response","152","164138","0.0-6.0-1.29","114","3","2022-11-17 12:35:01","fd252370c17a9971d68c1d4354a03c2e","","Mozilla/5.0 (Windows NT 6.3; Win64; x64) AppleWebKit/537.36 (KHTML, like Gecko) Chrome/107.0.0.0 Safari/537.36","WebKit","Chrome","107.0.0.0","Windows","6.3","1373"," ","","A president is writing in the notebook","3","Filler","",""
"","","","","","fixation","9293","html-keyboard-response","153","164653","0.0-6.0-2.29","114","3","2022-11-17 12:35:01","fd252370c17a9971d68c1d4354a03c2e","","Mozilla/5.0 (Windows NT 6.3; Win64; x64) AppleWebKit/537.36 (KHTML, like Gecko) Chrome/107.0.0.0 Safari/537.36","WebKit","Chrome","107.0.0.0","Windows","6.3","null","null","","<p style=""font-size: 48px;"">+</p>","3","Filler","",""
"","","","","","picture","9293","image-keyboard-response","154","165295","0.0-6.0-3.29","114","3","2022-11-17 12:35:01","fd252370c17a9971d68c1d4354a03c2e","","Mozilla/5.0 (Windows NT 6.3; Win64; x64) AppleWebKit/537.36 (KHTML, like Gecko) Chrome/107.0.0.0 Safari/537.36","WebKit","Chrome","107.0.0.0","Windows","6.3","633","n","","can.jpg","3","Filler","true",""
"","","","","","fixation","9293","html-keyboard-response","155","166310","0.0-6.0-0.30","114","3","2022-11-17 12:35:01","fd252370c17a9971d68c1d4354a03c2e","","Mozilla/5.0 (Windows NT 6.3; Win64; x64) AppleWebKit/537.36 (KHTML, like Gecko) Chrome/107.0.0.0 Safari/537.36","WebKit","Chrome","107.0.0.0","Windows","6.3","null","null","","<p style=""font-size: 48px;"">+</p>","3","Heavy_Contradictory","",""
"","","","","","sentence","9293","html-keyboard-response","156","168285","0.0-6.0-1.30","114","3","2022-11-17 12:35:01","fd252370c17a9971d68c1d4354a03c2e","","Mozilla/5.0 (Windows NT 6.3; Win64; x64) AppleWebKit/537.36 (KHTML, like Gecko) Chrome/107.0.0.0 Safari/537.36","WebKit","Chrome","107.0.0.0","Windows","6.3","1968"," ","","A bowling ball dropped and touched a piece of sushi","3","Heavy_Contradictory","",""
"","","","","","fixation","9293","html-keyboard-response","157","168798","0.0-6.0-2.30","114","3","2022-11-17 12:35:01","fd252370c17a9971d68c1d4354a03c2e","","Mozilla/5.0 (Windows NT 6.3; Win64; x64) AppleWebKit/537.36 (KHTML, like Gecko) Chrome/107.0.0.0 Safari/537.36","WebKit","Chrome","107.0.0.0","Windows","6.3","null","null","","<p style=""font-size: 48px;"">+</p>","3","Heavy_Contradictory","",""
"","","","","","picture","9293","image-keyboard-response","158","169130","0.0-6.0-3.30","114","3","2022-11-17 12:35:01","fd252370c17a9971d68c1d4354a03c2e","","Mozilla/5.0 (Windows NT 6.3; Win64; x64) AppleWebKit/537.36 (KHTML, like Gecko) Chrome/107.0.0.0 Safari/537.36","WebKit","Chrome","107.0.0.0","Windows","6.3","320","s","","sushiS.jpg","3","Heavy_Contradictory","true",""
"","","","","","fixation","9293","html-keyboard-response","159","170142","0.0-6.0-0.31","114","3","2022-11-17 12:35:01","fd252370c17a9971d68c1d4354a03c2e","","Mozilla/5.0 (Windows NT 6.3; Win64; x64) AppleWebKit/537.36 (KHTML, like Gecko) Chrome/107.0.0.0 Safari/537.36","WebKit","Chrome","107.0.0.0","Windows","6.3","null","null","","<p style=""font-size: 48px;"">+</p>","3","Filler","",""
"","","","","","sentence","9293","html-keyboard-response","160","171458","0.0-6.0-1.31","114","3","2022-11-17 12:35:01","fd252370c17a9971d68c1d4354a03c2e","","Mozilla/5.0 (Windows NT 6.3; Win64; x64) AppleWebKit/537.36 (KHTML, like Gecko) Chrome/107.0.0.0 Safari/537.36","WebKit","Chrome","107.0.0.0","Windows","6.3","1307"," ","","A thermometer was placed on the box","3","Filler","",""
"","","","","","fixation","9293","html-keyboard-response","161","171973","0.0-6.0-2.31","114","3","2022-11-17 12:35:01","fd252370c17a9971d68c1d4354a03c2e","","Mozilla/5.0 (Windows NT 6.3; Win64; x64) AppleWebKit/537.36 (KHTML, like Gecko) Chrome/107.0.0.0 Safari/537.36","WebKit","Chrome","107.0.0.0","Windows","6.3","null","null","","<p style=""font-size: 48px;"">+</p>","3","Filler","",""
"","","","","","picture","9293","image-keyboard-response","162","172630","0.0-6.0-3.31","114","3","2022-11-17 12:35:01","fd252370c17a9971d68c1d4354a03c2e","","Mozilla/5.0 (Windows NT 6.3; Win64; x64) AppleWebKit/537.36 (KHTML, like Gecko) Chrome/107.0.0.0 Safari/537.36","WebKit","Chrome","107.0.0.0","Windows","6.3","647","n","","button.jpg","3","Filler","true",""
"","","","","","fixation","9293","html-keyboard-response","163","173646","0.0-6.0-0.32","114","3","2022-11-17 12:35:01","fd252370c17a9971d68c1d4354a03c2e","","Mozilla/5.0 (Windows NT 6.3; Win64; x64) AppleWebKit/537.36 (KHTML, like Gecko) Chrome/107.0.0.0 Safari/537.36","WebKit","Chrome","107.0.0.0","Windows","6.3","null","null","","<p style=""font-size: 48px;"">+</p>","3","Filler","",""
"","","","","","sentence","9293","html-keyboard-response","164","174610","0.0-6.0-1.32","114","3","2022-11-17 12:35:01","fd252370c17a9971d68c1d4354a03c2e","","Mozilla/5.0 (Windows NT 6.3; Win64; x64) AppleWebKit/537.36 (KHTML, like Gecko) Chrome/107.0.0.0 Safari/537.36","WebKit","Chrome","107.0.0.0","Windows","6.3","955"," ","","A thief is stealing a wallet","3","Filler","",""
"","","","","","fixation","9293","html-keyboard-response","165","175126","0.0-6.0-2.32","114","3","2022-11-17 12:35:01","fd252370c17a9971d68c1d4354a03c2e","","Mozilla/5.0 (Windows NT 6.3; Win64; x64) AppleWebKit/537.36 (KHTML, like Gecko) Chrome/107.0.0.0 Safari/537.36","WebKit","Chrome","107.0.0.0","Windows","6.3","null","null","","<p style=""font-size: 48px;"">+</p>","3","Filler","",""
"","","","","","picture","9293","image-keyboard-response","166","175712","0.0-6.0-3.32","114","3","2022-11-17 12:35:01","fd252370c17a9971d68c1d4354a03c2e","","Mozilla/5.0 (Windows NT 6.3; Win64; x64) AppleWebKit/537.36 (KHTML, like Gecko) Chrome/107.0.0.0 Safari/537.36","WebKit","Chrome","107.0.0.0","Windows","6.3","577","n","","teddybear.jpg","3","Filler","true",""
"","","","","","fixation","9293","html-keyboard-response","167","176727","0.0-6.0-0.33","114","3","2022-11-17 12:35:01","fd252370c17a9971d68c1d4354a03c2e","","Mozilla/5.0 (Windows NT 6.3; Win64; x64) AppleWebKit/537.36 (KHTML, like Gecko) Chrome/107.0.0.0 Safari/537.36","WebKit","Chrome","107.0.0.0","Windows","6.3","null","null","","<p style=""font-size: 48px;"">+</p>","3","Filler","",""
"","","","","","sentence","9293","html-keyboard-response","168","177817","0.0-6.0-1.33","114","3","2022-11-17 12:35:01","fd252370c17a9971d68c1d4354a03c2e","","Mozilla/5.0 (Windows NT 6.3; Win64; x64) AppleWebKit/537.36 (KHTML, like Gecko) Chrome/107.0.0.0 Safari/537.36","WebKit","Chrome","107.0.0.0","Windows","6.3","1080"," ","","A nurse is taking a syringe","3","Filler","",""
"","","","","","fixation","9293","html-keyboard-response","169","178334","0.0-6.0-2.33","114","3","2022-11-17 12:35:01","fd252370c17a9971d68c1d4354a03c2e","","Mozilla/5.0 (Windows NT 6.3; Win64; x64) AppleWebKit/537.36 (KHTML, like Gecko) Chrome/107.0.0.0 Safari/537.36","WebKit","Chrome","107.0.0.0","Windows","6.3","null","null","","<p style=""font-size: 48px;"">+</p>","3","Filler","",""
"","","","","","picture","9293","image-keyboard-response","170","178970","0.0-6.0-3.33","114","3","2022-11-17 12:35:01","fd252370c17a9971d68c1d4354a03c2e","","Mozilla/5.0 (Windows NT 6.3; Win64; x64) AppleWebKit/537.36 (KHTML, like Gecko) Chrome/107.0.0.0 Safari/537.36","WebKit","Chrome","107.0.0.0","Windows","6.3","627","n","","headphones.jpg","3","Filler","true",""
"","","","","","fixation","9293","html-keyboard-response","171","179982","0.0-6.0-0.34","114","3","2022-11-17 12:35:01","fd252370c17a9971d68c1d4354a03c2e","","Mozilla/5.0 (Windows NT 6.3; Win64; x64) AppleWebKit/537.36 (KHTML, like Gecko) Chrome/107.0.0.0 Safari/537.36","WebKit","Chrome","107.0.0.0","Windows","6.3","null","null","","<p style=""font-size: 48px;"">+</p>","3","Heavy_Matched","",""
"","","","","","sentence","9293","html-keyboard-response","172","181585","0.0-6.0-1.34","114","3","2022-11-17 12:35:01","fd252370c17a9971d68c1d4354a03c2e","","Mozilla/5.0 (Windows NT 6.3; Win64; x64) AppleWebKit/537.36 (KHTML, like Gecko) Chrome/107.0.0.0 Safari/537.36","WebKit","Chrome","107.0.0.0","Windows","6.3","1595"," ","","A bowling ball dropped and smashed a chocolate muffin","3","Heavy_Matched","",""
"","","","","","fixation","9293","html-keyboard-response","173","182102","0.0-6.0-2.34","114","3","2022-11-17 12:35:01","fd252370c17a9971d68c1d4354a03c2e","","Mozilla/5.0 (Windows NT 6.3; Win64; x64) AppleWebKit/537.36 (KHTML, like Gecko) Chrome/107.0.0.0 Safari/537.36","WebKit","Chrome","107.0.0.0","Windows","6.3","null","null","","<p style=""font-size: 48px;"">+</p>","3","Heavy_Matched","",""
"","","","","","picture","9293","image-keyboard-response","174","182486","0.0-6.0-3.34","114","3","2022-11-17 12:35:01","fd252370c17a9971d68c1d4354a03c2e","","Mozilla/5.0 (Windows NT 6.3; Win64; x64) AppleWebKit/537.36 (KHTML, like Gecko) Chrome/107.0.0.0 Safari/537.36","WebKit","Chrome","107.0.0.0","Windows","6.3","370","s","","muffinS.jpg","3","Heavy_Matched","true",""
"","","","","","fixation","9293","html-keyboard-response","175","183502","0.0-6.0-0.35","114","3","2022-11-17 12:35:01","fd252370c17a9971d68c1d4354a03c2e","","Mozilla/5.0 (Windows NT 6.3; Win64; x64) AppleWebKit/537.36 (KHTML, like Gecko) Chrome/107.0.0.0 Safari/537.36","WebKit","Chrome","107.0.0.0","Windows","6.3","null","null","","<p style=""font-size: 48px;"">+</p>","3","Filler","",""
"","","","","","sentence","9293","html-keyboard-response","176","184639","0.0-6.0-1.35","114","3","2022-11-17 12:35:01","fd252370c17a9971d68c1d4354a03c2e","","Mozilla/5.0 (Windows NT 6.3; Win64; x64) AppleWebKit/537.36 (KHTML, like Gecko) Chrome/107.0.0.0 Safari/537.36","WebKit","Chrome","107.0.0.0","Windows","6.3","1127"," ","","A man is shaving his beard","3","Filler","",""
"","","","","","fixation","9293","html-keyboard-response","177","185150","0.0-6.0-2.35","114","3","2022-11-17 12:35:01","fd252370c17a9971d68c1d4354a03c2e","","Mozilla/5.0 (Windows NT 6.3; Win64; x64) AppleWebKit/537.36 (KHTML, like Gecko) Chrome/107.0.0.0 Safari/537.36","WebKit","Chrome","107.0.0.0","Windows","6.3","null","null","","<p style=""font-size: 48px;"">+</p>","3","Filler","",""
"","","","","","picture","9293","image-keyboard-response","178","185815","0.0-6.0-3.35","114","3","2022-11-17 12:35:01","fd252370c17a9971d68c1d4354a03c2e","","Mozilla/5.0 (Windows NT 6.3; Win64; x64) AppleWebKit/537.36 (KHTML, like Gecko) Chrome/107.0.0.0 Safari/537.36","WebKit","Chrome","107.0.0.0","Windows","6.3","655","n","","clock.jpg","3","Filler","true",""
"","","","","","fixation","9293","html-keyboard-response","179","186830","0.0-6.0-0.36","114","3","2022-11-17 12:35:01","fd252370c17a9971d68c1d4354a03c2e","","Mozilla/5.0 (Windows NT 6.3; Win64; x64) AppleWebKit/537.36 (KHTML, like Gecko) Chrome/107.0.0.0 Safari/537.36","WebKit","Chrome","107.0.0.0","Windows","6.3","null","null","","<p style=""font-size: 48px;"">+</p>","3","Filler","",""
"","","","","","sentence","9293","html-keyboard-response","180","188677","0.0-6.0-1.36","114","3","2022-11-17 12:35:01","fd252370c17a9971d68c1d4354a03c2e","","Mozilla/5.0 (Windows NT 6.3; Win64; x64) AppleWebKit/537.36 (KHTML, like Gecko) Chrome/107.0.0.0 Safari/537.36","WebKit","Chrome","107.0.0.0","Windows","6.3","1834"," ","","A needle was placed on the mouse pad","3","Filler","",""
"","","","","","fixation","9293","html-keyboard-response","181","189189","0.0-6.0-2.36","114","3","2022-11-17 12:35:01","fd252370c17a9971d68c1d4354a03c2e","","Mozilla/5.0 (Windows NT 6.3; Win64; x64) AppleWebKit/537.36 (KHTML, like Gecko) Chrome/107.0.0.0 Safari/537.36","WebKit","Chrome","107.0.0.0","Windows","6.3","null","null","","<p style=""font-size: 48px;"">+</p>","3","Filler","",""
"","","","","","picture","9293","image-keyboard-response","182","190141","0.0-6.0-3.36","114","3","2022-11-17 12:35:01","fd252370c17a9971d68c1d4354a03c2e","","Mozilla/5.0 (Windows NT 6.3; Win64; x64) AppleWebKit/537.36 (KHTML, like Gecko) Chrome/107.0.0.0 Safari/537.36","WebKit","Chrome","107.0.0.0","Windows","6.3","940","n","","chocolate.jpg","3","Filler","true",""
"","","","","","fixation","9293","html-keyboard-response","183","191158","0.0-6.0-0.37","114","3","2022-11-17 12:35:01","fd252370c17a9971d68c1d4354a03c2e","","Mozilla/5.0 (Windows NT 6.3; Win64; x64) AppleWebKit/537.36 (KHTML, like Gecko) Chrome/107.0.0.0 Safari/537.36","WebKit","Chrome","107.0.0.0","Windows","6.3","null","null","","<p style=""font-size: 48px;"">+</p>","3","Filler","",""
"","","","","","sentence","9293","html-keyboard-response","184","192860","0.0-6.0-1.37","114","3","2022-11-17 12:35:01","fd252370c17a9971d68c1d4354a03c2e","","Mozilla/5.0 (Windows NT 6.3; Win64; x64) AppleWebKit/537.36 (KHTML, like Gecko) Chrome/107.0.0.0 Safari/537.36","WebKit","Chrome","107.0.0.0","Windows","6.3","1692"," ","","A towel was placed on the TV","3","Filler","",""
"","","","","","fixation","9293","html-keyboard-response","185","193374","0.0-6.0-2.37","114","3","2022-11-17 12:35:01","fd252370c17a9971d68c1d4354a03c2e","","Mozilla/5.0 (Windows NT 6.3; Win64; x64) AppleWebKit/537.36 (KHTML, like Gecko) Chrome/107.0.0.0 Safari/537.36","WebKit","Chrome","107.0.0.0","Windows","6.3","null","null","","<p style=""font-size: 48px;"">+</p>","3","Filler","",""
"","","","","","picture","9293","image-keyboard-response","186","194291","0.0-6.0-3.37","114","3","2022-11-17 12:35:01","fd252370c17a9971d68c1d4354a03c2e","","Mozilla/5.0 (Windows NT 6.3; Win64; x64) AppleWebKit/537.36 (KHTML, like Gecko) Chrome/107.0.0.0 Safari/537.36","WebKit","Chrome","107.0.0.0","Windows","6.3","906","n","","pencil.jpg","3","Filler","true",""
"","","","","","fixation","9293","html-keyboard-response","187","195310","0.0-6.0-0.38","114","3","2022-11-17 12:35:01","fd252370c17a9971d68c1d4354a03c2e","","Mozilla/5.0 (Windows NT 6.3; Win64; x64) AppleWebKit/537.36 (KHTML, like Gecko) Chrome/107.0.0.0 Safari/537.36","WebKit","Chrome","107.0.0.0","Windows","6.3","null","null","","<p style=""font-size: 48px;"">+</p>","3","Filler","",""
"","","","","","sentence","9293","html-keyboard-response","188","196947","0.0-6.0-1.38","114","3","2022-11-17 12:35:01","fd252370c17a9971d68c1d4354a03c2e","","Mozilla/5.0 (Windows NT 6.3; Win64; x64) AppleWebKit/537.36 (KHTML, like Gecko) Chrome/107.0.0.0 Safari/537.36","WebKit","Chrome","107.0.0.0","Windows","6.3","1627"," ","","A ring was placed on the newspaper","3","Filler","",""
"","","","","","fixation","9293","html-keyboard-response","189","197462","0.0-6.0-2.38","114","3","2022-11-17 12:35:01","fd252370c17a9971d68c1d4354a03c2e","","Mozilla/5.0 (Windows NT 6.3; Win64; x64) AppleWebKit/537.36 (KHTML, like Gecko) Chrome/107.0.0.0 Safari/537.36","WebKit","Chrome","107.0.0.0","Windows","6.3","null","null","","<p style=""font-size: 48px;"">+</p>","3","Filler","",""
"","","","","","picture","9293","image-keyboard-response","190","198139","0.0-6.0-3.38","114","3","2022-11-17 12:35:01","fd252370c17a9971d68c1d4354a03c2e","","Mozilla/5.0 (Windows NT 6.3; Win64; x64) AppleWebKit/537.36 (KHTML, like Gecko) Chrome/107.0.0.0 Safari/537.36","WebKit","Chrome","107.0.0.0","Windows","6.3","668","n","","cat.jpg","3","Filler","true",""
"","","","","","fixation","9293","html-keyboard-response","191","199150","0.0-6.0-0.39","114","3","2022-11-17 12:35:01","fd252370c17a9971d68c1d4354a03c2e","","Mozilla/5.0 (Windows NT 6.3; Win64; x64) AppleWebKit/537.36 (KHTML, like Gecko) Chrome/107.0.0.0 Safari/537.36","WebKit","Chrome","107.0.0.0","Windows","6.3","null","null","","<p style=""font-size: 48px;"">+</p>","3","Filler","",""
"","","","","","sentence","9293","html-keyboard-response","192","200698","0.0-6.0-1.39","114","3","2022-11-17 12:35:01","fd252370c17a9971d68c1d4354a03c2e","","Mozilla/5.0 (Windows NT 6.3; Win64; x64) AppleWebKit/537.36 (KHTML, like Gecko) Chrome/107.0.0.0 Safari/537.36","WebKit","Chrome","107.0.0.0","Windows","6.3","1539"," ","","A kitten is playing in the sandbox","3","Filler","",""
"","","","","","fixation","9293","html-keyboard-response","193","201214","0.0-6.0-2.39","114","3","2022-11-17 12:35:01","fd252370c17a9971d68c1d4354a03c2e","","Mozilla/5.0 (Windows NT 6.3; Win64; x64) AppleWebKit/537.36 (KHTML, like Gecko) Chrome/107.0.0.0 Safari/537.36","WebKit","Chrome","107.0.0.0","Windows","6.3","null","null","","<p style=""font-size: 48px;"">+</p>","3","Filler","",""
"","","","","","picture","9293","image-keyboard-response","194","202001","0.0-6.0-3.39","114","3","2022-11-17 12:35:01","fd252370c17a9971d68c1d4354a03c2e","","Mozilla/5.0 (Windows NT 6.3; Win64; x64) AppleWebKit/537.36 (KHTML, like Gecko) Chrome/107.0.0.0 Safari/537.36","WebKit","Chrome","107.0.0.0","Windows","6.3","774","n","","dustbin.jpg","3","Filler","true",""
"","","","","","fixation","9293","html-keyboard-response","195","203014","0.0-6.0-0.40","114","3","2022-11-17 12:35:01","fd252370c17a9971d68c1d4354a03c2e","","Mozilla/5.0 (Windows NT 6.3; Win64; x64) AppleWebKit/537.36 (KHTML, like Gecko) Chrome/107.0.0.0 Safari/537.36","WebKit","Chrome","107.0.0.0","Windows","6.3","null","null","","<p style=""font-size: 48px;"">+</p>","3","Light_Contradictory","",""
"","","","","","sentence","9293","html-keyboard-response","196","204377","0.0-6.0-1.40","114","3","2022-11-17 12:35:01","fd252370c17a9971d68c1d4354a03c2e","","Mozilla/5.0 (Windows NT 6.3; Win64; x64) AppleWebKit/537.36 (KHTML, like Gecko) Chrome/107.0.0.0 Safari/537.36","WebKit","Chrome","107.0.0.0","Windows","6.3","1352"," ","","A balloon dropped and smashed an iPAD","3","Light_Contradictory","",""
"","","","","","fixation","9293","html-keyboard-response","197","204894","0.0-6.0-2.40","114","3","2022-11-17 12:35:01","fd252370c17a9971d68c1d4354a03c2e","","Mozilla/5.0 (Windows NT 6.3; Win64; x64) AppleWebKit/537.36 (KHTML, like Gecko) Chrome/107.0.0.0 Safari/537.36","WebKit","Chrome","107.0.0.0","Windows","6.3","null","null","","<p style=""font-size: 48px;"">+</p>","3","Light_Contradictory","",""
"","","","","","picture","9293","image-keyboard-response","198","205319","0.0-6.0-3.40","114","3","2022-11-17 12:35:01","fd252370c17a9971d68c1d4354a03c2e","","Mozilla/5.0 (Windows NT 6.3; Win64; x64) AppleWebKit/537.36 (KHTML, like Gecko) Chrome/107.0.0.0 Safari/537.36","WebKit","Chrome","107.0.0.0","Windows","6.3","413","s","","iPadS.jpg","3","Light_Contradictory","true",""
"","","","","","fixation","9293","html-keyboard-response","199","206334","0.0-6.0-0.41","114","3","2022-11-17 12:35:01","fd252370c17a9971d68c1d4354a03c2e","","Mozilla/5.0 (Windows NT 6.3; Win64; x64) AppleWebKit/537.36 (KHTML, like Gecko) Chrome/107.0.0.0 Safari/537.36","WebKit","Chrome","107.0.0.0","Windows","6.3","null","null","","<p style=""font-size: 48px;"">+</p>","3","Filler","",""
"","","","","","sentence","9293","html-keyboard-response","200","208551","0.0-6.0-1.41","114","3","2022-11-17 12:35:01","fd252370c17a9971d68c1d4354a03c2e","","Mozilla/5.0 (Windows NT 6.3; Win64; x64) AppleWebKit/537.36 (KHTML, like Gecko) Chrome/107.0.0.0 Safari/537.36","WebKit","Chrome","107.0.0.0","Windows","6.3","2208"," ","","A cabbage was placed on the table","3","Filler","",""
"","","","","","fixation","9293","html-keyboard-response","201","209070","0.0-6.0-2.41","114","3","2022-11-17 12:35:01","fd252370c17a9971d68c1d4354a03c2e","","Mozilla/5.0 (Windows NT 6.3; Win64; x64) AppleWebKit/537.36 (KHTML, like Gecko) Chrome/107.0.0.0 Safari/537.36","WebKit","Chrome","107.0.0.0","Windows","6.3","null","null","","<p style=""font-size: 48px;"">+</p>","3","Filler","",""
"","","","","","picture","9293","image-keyboard-response","202","209791","0.0-6.0-3.41","114","3","2022-11-17 12:35:01","fd252370c17a9971d68c1d4354a03c2e","","Mozilla/5.0 (Windows NT 6.3; Win64; x64) AppleWebKit/537.36 (KHTML, like Gecko) Chrome/107.0.0.0 Safari/537.36","WebKit","Chrome","107.0.0.0","Windows","6.3","711","n","","ladder.jpg","3","Filler","true",""
"","","","","","fixation","9293","html-keyboard-response","203","210806","0.0-6.0-0.42","114","3","2022-11-17 12:35:01","fd252370c17a9971d68c1d4354a03c2e","","Mozilla/5.0 (Windows NT 6.3; Win64; x64) AppleWebKit/537.36 (KHTML, like Gecko) Chrome/107.0.0.0 Safari/537.36","WebKit","Chrome","107.0.0.0","Windows","6.3","null","null","","<p style=""font-size: 48px;"">+</p>","3","Filler","",""
"","","","","","sentence","9293","html-keyboard-response","204","211944","0.0-6.0-1.42","114","3","2022-11-17 12:35:01","fd252370c17a9971d68c1d4354a03c2e","","Mozilla/5.0 (Windows NT 6.3; Win64; x64) AppleWebKit/537.36 (KHTML, like Gecko) Chrome/107.0.0.0 Safari/537.36","WebKit","Chrome","107.0.0.0","Windows","6.3","1128"," ","","An elephant is eating a watermelon","3","Filler","",""
"","","","","","fixation","9293","html-keyboard-response","205","212462","0.0-6.0-2.42","114","3","2022-11-17 12:35:01","fd252370c17a9971d68c1d4354a03c2e","","Mozilla/5.0 (Windows NT 6.3; Win64; x64) AppleWebKit/537.36 (KHTML, like Gecko) Chrome/107.0.0.0 Safari/537.36","WebKit","Chrome","107.0.0.0","Windows","6.3","null","null","","<p style=""font-size: 48px;"">+</p>","3","Filler","",""
"","","","","","picture","9293","image-keyboard-response","206","213046","0.0-6.0-3.42","114","3","2022-11-17 12:35:01","fd252370c17a9971d68c1d4354a03c2e","","Mozilla/5.0 (Windows NT 6.3; Win64; x64) AppleWebKit/537.36 (KHTML, like Gecko) Chrome/107.0.0.0 Safari/537.36","WebKit","Chrome","107.0.0.0","Windows","6.3","572","s","","watermelon.jpg","3","Filler","true",""
"","","","","","fixation","9293","html-keyboard-response","207","214061","0.0-6.0-0.43","114","3","2022-11-17 12:35:01","fd252370c17a9971d68c1d4354a03c2e","","Mozilla/5.0 (Windows NT 6.3; Win64; x64) AppleWebKit/537.36 (KHTML, like Gecko) Chrome/107.0.0.0 Safari/537.36","WebKit","Chrome","107.0.0.0","Windows","6.3","null","null","","<p style=""font-size: 48px;"">+</p>","3","Light_Matched","",""
"","","","","","sentence","9293","html-keyboard-response","208","215785","0.0-6.0-1.43","114","3","2022-11-17 12:35:01","fd252370c17a9971d68c1d4354a03c2e","","Mozilla/5.0 (Windows NT 6.3; Win64; x64) AppleWebKit/537.36 (KHTML, like Gecko) Chrome/107.0.0.0 Safari/537.36","WebKit","Chrome","107.0.0.0","Windows","6.3","1713"," ","","A balloon dropped and touched a piece of cake","3","Light_Matched","",""
"","","","","","fixation","9293","html-keyboard-response","209","216302","0.0-6.0-2.43","114","3","2022-11-17 12:35:01","fd252370c17a9971d68c1d4354a03c2e","","Mozilla/5.0 (Windows NT 6.3; Win64; x64) AppleWebKit/537.36 (KHTML, like Gecko) Chrome/107.0.0.0 Safari/537.36","WebKit","Chrome","107.0.0.0","Windows","6.3","null","null","","<p style=""font-size: 48px;"">+</p>","3","Light_Matched","",""
"","","","","","picture","9293","image-keyboard-response","210","216686","0.0-6.0-3.43","114","3","2022-11-17 12:35:01","fd252370c17a9971d68c1d4354a03c2e","","Mozilla/5.0 (Windows NT 6.3; Win64; x64) AppleWebKit/537.36 (KHTML, like Gecko) Chrome/107.0.0.0 Safari/537.36","WebKit","Chrome","107.0.0.0","Windows","6.3","372","s","","cakeS.jpg","3","Light_Matched","true",""
"","","","","","fixation","9293","html-keyboard-response","211","217702","0.0-6.0-0.44","114","3","2022-11-17 12:35:01","fd252370c17a9971d68c1d4354a03c2e","","Mozilla/5.0 (Windows NT 6.3; Win64; x64) AppleWebKit/537.36 (KHTML, like Gecko) Chrome/107.0.0.0 Safari/537.36","WebKit","Chrome","107.0.0.0","Windows","6.3","null","null","","<p style=""font-size: 48px;"">+</p>","3","Filler","",""
"","","","","","sentence","9293","html-keyboard-response","212","219940","0.0-6.0-1.44","114","3","2022-11-17 12:35:01","fd252370c17a9971d68c1d4354a03c2e","","Mozilla/5.0 (Windows NT 6.3; Win64; x64) AppleWebKit/537.36 (KHTML, like Gecko) Chrome/107.0.0.0 Safari/537.36","WebKit","Chrome","107.0.0.0","Windows","6.3","2226"," ","","A butterfly is sitting on a flower","3","Filler","",""
"","","","","","fixation","9293","html-keyboard-response","213","220454","0.0-6.0-2.44","114","3","2022-11-17 12:35:01","fd252370c17a9971d68c1d4354a03c2e","","Mozilla/5.0 (Windows NT 6.3; Win64; x64) AppleWebKit/537.36 (KHTML, like Gecko) Chrome/107.0.0.0 Safari/537.36","WebKit","Chrome","107.0.0.0","Windows","6.3","null","null","","<p style=""font-size: 48px;"">+</p>","3","Filler","",""
"","","","","","picture","9293","image-keyboard-response","214","221223","0.0-6.0-3.44","114","3","2022-11-17 12:35:01","fd252370c17a9971d68c1d4354a03c2e","","Mozilla/5.0 (Windows NT 6.3; Win64; x64) AppleWebKit/537.36 (KHTML, like Gecko) Chrome/107.0.0.0 Safari/537.36","WebKit","Chrome","107.0.0.0","Windows","6.3","755","n","","soap.jpg","3","Filler","true",""
"","","","","","fixation","9293","html-keyboard-response","215","222238","0.0-6.0-0.45","114","3","2022-11-17 12:35:01","fd252370c17a9971d68c1d4354a03c2e","","Mozilla/5.0 (Windows NT 6.3; Win64; x64) AppleWebKit/537.36 (KHTML, like Gecko) Chrome/107.0.0.0 Safari/537.36","WebKit","Chrome","107.0.0.0","Windows","6.3","null","null","","<p style=""font-size: 48px;"">+</p>","3","Filler","",""
"","","","","","sentence","9293","html-keyboard-response","216","223107","0.0-6.0-1.45","114","3","2022-11-17 12:35:01","fd252370c17a9971d68c1d4354a03c2e","","Mozilla/5.0 (Windows NT 6.3; Win64; x64) AppleWebKit/537.36 (KHTML, like Gecko) Chrome/107.0.0.0 Safari/537.36","WebKit","Chrome","107.0.0.0","Windows","6.3","856"," ","","A horse is chewing hay","3","Filler","",""
"","","","","","fixation","9293","html-keyboard-response","217","223622","0.0-6.0-2.45","114","3","2022-11-17 12:35:01","fd252370c17a9971d68c1d4354a03c2e","","Mozilla/5.0 (Windows NT 6.3; Win64; x64) AppleWebKit/537.36 (KHTML, like Gecko) Chrome/107.0.0.0 Safari/537.36","WebKit","Chrome","107.0.0.0","Windows","6.3","null","null","","<p style=""font-size: 48px;"">+</p>","3","Filler","",""
"","","","","","picture","9293","image-keyboard-response","218","224281","0.0-6.0-3.45","114","3","2022-11-17 12:35:01","fd252370c17a9971d68c1d4354a03c2e","","Mozilla/5.0 (Windows NT 6.3; Win64; x64) AppleWebKit/537.36 (KHTML, like Gecko) Chrome/107.0.0.0 Safari/537.36","WebKit","Chrome","107.0.0.0","Windows","6.3","647","n","","purse.jpg","3","Filler","true",""
"","","","","","fixation","9293","html-keyboard-response","219","225302","0.0-6.0-0.46","114","3","2022-11-17 12:35:01","fd252370c17a9971d68c1d4354a03c2e","","Mozilla/5.0 (Windows NT 6.3; Win64; x64) AppleWebKit/537.36 (KHTML, like Gecko) Chrome/107.0.0.0 Safari/537.36","WebKit","Chrome","107.0.0.0","Windows","6.3","null","null","","<p style=""font-size: 48px;"">+</p>","3","Filler","",""
"","","","","","sentence","9293","html-keyboard-response","220","226152","0.0-6.0-1.46","114","3","2022-11-17 12:35:01","fd252370c17a9971d68c1d4354a03c2e","","Mozilla/5.0 (Windows NT 6.3; Win64; x64) AppleWebKit/537.36 (KHTML, like Gecko) Chrome/107.0.0.0 Safari/537.36","WebKit","Chrome","107.0.0.0","Windows","6.3","838"," ","","An owl is sitting on the branch","3","Filler","",""
"","","","","","fixation","9293","html-keyboard-response","221","226670","0.0-6.0-2.46","114","3","2022-11-17 12:35:01","fd252370c17a9971d68c1d4354a03c2e","","Mozilla/5.0 (Windows NT 6.3; Win64; x64) AppleWebKit/537.36 (KHTML, like Gecko) Chrome/107.0.0.0 Safari/537.36","WebKit","Chrome","107.0.0.0","Windows","6.3","null","null","","<p style=""font-size: 48px;"">+</p>","3","Filler","",""
"","","","","","picture","9293","image-keyboard-response","222","227289","0.0-6.0-3.46","114","3","2022-11-17 12:35:01","fd252370c17a9971d68c1d4354a03c2e","","Mozilla/5.0 (Windows NT 6.3; Win64; x64) AppleWebKit/537.36 (KHTML, like Gecko) Chrome/107.0.0.0 Safari/537.36","WebKit","Chrome","107.0.0.0","Windows","6.3","607","n","","rubberduck.jpg","3","Filler","true",""
"","","","","","fixation","9293","html-keyboard-response","223","228310","0.0-6.0-0.47","114","3","2022-11-17 12:35:01","fd252370c17a9971d68c1d4354a03c2e","","Mozilla/5.0 (Windows NT 6.3; Win64; x64) AppleWebKit/537.36 (KHTML, like Gecko) Chrome/107.0.0.0 Safari/537.36","WebKit","Chrome","107.0.0.0","Windows","6.3","null","null","","<p style=""font-size: 48px;"">+</p>","3","Heavy_Matched","",""
"","","","","","sentence","9293","html-keyboard-response","224","229842","0.0-6.0-1.47","114","3","2022-11-17 12:35:01","fd252370c17a9971d68c1d4354a03c2e","","Mozilla/5.0 (Windows NT 6.3; Win64; x64) AppleWebKit/537.36 (KHTML, like Gecko) Chrome/107.0.0.0 Safari/537.36","WebKit","Chrome","107.0.0.0","Windows","6.3","1521"," ","","A bowling ball dropped and smashed an iPhone","3","Heavy_Matched","",""
"","","","","","fixation","9293","html-keyboard-response","225","230358","0.0-6.0-2.47","114","3","2022-11-17 12:35:01","fd252370c17a9971d68c1d4354a03c2e","","Mozilla/5.0 (Windows NT 6.3; Win64; x64) AppleWebKit/537.36 (KHTML, like Gecko) Chrome/107.0.0.0 Safari/537.36","WebKit","Chrome","107.0.0.0","Windows","6.3","null","null","","<p style=""font-size: 48px;"">+</p>","3","Heavy_Matched","",""
"","","","","","picture","9293","image-keyboard-response","226","230942","0.0-6.0-3.47","114","3","2022-11-17 12:35:01","fd252370c17a9971d68c1d4354a03c2e","","Mozilla/5.0 (Windows NT 6.3; Win64; x64) AppleWebKit/537.36 (KHTML, like Gecko) Chrome/107.0.0.0 Safari/537.36","WebKit","Chrome","107.0.0.0","Windows","6.3","574","s","","iphoneS.png","3","Heavy_Matched","true",""
"","","","","","fixation","9293","html-keyboard-response","227","231958","0.0-6.0-0.48","114","3","2022-11-17 12:35:01","fd252370c17a9971d68c1d4354a03c2e","","Mozilla/5.0 (Windows NT 6.3; Win64; x64) AppleWebKit/537.36 (KHTML, like Gecko) Chrome/107.0.0.0 Safari/537.36","WebKit","Chrome","107.0.0.0","Windows","6.3","null","null","","<p style=""font-size: 48px;"">+</p>","3","Filler","",""
"","","","","","sentence","9293","html-keyboard-response","228","233413","0.0-6.0-1.48","114","3","2022-11-17 12:35:01","fd252370c17a9971d68c1d4354a03c2e","","Mozilla/5.0 (Windows NT 6.3; Win64; x64) AppleWebKit/537.36 (KHTML, like Gecko) Chrome/107.0.0.0 Safari/537.36","WebKit","Chrome","107.0.0.0","Windows","6.3","1444"," ","","A donkey is drinking water.","3","Filler","",""
"","","","","","fixation","9293","html-keyboard-response","229","233926","0.0-6.0-2.48","114","3","2022-11-17 12:35:01","fd252370c17a9971d68c1d4354a03c2e","","Mozilla/5.0 (Windows NT 6.3; Win64; x64) AppleWebKit/537.36 (KHTML, like Gecko) Chrome/107.0.0.0 Safari/537.36","WebKit","Chrome","107.0.0.0","Windows","6.3","null","null","","<p style=""font-size: 48px;"">+</p>","3","Filler","",""
"","","","","","picture","9293","image-keyboard-response","230","234667","0.0-6.0-3.48","114","3","2022-11-17 12:35:01","fd252370c17a9971d68c1d4354a03c2e","","Mozilla/5.0 (Windows NT 6.3; Win64; x64) AppleWebKit/537.36 (KHTML, like Gecko) Chrome/107.0.0.0 Safari/537.36","WebKit","Chrome","107.0.0.0","Windows","6.3","730","n","","couch.jpg","3","Filler","true",""
"","","","","","fixation","9293","html-keyboard-response","231","235678","0.0-6.0-0.49","114","3","2022-11-17 12:35:01","fd252370c17a9971d68c1d4354a03c2e","","Mozilla/5.0 (Windows NT 6.3; Win64; x64) AppleWebKit/537.36 (KHTML, like Gecko) Chrome/107.0.0.0 Safari/537.36","WebKit","Chrome","107.0.0.0","Windows","6.3","null","null","","<p style=""font-size: 48px;"">+</p>","3","Filler","",""
"","","","","","sentence","9293","html-keyboard-response","232","237182","0.0-6.0-1.49","114","3","2022-11-17 12:35:01","fd252370c17a9971d68c1d4354a03c2e","","Mozilla/5.0 (Windows NT 6.3; Win64; x64) AppleWebKit/537.36 (KHTML, like Gecko) Chrome/107.0.0.0 Safari/537.36","WebKit","Chrome","107.0.0.0","Windows","6.3","1494"," ","","A woman is paying with a debit card","3","Filler","",""
"","","","","","fixation","9293","html-keyboard-response","233","237703","0.0-6.0-2.49","114","3","2022-11-17 12:35:01","fd252370c17a9971d68c1d4354a03c2e","","Mozilla/5.0 (Windows NT 6.3; Win64; x64) AppleWebKit/537.36 (KHTML, like Gecko) Chrome/107.0.0.0 Safari/537.36","WebKit","Chrome","107.0.0.0","Windows","6.3","null","null","","<p style=""font-size: 48px;"">+</p>","3","Filler","",""
"","","","","","picture","9293","image-keyboard-response","234","238571","0.0-6.0-3.49","114","3","2022-11-17 12:35:01","fd252370c17a9971d68c1d4354a03c2e","","Mozilla/5.0 (Windows NT 6.3; Win64; x64) AppleWebKit/537.36 (KHTML, like Gecko) Chrome/107.0.0.0 Safari/537.36","WebKit","Chrome","107.0.0.0","Windows","6.3","858","n","","papercup.jpg","3","Filler","true",""
"","","","","","fixation","9293","html-keyboard-response","235","239589","0.0-6.0-0.50","114","3","2022-11-17 12:35:01","fd252370c17a9971d68c1d4354a03c2e","","Mozilla/5.0 (Windows NT 6.3; Win64; x64) AppleWebKit/537.36 (KHTML, like Gecko) Chrome/107.0.0.0 Safari/537.36","WebKit","Chrome","107.0.0.0","Windows","6.3","null","null","","<p style=""font-size: 48px;"">+</p>","3","Filler","",""
"","","","","","sentence","9293","html-keyboard-response","236","241217","0.0-6.0-1.50","114","3","2022-11-17 12:35:01","fd252370c17a9971d68c1d4354a03c2e","","Mozilla/5.0 (Windows NT 6.3; Win64; x64) AppleWebKit/537.36 (KHTML, like Gecko) Chrome/107.0.0.0 Safari/537.36","WebKit","Chrome","107.0.0.0","Windows","6.3","1617"," ","","A parrot is eating an apple","3","Filler","",""
"","","","","","fixation","9293","html-keyboard-response","237","241734","0.0-6.0-2.50","114","3","2022-11-17 12:35:01","fd252370c17a9971d68c1d4354a03c2e","","Mozilla/5.0 (Windows NT 6.3; Win64; x64) AppleWebKit/537.36 (KHTML, like Gecko) Chrome/107.0.0.0 Safari/537.36","WebKit","Chrome","107.0.0.0","Windows","6.3","null","null","","<p style=""font-size: 48px;"">+</p>","3","Filler","",""
"","","","","","picture","9293","image-keyboard-response","238","242395","0.0-6.0-3.50","114","3","2022-11-17 12:35:01","fd252370c17a9971d68c1d4354a03c2e","","Mozilla/5.0 (Windows NT 6.3; Win64; x64) AppleWebKit/537.36 (KHTML, like Gecko) Chrome/107.0.0.0 Safari/537.36","WebKit","Chrome","107.0.0.0","Windows","6.3","649","n","","shirt.jpg","3","Filler","true",""
"","","","","","fixation","9293","html-keyboard-response","239","243414","0.0-6.0-0.51","114","3","2022-11-17 12:35:01","fd252370c17a9971d68c1d4354a03c2e","","Mozilla/5.0 (Windows NT 6.3; Win64; x64) AppleWebKit/537.36 (KHTML, like Gecko) Chrome/107.0.0.0 Safari/537.36","WebKit","Chrome","107.0.0.0","Windows","6.3","null","null","","<p style=""font-size: 48px;"">+</p>","3","Filler","",""
"","","","","","sentence","9293","html-keyboard-response","240","244576","0.0-6.0-1.51","114","3","2022-11-17 12:35:01","fd252370c17a9971d68c1d4354a03c2e","","Mozilla/5.0 (Windows NT 6.3; Win64; x64) AppleWebKit/537.36 (KHTML, like Gecko) Chrome/107.0.0.0 Safari/537.36","WebKit","Chrome","107.0.0.0","Windows","6.3","1152"," ","","A postman is driving a car","3","Filler","",""
"","","","","","fixation","9293","html-keyboard-response","241","245095","0.0-6.0-2.51","114","3","2022-11-17 12:35:01","fd252370c17a9971d68c1d4354a03c2e","","Mozilla/5.0 (Windows NT 6.3; Win64; x64) AppleWebKit/537.36 (KHTML, like Gecko) Chrome/107.0.0.0 Safari/537.36","WebKit","Chrome","107.0.0.0","Windows","6.3","null","null","","<p style=""font-size: 48px;"">+</p>","3","Filler","",""
"","","","","","picture","9293","image-keyboard-response","242","245681","0.0-6.0-3.51","114","3","2022-11-17 12:35:01","fd252370c17a9971d68c1d4354a03c2e","","Mozilla/5.0 (Windows NT 6.3; Win64; x64) AppleWebKit/537.36 (KHTML, like Gecko) Chrome/107.0.0.0 Safari/537.36","WebKit","Chrome","107.0.0.0","Windows","6.3","575","s","","car.jpg","3","Filler","true",""
"","","","","","fixation","9293","html-keyboard-response","243","246694","0.0-6.0-0.52","114","3","2022-11-17 12:35:01","fd252370c17a9971d68c1d4354a03c2e","","Mozilla/5.0 (Windows NT 6.3; Win64; x64) AppleWebKit/537.36 (KHTML, like Gecko) Chrome/107.0.0.0 Safari/537.36","WebKit","Chrome","107.0.0.0","Windows","6.3","null","null","","<p style=""font-size: 48px;"">+</p>","3","Filler","",""
"","","","","","sentence","9293","html-keyboard-response","244","247791","0.0-6.0-1.52","114","3","2022-11-17 12:35:01","fd252370c17a9971d68c1d4354a03c2e","","Mozilla/5.0 (Windows NT 6.3; Win64; x64) AppleWebKit/537.36 (KHTML, like Gecko) Chrome/107.0.0.0 Safari/537.36","WebKit","Chrome","107.0.0.0","Windows","6.3","1085"," ","","A man is boiling potatoes.","3","Filler","",""
"","","","","","fixation","9293","html-keyboard-response","245","248311","0.0-6.0-2.52","114","3","2022-11-17 12:35:01","fd252370c17a9971d68c1d4354a03c2e","","Mozilla/5.0 (Windows NT 6.3; Win64; x64) AppleWebKit/537.36 (KHTML, like Gecko) Chrome/107.0.0.0 Safari/537.36","WebKit","Chrome","107.0.0.0","Windows","6.3","null","null","","<p style=""font-size: 48px;"">+</p>","3","Filler","",""
"","","","","","picture","9293","image-keyboard-response","246","249553","0.0-6.0-3.52","114","3","2022-11-17 12:35:01","fd252370c17a9971d68c1d4354a03c2e","","Mozilla/5.0 (Windows NT 6.3; Win64; x64) AppleWebKit/537.36 (KHTML, like Gecko) Chrome/107.0.0.0 Safari/537.36","WebKit","Chrome","107.0.0.0","Windows","6.3","1230","n","","cup.jpg","3","Filler","true",""
"","","","","","fixation","9293","html-keyboard-response","247","250574","0.0-6.0-0.53","114","3","2022-11-17 12:35:01","fd252370c17a9971d68c1d4354a03c2e","","Mozilla/5.0 (Windows NT 6.3; Win64; x64) AppleWebKit/537.36 (KHTML, like Gecko) Chrome/107.0.0.0 Safari/537.36","WebKit","Chrome","107.0.0.0","Windows","6.3","null","null","","<p style=""font-size: 48px;"">+</p>","3","Filler","",""
"","","","","","sentence","9293","html-keyboard-response","248","251752","0.0-6.0-1.53","114","3","2022-11-17 12:35:01","fd252370c17a9971d68c1d4354a03c2e","","Mozilla/5.0 (Windows NT 6.3; Win64; x64) AppleWebKit/537.36 (KHTML, like Gecko) Chrome/107.0.0.0 Safari/537.36","WebKit","Chrome","107.0.0.0","Windows","6.3","1166"," ","","A hairdresser is taking scissors","3","Filler","",""
"","","","","","fixation","9293","html-keyboard-response","249","252270","0.0-6.0-2.53","114","3","2022-11-17 12:35:01","fd252370c17a9971d68c1d4354a03c2e","","Mozilla/5.0 (Windows NT 6.3; Win64; x64) AppleWebKit/537.36 (KHTML, like Gecko) Chrome/107.0.0.0 Safari/537.36","WebKit","Chrome","107.0.0.0","Windows","6.3","null","null","","<p style=""font-size: 48px;"">+</p>","3","Filler","",""
"","","","","","picture","9293","image-keyboard-response","250","252814","0.0-6.0-3.53","114","3","2022-11-17 12:35:01","fd252370c17a9971d68c1d4354a03c2e","","Mozilla/5.0 (Windows NT 6.3; Win64; x64) AppleWebKit/537.36 (KHTML, like Gecko) Chrome/107.0.0.0 Safari/537.36","WebKit","Chrome","107.0.0.0","Windows","6.3","533","n","","sock.jpg","3","Filler","true",""
