"success","timeout","failed_images","failed_audio","failed_video","typeoftrial","subject","trial_type","trial_index","time_elapsed","internal_node_id","run_id","condition","recorded_at","source_code_version","ip","user_agent","device","browser","browser_version","platform","platform_version","rt","response","Experiment","stimulus","list_number","trialcondition","correct","question_order"
"true","false","[]","[]","[]","preload","27840","preload","0","2300","0.0-0.0","86","2","2022-11-17 12:26:25","fd252370c17a9971d68c1d4354a03c2e","","Mozilla/5.0 (X11; CrOS aarch64 15117.86.0) AppleWebKit/537.36 (KHTML, like Gecko) Chrome/107.0.0.0 Safari/537.36","WebKit","Chrome","107.0.0.0","ChromeOS","","","","","","","","",""
"","","","","","ID","27840","survey-text","1","7796","0.0-1.0","86","2","2022-11-17 12:26:25","fd252370c17a9971d68c1d4354a03c2e","","Mozilla/5.0 (X11; CrOS aarch64 15117.86.0) AppleWebKit/537.36 (KHTML, like Gecko) Chrome/107.0.0.0 Safari/537.36","WebKit","Chrome","107.0.0.0","ChromeOS","","5463","{""ID"":""610165cac73a5bf882ad0535""}","","","","","",""
"","","","","","instructions","27840","html-button-response","2","26363","0.0-2.0","86","2","2022-11-17 12:26:25","fd252370c17a9971d68c1d4354a03c2e","","Mozilla/5.0 (X11; CrOS aarch64 15117.86.0) AppleWebKit/537.36 (KHTML, like Gecko) Chrome/107.0.0.0 Safari/537.36","WebKit","Chrome","107.0.0.0","ChromeOS","","18560","0","","
                    <p style=""font-size:20px;""> Welcome to the experiment! </p>
                    <p style=""font-size:20px;""> In this experiment, you will be asked to make judgments about the content of different sentences.</p>
                    <p style=""font-size:20px;""> On each trial, you will read a sentence, and will be shown a picture immediately following the sentence. </p>
                    <p style=""font-size:20px;""> Your task is to decide whether the object displayed in the picture was mentioned in the sentence or not </p>
                    <p style=""font-size:20px;""> and respond as quickly as possible by pressing <strong>S</strong> for yes or <strong>N</strong> for no. </p>
                    <p style=""font-size:20px;""> You will now do a practice session with feedback and instructions. </p>
                    <p style=""font-size:20px;""> Click the button below to continue.</p>
                    ","","","",""
"","","","","","instructions","27840","html-button-response","3","33859","0.0-3.0","86","2","2022-11-17 12:26:25","fd252370c17a9971d68c1d4354a03c2e","","Mozilla/5.0 (X11; CrOS aarch64 15117.86.0) AppleWebKit/537.36 (KHTML, like Gecko) Chrome/107.0.0.0 Safari/537.36","WebKit","Chrome","107.0.0.0","ChromeOS","","7491","0","","
                    <p style=""font-size:20px;""> You are about to begin the practice test. </p>
                    <p style=""font-size:20px;""> On each trial, a sentence will appear on the screen. You should press SPACEBAR when you have read and understood the sentence.</p>
                    <p style=""font-size:20px;""> After you press SPACEBAR, a picture will appear on the screen. </p>
                    <p style=""font-size:20px;""> You need to indicate whether or not the pictured object was mentioned in the sentence. </p>
                    <p style=""font-size:20px;""> If the object WAS mentioned in the preceding sentence, you should press <strong>S</strong> </p>
                    <p style=""font-size:20px;""> If the object was NOT mentioned in the preceding sentence, you should press <strong>N</strong>. </p>
                    <p style=""font-size:20px;""> Click the button below to continue to the practice session.</p>
                    ","","","",""
"","","","","","fixation","27840","html-keyboard-response","4","34868","0.0-4.0-0.0","86","2","2022-11-17 12:26:25","fd252370c17a9971d68c1d4354a03c2e","","Mozilla/5.0 (X11; CrOS aarch64 15117.86.0) AppleWebKit/537.36 (KHTML, like Gecko) Chrome/107.0.0.0 Safari/537.36","WebKit","Chrome","107.0.0.0","ChromeOS","","null","null","","<p style=""font-size: 48px;"">+</p>","practice","practice_n","",""
"","","","","","sentence","27840","html-keyboard-response","5","65988","0.0-4.0-1.0","86","2","2022-11-17 12:26:25","fd252370c17a9971d68c1d4354a03c2e","","Mozilla/5.0 (X11; CrOS aarch64 15117.86.0) AppleWebKit/537.36 (KHTML, like Gecko) Chrome/107.0.0.0 Safari/537.36","WebKit","Chrome","107.0.0.0","ChromeOS","","31114"," ","","A fork was placed on a stool","practice","practice_n","",""
"","","","","","fixation","27840","html-keyboard-response","6","66492","0.0-4.0-2.0","86","2","2022-11-17 12:26:25","fd252370c17a9971d68c1d4354a03c2e","","Mozilla/5.0 (X11; CrOS aarch64 15117.86.0) AppleWebKit/537.36 (KHTML, like Gecko) Chrome/107.0.0.0 Safari/537.36","WebKit","Chrome","107.0.0.0","ChromeOS","","null","null","","<p style=""font-size: 48px;"">+</p>","practice","practice_n","",""
"","","","","","picture","27840","image-keyboard-response","7","70740","0.0-4.0-3.0","86","2","2022-11-17 12:26:25","fd252370c17a9971d68c1d4354a03c2e","","Mozilla/5.0 (X11; CrOS aarch64 15117.86.0) AppleWebKit/537.36 (KHTML, like Gecko) Chrome/107.0.0.0 Safari/537.36","WebKit","Chrome","107.0.0.0","ChromeOS","","4217","n","","tableB.jpg","practice","practice_n","true",""
"","","","","","","","html-keyboard-response","8","72747","0.0-4.0-4.0","86","2","2022-11-17 12:26:25","fd252370c17a9971d68c1d4354a03c2e","","Mozilla/5.0 (X11; CrOS aarch64 15117.86.0) AppleWebKit/537.36 (KHTML, like Gecko) Chrome/107.0.0.0 Safari/537.36","WebKit","Chrome","107.0.0.0","ChromeOS","","null","null","","CORRECT!","","","",""
"","","","","","fixation","27840","html-keyboard-response","9","73755","0.0-4.0-0.1","86","2","2022-11-17 12:26:25","fd252370c17a9971d68c1d4354a03c2e","","Mozilla/5.0 (X11; CrOS aarch64 15117.86.0) AppleWebKit/537.36 (KHTML, like Gecko) Chrome/107.0.0.0 Safari/537.36","WebKit","Chrome","107.0.0.0","ChromeOS","","null","null","","<p style=""font-size: 48px;"">+</p>","practice","practice_s","",""
"","","","","","sentence","27840","html-keyboard-response","10","76944","0.0-4.0-1.1","86","2","2022-11-17 12:26:25","fd252370c17a9971d68c1d4354a03c2e","","Mozilla/5.0 (X11; CrOS aarch64 15117.86.0) AppleWebKit/537.36 (KHTML, like Gecko) Chrome/107.0.0.0 Safari/537.36","WebKit","Chrome","107.0.0.0","ChromeOS","","3185"," ","","A bowling ball dropped and smashed a teacup","practice","practice_s","",""
"","","","","","fixation","27840","html-keyboard-response","11","77452","0.0-4.0-2.1","86","2","2022-11-17 12:26:25","fd252370c17a9971d68c1d4354a03c2e","","Mozilla/5.0 (X11; CrOS aarch64 15117.86.0) AppleWebKit/537.36 (KHTML, like Gecko) Chrome/107.0.0.0 Safari/537.36","WebKit","Chrome","107.0.0.0","ChromeOS","","null","null","","<p style=""font-size: 48px;"">+</p>","practice","practice_s","",""
"","","","","","picture","27840","image-keyboard-response","12","79934","0.0-4.0-3.1","86","2","2022-11-17 12:26:25","fd252370c17a9971d68c1d4354a03c2e","","Mozilla/5.0 (X11; CrOS aarch64 15117.86.0) AppleWebKit/537.36 (KHTML, like Gecko) Chrome/107.0.0.0 Safari/537.36","WebKit","Chrome","107.0.0.0","ChromeOS","","2475","s","","cupB.jpg","practice","practice_s","true",""
"","","","","","","","html-keyboard-response","13","81939","0.0-4.0-4.1","86","2","2022-11-17 12:26:25","fd252370c17a9971d68c1d4354a03c2e","","Mozilla/5.0 (X11; CrOS aarch64 15117.86.0) AppleWebKit/537.36 (KHTML, like Gecko) Chrome/107.0.0.0 Safari/537.36","WebKit","Chrome","107.0.0.0","ChromeOS","","null","null","","CORRECT!","","","",""
"","","","","","fixation","27840","html-keyboard-response","14","82948","0.0-4.0-0.2","86","2","2022-11-17 12:26:25","fd252370c17a9971d68c1d4354a03c2e","","Mozilla/5.0 (X11; CrOS aarch64 15117.86.0) AppleWebKit/537.36 (KHTML, like Gecko) Chrome/107.0.0.0 Safari/537.36","WebKit","Chrome","107.0.0.0","ChromeOS","","null","null","","<p style=""font-size: 48px;"">+</p>","practice","practice_n","",""
"","","","","","sentence","27840","html-keyboard-response","15","88886","0.0-4.0-1.2","86","2","2022-11-17 12:26:25","fd252370c17a9971d68c1d4354a03c2e","","Mozilla/5.0 (X11; CrOS aarch64 15117.86.0) AppleWebKit/537.36 (KHTML, like Gecko) Chrome/107.0.0.0 Safari/537.36","WebKit","Chrome","107.0.0.0","ChromeOS","","5934"," ","","A bowling ball dropped and touched a bottle","practice","practice_n","",""
"","","","","","fixation","27840","html-keyboard-response","16","89395","0.0-4.0-2.2","86","2","2022-11-17 12:26:25","fd252370c17a9971d68c1d4354a03c2e","","Mozilla/5.0 (X11; CrOS aarch64 15117.86.0) AppleWebKit/537.36 (KHTML, like Gecko) Chrome/107.0.0.0 Safari/537.36","WebKit","Chrome","107.0.0.0","ChromeOS","","null","null","","<p style=""font-size: 48px;"">+</p>","practice","practice_n","",""
"","","","","","picture","27840","image-keyboard-response","17","91224","0.0-4.0-3.2","86","2","2022-11-17 12:26:25","fd252370c17a9971d68c1d4354a03c2e","","Mozilla/5.0 (X11; CrOS aarch64 15117.86.0) AppleWebKit/537.36 (KHTML, like Gecko) Chrome/107.0.0.0 Safari/537.36","WebKit","Chrome","107.0.0.0","ChromeOS","","1822","n","","bookB.jpg","practice","practice_n","true",""
"","","","","","","","html-keyboard-response","18","93235","0.0-4.0-4.2","86","2","2022-11-17 12:26:25","fd252370c17a9971d68c1d4354a03c2e","","Mozilla/5.0 (X11; CrOS aarch64 15117.86.0) AppleWebKit/537.36 (KHTML, like Gecko) Chrome/107.0.0.0 Safari/537.36","WebKit","Chrome","107.0.0.0","ChromeOS","","null","null","","CORRECT!","","","",""
"","","","","","fixation","27840","html-keyboard-response","19","94244","0.0-4.0-0.3","86","2","2022-11-17 12:26:25","fd252370c17a9971d68c1d4354a03c2e","","Mozilla/5.0 (X11; CrOS aarch64 15117.86.0) AppleWebKit/537.36 (KHTML, like Gecko) Chrome/107.0.0.0 Safari/537.36","WebKit","Chrome","107.0.0.0","ChromeOS","","null","null","","<p style=""font-size: 48px;"">+</p>","practice","practice_n","",""
"","","","","","sentence","27840","html-keyboard-response","20","97787","0.0-4.0-1.3","86","2","2022-11-17 12:26:25","fd252370c17a9971d68c1d4354a03c2e","","Mozilla/5.0 (X11; CrOS aarch64 15117.86.0) AppleWebKit/537.36 (KHTML, like Gecko) Chrome/107.0.0.0 Safari/537.36","WebKit","Chrome","107.0.0.0","ChromeOS","","3538"," ","","A balloon dropped and smashed a cup","practice","practice_n","",""
"","","","","","fixation","27840","html-keyboard-response","21","98291","0.0-4.0-2.3","86","2","2022-11-17 12:26:25","fd252370c17a9971d68c1d4354a03c2e","","Mozilla/5.0 (X11; CrOS aarch64 15117.86.0) AppleWebKit/537.36 (KHTML, like Gecko) Chrome/107.0.0.0 Safari/537.36","WebKit","Chrome","107.0.0.0","ChromeOS","","null","null","","<p style=""font-size: 48px;"">+</p>","practice","practice_n","",""
"","","","","","picture","27840","image-keyboard-response","22","100142","0.0-4.0-3.3","86","2","2022-11-17 12:26:25","fd252370c17a9971d68c1d4354a03c2e","","Mozilla/5.0 (X11; CrOS aarch64 15117.86.0) AppleWebKit/537.36 (KHTML, like Gecko) Chrome/107.0.0.0 Safari/537.36","WebKit","Chrome","107.0.0.0","ChromeOS","","1844","n","","bananaB.jpg","practice","practice_n","true",""
"","","","","","","","html-keyboard-response","23","102147","0.0-4.0-4.3","86","2","2022-11-17 12:26:25","fd252370c17a9971d68c1d4354a03c2e","","Mozilla/5.0 (X11; CrOS aarch64 15117.86.0) AppleWebKit/537.36 (KHTML, like Gecko) Chrome/107.0.0.0 Safari/537.36","WebKit","Chrome","107.0.0.0","ChromeOS","","null","null","","CORRECT!","","","",""
"","","","","","fixation","27840","html-keyboard-response","24","103155","0.0-4.0-0.4","86","2","2022-11-17 12:26:25","fd252370c17a9971d68c1d4354a03c2e","","Mozilla/5.0 (X11; CrOS aarch64 15117.86.0) AppleWebKit/537.36 (KHTML, like Gecko) Chrome/107.0.0.0 Safari/537.36","WebKit","Chrome","107.0.0.0","ChromeOS","","null","null","","<p style=""font-size: 48px;"">+</p>","practice","practice_s","",""
"","","","","","sentence","27840","html-keyboard-response","25","105711","0.0-4.0-1.4","86","2","2022-11-17 12:26:25","fd252370c17a9971d68c1d4354a03c2e","","Mozilla/5.0 (X11; CrOS aarch64 15117.86.0) AppleWebKit/537.36 (KHTML, like Gecko) Chrome/107.0.0.0 Safari/537.36","WebKit","Chrome","107.0.0.0","ChromeOS","","2550"," ","","A balloon dropped and touched a cigarette","practice","practice_s","",""
"","","","","","fixation","27840","html-keyboard-response","26","106220","0.0-4.0-2.4","86","2","2022-11-17 12:26:25","fd252370c17a9971d68c1d4354a03c2e","","Mozilla/5.0 (X11; CrOS aarch64 15117.86.0) AppleWebKit/537.36 (KHTML, like Gecko) Chrome/107.0.0.0 Safari/537.36","WebKit","Chrome","107.0.0.0","ChromeOS","","null","null","","<p style=""font-size: 48px;"">+</p>","practice","practice_s","",""
"","","","","","picture","27840","image-keyboard-response","27","107747","0.0-4.0-3.4","86","2","2022-11-17 12:26:25","fd252370c17a9971d68c1d4354a03c2e","","Mozilla/5.0 (X11; CrOS aarch64 15117.86.0) AppleWebKit/537.36 (KHTML, like Gecko) Chrome/107.0.0.0 Safari/537.36","WebKit","Chrome","107.0.0.0","ChromeOS","","1520","s","","cigaretteB.jpg","practice","practice_s","true",""
"","","","","","","","html-keyboard-response","28","109756","0.0-4.0-4.4","86","2","2022-11-17 12:26:25","fd252370c17a9971d68c1d4354a03c2e","","Mozilla/5.0 (X11; CrOS aarch64 15117.86.0) AppleWebKit/537.36 (KHTML, like Gecko) Chrome/107.0.0.0 Safari/537.36","WebKit","Chrome","107.0.0.0","ChromeOS","","null","null","","CORRECT!","","","",""
"","","","","","fixation","27840","html-keyboard-response","29","110764","0.0-4.0-0.5","86","2","2022-11-17 12:26:25","fd252370c17a9971d68c1d4354a03c2e","","Mozilla/5.0 (X11; CrOS aarch64 15117.86.0) AppleWebKit/537.36 (KHTML, like Gecko) Chrome/107.0.0.0 Safari/537.36","WebKit","Chrome","107.0.0.0","ChromeOS","","null","null","","<p style=""font-size: 48px;"">+</p>","practice","practice_s","",""
"","","","","","sentence","27840","html-keyboard-response","30","112757","0.0-4.0-1.5","86","2","2022-11-17 12:26:25","fd252370c17a9971d68c1d4354a03c2e","","Mozilla/5.0 (X11; CrOS aarch64 15117.86.0) AppleWebKit/537.36 (KHTML, like Gecko) Chrome/107.0.0.0 Safari/537.36","WebKit","Chrome","107.0.0.0","ChromeOS","","1987"," ","","A knife was placed on a hammer","practice","practice_s","",""
"","","","","","fixation","27840","html-keyboard-response","31","113267","0.0-4.0-2.5","86","2","2022-11-17 12:26:25","fd252370c17a9971d68c1d4354a03c2e","","Mozilla/5.0 (X11; CrOS aarch64 15117.86.0) AppleWebKit/537.36 (KHTML, like Gecko) Chrome/107.0.0.0 Safari/537.36","WebKit","Chrome","107.0.0.0","ChromeOS","","null","null","","<p style=""font-size: 48px;"">+</p>","practice","practice_s","",""
"","","","","","picture","27840","image-keyboard-response","32","115283","0.0-4.0-3.5","86","2","2022-11-17 12:26:25","fd252370c17a9971d68c1d4354a03c2e","","Mozilla/5.0 (X11; CrOS aarch64 15117.86.0) AppleWebKit/537.36 (KHTML, like Gecko) Chrome/107.0.0.0 Safari/537.36","WebKit","Chrome","107.0.0.0","ChromeOS","","2005","s","","hammerB.jpg","practice","practice_s","true",""
"","","","","","","","html-keyboard-response","33","117292","0.0-4.0-4.5","86","2","2022-11-17 12:26:25","fd252370c17a9971d68c1d4354a03c2e","","Mozilla/5.0 (X11; CrOS aarch64 15117.86.0) AppleWebKit/537.36 (KHTML, like Gecko) Chrome/107.0.0.0 Safari/537.36","WebKit","Chrome","107.0.0.0","ChromeOS","","null","null","","CORRECT!","","","",""
"","","","","","movetoexp","27840","html-button-response","34","123203","0.0-5.0","86","2","2022-11-17 12:26:25","fd252370c17a9971d68c1d4354a03c2e","","Mozilla/5.0 (X11; CrOS aarch64 15117.86.0) AppleWebKit/537.36 (KHTML, like Gecko) Chrome/107.0.0.0 Safari/537.36","WebKit","Chrome","107.0.0.0","ChromeOS","","5904","0","","<p style=""font-size:20px;"">You have now completed the practice session! </p>
                    <p style=""font-size:20px;"">You will now move on to the main experiment, where you will not be provided any feedback. </p>
                    <p style=""font-size:20px;"">Remember, you should press <strong>S</strong> if the pictured object was mentioned in the preceding sentence<br> and <strong>N</strong> if the pictured object was not mentioned in the preceding sentence.</p>
                    <p style=""font-size:20px;"">Please click the button below to continue to the main experiment. </p>","","","",""
"","","","","","fixation","27840","html-keyboard-response","35","124211","0.0-6.0-0.0","86","2","2022-11-17 12:26:25","fd252370c17a9971d68c1d4354a03c2e","","Mozilla/5.0 (X11; CrOS aarch64 15117.86.0) AppleWebKit/537.36 (KHTML, like Gecko) Chrome/107.0.0.0 Safari/537.36","WebKit","Chrome","107.0.0.0","ChromeOS","","null","null","","<p style=""font-size: 48px;"">+</p>","2","Light_Matched","",""
"","","","","","sentence","27840","html-keyboard-response","36","127462","0.0-6.0-1.0","86","2","2022-11-17 12:26:25","fd252370c17a9971d68c1d4354a03c2e","","Mozilla/5.0 (X11; CrOS aarch64 15117.86.0) AppleWebKit/537.36 (KHTML, like Gecko) Chrome/107.0.0.0 Safari/537.36","WebKit","Chrome","107.0.0.0","ChromeOS","","3247"," ","","A balloon dropped and touched a tomato","2","Light_Matched","",""
"","","","","","fixation","27840","html-keyboard-response","37","127972","0.0-6.0-2.0","86","2","2022-11-17 12:26:25","fd252370c17a9971d68c1d4354a03c2e","","Mozilla/5.0 (X11; CrOS aarch64 15117.86.0) AppleWebKit/537.36 (KHTML, like Gecko) Chrome/107.0.0.0 Safari/537.36","WebKit","Chrome","107.0.0.0","ChromeOS","","null","null","","<p style=""font-size: 48px;"">+</p>","2","Light_Matched","",""
"","","","","","picture","27840","image-keyboard-response","38","129049","0.0-6.0-3.0","86","2","2022-11-17 12:26:25","fd252370c17a9971d68c1d4354a03c2e","","Mozilla/5.0 (X11; CrOS aarch64 15117.86.0) AppleWebKit/537.36 (KHTML, like Gecko) Chrome/107.0.0.0 Safari/537.36","WebKit","Chrome","107.0.0.0","ChromeOS","","1069","s","","tomatoS.jpg","2","Light_Matched","true",""
"","","","","","fixation","27840","html-keyboard-response","39","130059","0.0-6.0-0.1","86","2","2022-11-17 12:26:25","fd252370c17a9971d68c1d4354a03c2e","","Mozilla/5.0 (X11; CrOS aarch64 15117.86.0) AppleWebKit/537.36 (KHTML, like Gecko) Chrome/107.0.0.0 Safari/537.36","WebKit","Chrome","107.0.0.0","ChromeOS","","null","null","","<p style=""font-size: 48px;"">+</p>","2","Light_Matched","",""
"","","","","","sentence","27840","html-keyboard-response","40","132228","0.0-6.0-1.1","86","2","2022-11-17 12:26:25","fd252370c17a9971d68c1d4354a03c2e","","Mozilla/5.0 (X11; CrOS aarch64 15117.86.0) AppleWebKit/537.36 (KHTML, like Gecko) Chrome/107.0.0.0 Safari/537.36","WebKit","Chrome","107.0.0.0","ChromeOS","","2162"," ","","A balloon dropped and touched a piece of sushi","2","Light_Matched","",""
"","","","","","fixation","27840","html-keyboard-response","41","132739","0.0-6.0-2.1","86","2","2022-11-17 12:26:25","fd252370c17a9971d68c1d4354a03c2e","","Mozilla/5.0 (X11; CrOS aarch64 15117.86.0) AppleWebKit/537.36 (KHTML, like Gecko) Chrome/107.0.0.0 Safari/537.36","WebKit","Chrome","107.0.0.0","ChromeOS","","null","null","","<p style=""font-size: 48px;"">+</p>","2","Light_Matched","",""
"","","","","","picture","27840","image-keyboard-response","42","133787","0.0-6.0-3.1","86","2","2022-11-17 12:26:25","fd252370c17a9971d68c1d4354a03c2e","","Mozilla/5.0 (X11; CrOS aarch64 15117.86.0) AppleWebKit/537.36 (KHTML, like Gecko) Chrome/107.0.0.0 Safari/537.36","WebKit","Chrome","107.0.0.0","ChromeOS","","1038","s","","sushiS.jpg","2","Light_Matched","true",""
"","","","","","fixation","27840","html-keyboard-response","43","134795","0.0-6.0-0.2","86","2","2022-11-17 12:26:25","fd252370c17a9971d68c1d4354a03c2e","","Mozilla/5.0 (X11; CrOS aarch64 15117.86.0) AppleWebKit/537.36 (KHTML, like Gecko) Chrome/107.0.0.0 Safari/537.36","WebKit","Chrome","107.0.0.0","ChromeOS","","null","null","","<p style=""font-size: 48px;"">+</p>","2","Filler","",""
"","","","","","sentence","27840","html-keyboard-response","44","136985","0.0-6.0-1.2","86","2","2022-11-17 12:26:25","fd252370c17a9971d68c1d4354a03c2e","","Mozilla/5.0 (X11; CrOS aarch64 15117.86.0) AppleWebKit/537.36 (KHTML, like Gecko) Chrome/107.0.0.0 Safari/537.36","WebKit","Chrome","107.0.0.0","ChromeOS","","2183"," ","","A remote was placed on the rug","2","Filler","",""
"","","","","","fixation","27840","html-keyboard-response","45","137491","0.0-6.0-2.2","86","2","2022-11-17 12:26:25","fd252370c17a9971d68c1d4354a03c2e","","Mozilla/5.0 (X11; CrOS aarch64 15117.86.0) AppleWebKit/537.36 (KHTML, like Gecko) Chrome/107.0.0.0 Safari/537.36","WebKit","Chrome","107.0.0.0","ChromeOS","","null","null","","<p style=""font-size: 48px;"">+</p>","2","Filler","",""
"","","","","","picture","27840","image-keyboard-response","46","138764","0.0-6.0-3.2","86","2","2022-11-17 12:26:25","fd252370c17a9971d68c1d4354a03c2e","","Mozilla/5.0 (X11; CrOS aarch64 15117.86.0) AppleWebKit/537.36 (KHTML, like Gecko) Chrome/107.0.0.0 Safari/537.36","WebKit","Chrome","107.0.0.0","ChromeOS","","1263","n","","CD.jpg","2","Filler","true",""
"","","","","","fixation","27840","html-keyboard-response","47","139779","0.0-6.0-0.3","86","2","2022-11-17 12:26:25","fd252370c17a9971d68c1d4354a03c2e","","Mozilla/5.0 (X11; CrOS aarch64 15117.86.0) AppleWebKit/537.36 (KHTML, like Gecko) Chrome/107.0.0.0 Safari/537.36","WebKit","Chrome","107.0.0.0","ChromeOS","","null","null","","<p style=""font-size: 48px;"">+</p>","2","Filler","",""
"","","","","","sentence","27840","html-keyboard-response","48","141334","0.0-6.0-1.3","86","2","2022-11-17 12:26:25","fd252370c17a9971d68c1d4354a03c2e","","Mozilla/5.0 (X11; CrOS aarch64 15117.86.0) AppleWebKit/537.36 (KHTML, like Gecko) Chrome/107.0.0.0 Safari/537.36","WebKit","Chrome","107.0.0.0","ChromeOS","","1549"," ","","A parrot is eating an apple","2","Filler","",""
"","","","","","fixation","27840","html-keyboard-response","49","141843","0.0-6.0-2.3","86","2","2022-11-17 12:26:25","fd252370c17a9971d68c1d4354a03c2e","","Mozilla/5.0 (X11; CrOS aarch64 15117.86.0) AppleWebKit/537.36 (KHTML, like Gecko) Chrome/107.0.0.0 Safari/537.36","WebKit","Chrome","107.0.0.0","ChromeOS","","null","null","","<p style=""font-size: 48px;"">+</p>","2","Filler","",""
"","","","","","picture","27840","image-keyboard-response","50","143148","0.0-6.0-3.3","86","2","2022-11-17 12:26:25","fd252370c17a9971d68c1d4354a03c2e","","Mozilla/5.0 (X11; CrOS aarch64 15117.86.0) AppleWebKit/537.36 (KHTML, like Gecko) Chrome/107.0.0.0 Safari/537.36","WebKit","Chrome","107.0.0.0","ChromeOS","","1296","n","","shirt.jpg","2","Filler","true",""
"","","","","","fixation","27840","html-keyboard-response","51","144164","0.0-6.0-0.4","86","2","2022-11-17 12:26:25","fd252370c17a9971d68c1d4354a03c2e","","Mozilla/5.0 (X11; CrOS aarch64 15117.86.0) AppleWebKit/537.36 (KHTML, like Gecko) Chrome/107.0.0.0 Safari/537.36","WebKit","Chrome","107.0.0.0","ChromeOS","","null","null","","<p style=""font-size: 48px;"">+</p>","2","Filler","",""
"","","","","","sentence","27840","html-keyboard-response","52","145642","0.0-6.0-1.4","86","2","2022-11-17 12:26:25","fd252370c17a9971d68c1d4354a03c2e","","Mozilla/5.0 (X11; CrOS aarch64 15117.86.0) AppleWebKit/537.36 (KHTML, like Gecko) Chrome/107.0.0.0 Safari/537.36","WebKit","Chrome","107.0.0.0","ChromeOS","","1471"," ","","A puppy is playing with a ball","2","Filler","",""
"","","","","","fixation","27840","html-keyboard-response","53","146155","0.0-6.0-2.4","86","2","2022-11-17 12:26:25","fd252370c17a9971d68c1d4354a03c2e","","Mozilla/5.0 (X11; CrOS aarch64 15117.86.0) AppleWebKit/537.36 (KHTML, like Gecko) Chrome/107.0.0.0 Safari/537.36","WebKit","Chrome","107.0.0.0","ChromeOS","","null","null","","<p style=""font-size: 48px;"">+</p>","2","Filler","",""
"","","","","","picture","27840","image-keyboard-response","54","147420","0.0-6.0-3.4","86","2","2022-11-17 12:26:25","fd252370c17a9971d68c1d4354a03c2e","","Mozilla/5.0 (X11; CrOS aarch64 15117.86.0) AppleWebKit/537.36 (KHTML, like Gecko) Chrome/107.0.0.0 Safari/537.36","WebKit","Chrome","107.0.0.0","ChromeOS","","1256","s","","tennisball.jpg","2","Filler","true",""
"","","","","","fixation","27840","html-keyboard-response","55","148428","0.0-6.0-0.5","86","2","2022-11-17 12:26:25","fd252370c17a9971d68c1d4354a03c2e","","Mozilla/5.0 (X11; CrOS aarch64 15117.86.0) AppleWebKit/537.36 (KHTML, like Gecko) Chrome/107.0.0.0 Safari/537.36","WebKit","Chrome","107.0.0.0","ChromeOS","","null","null","","<p style=""font-size: 48px;"">+</p>","2","Filler","",""
"","","","","","sentence","27840","html-keyboard-response","56","150075","0.0-6.0-1.5","86","2","2022-11-17 12:26:25","fd252370c17a9971d68c1d4354a03c2e","","Mozilla/5.0 (X11; CrOS aarch64 15117.86.0) AppleWebKit/537.36 (KHTML, like Gecko) Chrome/107.0.0.0 Safari/537.36","WebKit","Chrome","107.0.0.0","ChromeOS","","1638"," ","","A cabbage was placed on the table","2","Filler","",""
"","","","","","fixation","27840","html-keyboard-response","57","150587","0.0-6.0-2.5","86","2","2022-11-17 12:26:25","fd252370c17a9971d68c1d4354a03c2e","","Mozilla/5.0 (X11; CrOS aarch64 15117.86.0) AppleWebKit/537.36 (KHTML, like Gecko) Chrome/107.0.0.0 Safari/537.36","WebKit","Chrome","107.0.0.0","ChromeOS","","null","null","","<p style=""font-size: 48px;"">+</p>","2","Filler","",""
"","","","","","picture","27840","image-keyboard-response","58","151703","0.0-6.0-3.5","86","2","2022-11-17 12:26:25","fd252370c17a9971d68c1d4354a03c2e","","Mozilla/5.0 (X11; CrOS aarch64 15117.86.0) AppleWebKit/537.36 (KHTML, like Gecko) Chrome/107.0.0.0 Safari/537.36","WebKit","Chrome","107.0.0.0","ChromeOS","","1105","s","","ladder.jpg","2","Filler","false",""
"","","","","","fixation","27840","html-keyboard-response","59","152716","0.0-6.0-0.6","86","2","2022-11-17 12:26:25","fd252370c17a9971d68c1d4354a03c2e","","Mozilla/5.0 (X11; CrOS aarch64 15117.86.0) AppleWebKit/537.36 (KHTML, like Gecko) Chrome/107.0.0.0 Safari/537.36","WebKit","Chrome","107.0.0.0","ChromeOS","","null","null","","<p style=""font-size: 48px;"">+</p>","2","Filler","",""
"","","","","","sentence","27840","html-keyboard-response","60","154475","0.0-6.0-1.6","86","2","2022-11-17 12:26:25","fd252370c17a9971d68c1d4354a03c2e","","Mozilla/5.0 (X11; CrOS aarch64 15117.86.0) AppleWebKit/537.36 (KHTML, like Gecko) Chrome/107.0.0.0 Safari/537.36","WebKit","Chrome","107.0.0.0","ChromeOS","","1750"," ","","A donkey is drinking water.","2","Filler","",""
"","","","","","fixation","27840","html-keyboard-response","61","154987","0.0-6.0-2.6","86","2","2022-11-17 12:26:25","fd252370c17a9971d68c1d4354a03c2e","","Mozilla/5.0 (X11; CrOS aarch64 15117.86.0) AppleWebKit/537.36 (KHTML, like Gecko) Chrome/107.0.0.0 Safari/537.36","WebKit","Chrome","107.0.0.0","ChromeOS","","null","null","","<p style=""font-size: 48px;"">+</p>","2","Filler","",""
"","","","","","picture","27840","image-keyboard-response","62","156500","0.0-6.0-3.6","86","2","2022-11-17 12:26:25","fd252370c17a9971d68c1d4354a03c2e","","Mozilla/5.0 (X11; CrOS aarch64 15117.86.0) AppleWebKit/537.36 (KHTML, like Gecko) Chrome/107.0.0.0 Safari/537.36","WebKit","Chrome","107.0.0.0","ChromeOS","","1501","n","","couch.jpg","2","Filler","true",""
"","","","","","fixation","27840","html-keyboard-response","63","157515","0.0-6.0-0.7","86","2","2022-11-17 12:26:25","fd252370c17a9971d68c1d4354a03c2e","","Mozilla/5.0 (X11; CrOS aarch64 15117.86.0) AppleWebKit/537.36 (KHTML, like Gecko) Chrome/107.0.0.0 Safari/537.36","WebKit","Chrome","107.0.0.0","ChromeOS","","null","null","","<p style=""font-size: 48px;"">+</p>","2","Filler","",""
"","","","","","sentence","27840","html-keyboard-response","64","159937","0.0-6.0-1.7","86","2","2022-11-17 12:26:25","fd252370c17a9971d68c1d4354a03c2e","","Mozilla/5.0 (X11; CrOS aarch64 15117.86.0) AppleWebKit/537.36 (KHTML, like Gecko) Chrome/107.0.0.0 Safari/537.36","WebKit","Chrome","107.0.0.0","ChromeOS","","2415"," ","","A hairdresser is taking scissors","2","Filler","",""
"","","","","","fixation","27840","html-keyboard-response","65","160452","0.0-6.0-2.7","86","2","2022-11-17 12:26:25","fd252370c17a9971d68c1d4354a03c2e","","Mozilla/5.0 (X11; CrOS aarch64 15117.86.0) AppleWebKit/537.36 (KHTML, like Gecko) Chrome/107.0.0.0 Safari/537.36","WebKit","Chrome","107.0.0.0","ChromeOS","","null","null","","<p style=""font-size: 48px;"">+</p>","2","Filler","",""
"","","","","","picture","27840","image-keyboard-response","66","162786","0.0-6.0-3.7","86","2","2022-11-17 12:26:25","fd252370c17a9971d68c1d4354a03c2e","","Mozilla/5.0 (X11; CrOS aarch64 15117.86.0) AppleWebKit/537.36 (KHTML, like Gecko) Chrome/107.0.0.0 Safari/537.36","WebKit","Chrome","107.0.0.0","ChromeOS","","2324","n","","sock.jpg","2","Filler","true",""
"","","","","","fixation","27840","html-keyboard-response","67","163795","0.0-6.0-0.8","86","2","2022-11-17 12:26:25","fd252370c17a9971d68c1d4354a03c2e","","Mozilla/5.0 (X11; CrOS aarch64 15117.86.0) AppleWebKit/537.36 (KHTML, like Gecko) Chrome/107.0.0.0 Safari/537.36","WebKit","Chrome","107.0.0.0","ChromeOS","","null","null","","<p style=""font-size: 48px;"">+</p>","2","Filler","",""
"","","","","","sentence","27840","html-keyboard-response","68","164992","0.0-6.0-1.8","86","2","2022-11-17 12:26:25","fd252370c17a9971d68c1d4354a03c2e","","Mozilla/5.0 (X11; CrOS aarch64 15117.86.0) AppleWebKit/537.36 (KHTML, like Gecko) Chrome/107.0.0.0 Safari/537.36","WebKit","Chrome","107.0.0.0","ChromeOS","","1188"," ","","A man is shaving his beard","2","Filler","",""
"","","","","","fixation","27840","html-keyboard-response","69","165500","0.0-6.0-2.8","86","2","2022-11-17 12:26:25","fd252370c17a9971d68c1d4354a03c2e","","Mozilla/5.0 (X11; CrOS aarch64 15117.86.0) AppleWebKit/537.36 (KHTML, like Gecko) Chrome/107.0.0.0 Safari/537.36","WebKit","Chrome","107.0.0.0","ChromeOS","","null","null","","<p style=""font-size: 48px;"">+</p>","2","Filler","",""
"","","","","","picture","27840","image-keyboard-response","70","166657","0.0-6.0-3.8","86","2","2022-11-17 12:26:25","fd252370c17a9971d68c1d4354a03c2e","","Mozilla/5.0 (X11; CrOS aarch64 15117.86.0) AppleWebKit/537.36 (KHTML, like Gecko) Chrome/107.0.0.0 Safari/537.36","WebKit","Chrome","107.0.0.0","ChromeOS","","1145","n","","clock.jpg","2","Filler","true",""
"","","","","","fixation","27840","html-keyboard-response","71","167667","0.0-6.0-0.9","86","2","2022-11-17 12:26:25","fd252370c17a9971d68c1d4354a03c2e","","Mozilla/5.0 (X11; CrOS aarch64 15117.86.0) AppleWebKit/537.36 (KHTML, like Gecko) Chrome/107.0.0.0 Safari/537.36","WebKit","Chrome","107.0.0.0","ChromeOS","","null","null","","<p style=""font-size: 48px;"">+</p>","2","Filler","",""
"","","","","","sentence","27840","html-keyboard-response","72","168614","0.0-6.0-1.9","86","2","2022-11-17 12:26:25","fd252370c17a9971d68c1d4354a03c2e","","Mozilla/5.0 (X11; CrOS aarch64 15117.86.0) AppleWebKit/537.36 (KHTML, like Gecko) Chrome/107.0.0.0 Safari/537.36","WebKit","Chrome","107.0.0.0","ChromeOS","","937"," ","","A postman is driving a car","2","Filler","",""
"","","","","","fixation","27840","html-keyboard-response","73","169123","0.0-6.0-2.9","86","2","2022-11-17 12:26:25","fd252370c17a9971d68c1d4354a03c2e","","Mozilla/5.0 (X11; CrOS aarch64 15117.86.0) AppleWebKit/537.36 (KHTML, like Gecko) Chrome/107.0.0.0 Safari/537.36","WebKit","Chrome","107.0.0.0","ChromeOS","","null","null","","<p style=""font-size: 48px;"">+</p>","2","Filler","",""
"","","","","","picture","27840","image-keyboard-response","74","170453","0.0-6.0-3.9","86","2","2022-11-17 12:26:25","fd252370c17a9971d68c1d4354a03c2e","","Mozilla/5.0 (X11; CrOS aarch64 15117.86.0) AppleWebKit/537.36 (KHTML, like Gecko) Chrome/107.0.0.0 Safari/537.36","WebKit","Chrome","107.0.0.0","ChromeOS","","1320","s","","car.jpg","2","Filler","true",""
"","","","","","fixation","27840","html-keyboard-response","75","171467","0.0-6.0-0.10","86","2","2022-11-17 12:26:25","fd252370c17a9971d68c1d4354a03c2e","","Mozilla/5.0 (X11; CrOS aarch64 15117.86.0) AppleWebKit/537.36 (KHTML, like Gecko) Chrome/107.0.0.0 Safari/537.36","WebKit","Chrome","107.0.0.0","ChromeOS","","null","null","","<p style=""font-size: 48px;"">+</p>","2","Heavy_Matched","",""
"","","","","","sentence","27840","html-keyboard-response","76","173561","0.0-6.0-1.10","86","2","2022-11-17 12:26:25","fd252370c17a9971d68c1d4354a03c2e","","Mozilla/5.0 (X11; CrOS aarch64 15117.86.0) AppleWebKit/537.36 (KHTML, like Gecko) Chrome/107.0.0.0 Safari/537.36","WebKit","Chrome","107.0.0.0","ChromeOS","","2086"," ","","A bowling ball dropped and smashed glasses","2","Heavy_Matched","",""
"","","","","","fixation","27840","html-keyboard-response","77","174076","0.0-6.0-2.10","86","2","2022-11-17 12:26:25","fd252370c17a9971d68c1d4354a03c2e","","Mozilla/5.0 (X11; CrOS aarch64 15117.86.0) AppleWebKit/537.36 (KHTML, like Gecko) Chrome/107.0.0.0 Safari/537.36","WebKit","Chrome","107.0.0.0","ChromeOS","","null","null","","<p style=""font-size: 48px;"">+</p>","2","Heavy_Matched","",""
"","","","","","picture","27840","image-keyboard-response","78","175753","0.0-6.0-3.10","86","2","2022-11-17 12:26:25","fd252370c17a9971d68c1d4354a03c2e","","Mozilla/5.0 (X11; CrOS aarch64 15117.86.0) AppleWebKit/537.36 (KHTML, like Gecko) Chrome/107.0.0.0 Safari/537.36","WebKit","Chrome","107.0.0.0","ChromeOS","","1665","s","","glassesS.jpg","2","Heavy_Matched","true",""
"","","","","","fixation","27840","html-keyboard-response","79","176764","0.0-6.0-0.11","86","2","2022-11-17 12:26:25","fd252370c17a9971d68c1d4354a03c2e","","Mozilla/5.0 (X11; CrOS aarch64 15117.86.0) AppleWebKit/537.36 (KHTML, like Gecko) Chrome/107.0.0.0 Safari/537.36","WebKit","Chrome","107.0.0.0","ChromeOS","","null","null","","<p style=""font-size: 48px;"">+</p>","2","Heavy_Contradictory","",""
"","","","","","sentence","27840","html-keyboard-response","80","178648","0.0-6.0-1.11","86","2","2022-11-17 12:26:25","fd252370c17a9971d68c1d4354a03c2e","","Mozilla/5.0 (X11; CrOS aarch64 15117.86.0) AppleWebKit/537.36 (KHTML, like Gecko) Chrome/107.0.0.0 Safari/537.36","WebKit","Chrome","107.0.0.0","ChromeOS","","1875"," ","","A bowling ball dropped and touched a donut","2","Heavy_Contradictory","",""
"","","","","","fixation","27840","html-keyboard-response","81","179155","0.0-6.0-2.11","86","2","2022-11-17 12:26:25","fd252370c17a9971d68c1d4354a03c2e","","Mozilla/5.0 (X11; CrOS aarch64 15117.86.0) AppleWebKit/537.36 (KHTML, like Gecko) Chrome/107.0.0.0 Safari/537.36","WebKit","Chrome","107.0.0.0","ChromeOS","","null","null","","<p style=""font-size: 48px;"">+</p>","2","Heavy_Contradictory","",""
"","","","","","picture","27840","image-keyboard-response","82","180518","0.0-6.0-3.11","86","2","2022-11-17 12:26:25","fd252370c17a9971d68c1d4354a03c2e","","Mozilla/5.0 (X11; CrOS aarch64 15117.86.0) AppleWebKit/537.36 (KHTML, like Gecko) Chrome/107.0.0.0 Safari/537.36","WebKit","Chrome","107.0.0.0","ChromeOS","","1352","s","","donutS.jpg","2","Heavy_Contradictory","true",""
"","","","","","fixation","27840","html-keyboard-response","83","181531","0.0-6.0-0.12","86","2","2022-11-17 12:26:25","fd252370c17a9971d68c1d4354a03c2e","","Mozilla/5.0 (X11; CrOS aarch64 15117.86.0) AppleWebKit/537.36 (KHTML, like Gecko) Chrome/107.0.0.0 Safari/537.36","WebKit","Chrome","107.0.0.0","ChromeOS","","null","null","","<p style=""font-size: 48px;"">+</p>","2","Filler","",""
"","","","","","sentence","27840","html-keyboard-response","84","183203","0.0-6.0-1.12","86","2","2022-11-17 12:26:25","fd252370c17a9971d68c1d4354a03c2e","","Mozilla/5.0 (X11; CrOS aarch64 15117.86.0) AppleWebKit/537.36 (KHTML, like Gecko) Chrome/107.0.0.0 Safari/537.36","WebKit","Chrome","107.0.0.0","ChromeOS","","1662"," ","","A butterfly is sitting on a flower","2","Filler","",""
"","","","","","fixation","27840","html-keyboard-response","85","183715","0.0-6.0-2.12","86","2","2022-11-17 12:26:25","fd252370c17a9971d68c1d4354a03c2e","","Mozilla/5.0 (X11; CrOS aarch64 15117.86.0) AppleWebKit/537.36 (KHTML, like Gecko) Chrome/107.0.0.0 Safari/537.36","WebKit","Chrome","107.0.0.0","ChromeOS","","null","null","","<p style=""font-size: 48px;"">+</p>","2","Filler","",""
"","","","","","picture","27840","image-keyboard-response","86","185020","0.0-6.0-3.12","86","2","2022-11-17 12:26:25","fd252370c17a9971d68c1d4354a03c2e","","Mozilla/5.0 (X11; CrOS aarch64 15117.86.0) AppleWebKit/537.36 (KHTML, like Gecko) Chrome/107.0.0.0 Safari/537.36","WebKit","Chrome","107.0.0.0","ChromeOS","","1291","n","","soap.jpg","2","Filler","true",""
"","","","","","fixation","27840","html-keyboard-response","87","186036","0.0-6.0-0.13","86","2","2022-11-17 12:26:25","fd252370c17a9971d68c1d4354a03c2e","","Mozilla/5.0 (X11; CrOS aarch64 15117.86.0) AppleWebKit/537.36 (KHTML, like Gecko) Chrome/107.0.0.0 Safari/537.36","WebKit","Chrome","107.0.0.0","ChromeOS","","null","null","","<p style=""font-size: 48px;"">+</p>","2","Filler","",""
"","","","","","sentence","27840","html-keyboard-response","88","187943","0.0-6.0-1.13","86","2","2022-11-17 12:26:25","fd252370c17a9971d68c1d4354a03c2e","","Mozilla/5.0 (X11; CrOS aarch64 15117.86.0) AppleWebKit/537.36 (KHTML, like Gecko) Chrome/107.0.0.0 Safari/537.36","WebKit","Chrome","107.0.0.0","ChromeOS","","1897"," ","","A nurse is taking a syringe","2","Filler","",""
"","","","","","fixation","27840","html-keyboard-response","89","188459","0.0-6.0-2.13","86","2","2022-11-17 12:26:25","fd252370c17a9971d68c1d4354a03c2e","","Mozilla/5.0 (X11; CrOS aarch64 15117.86.0) AppleWebKit/537.36 (KHTML, like Gecko) Chrome/107.0.0.0 Safari/537.36","WebKit","Chrome","107.0.0.0","ChromeOS","","null","null","","<p style=""font-size: 48px;"">+</p>","2","Filler","",""
"","","","","","picture","27840","image-keyboard-response","90","189424","0.0-6.0-3.13","86","2","2022-11-17 12:26:25","fd252370c17a9971d68c1d4354a03c2e","","Mozilla/5.0 (X11; CrOS aarch64 15117.86.0) AppleWebKit/537.36 (KHTML, like Gecko) Chrome/107.0.0.0 Safari/537.36","WebKit","Chrome","107.0.0.0","ChromeOS","","951","n","","headphones.jpg","2","Filler","true",""
"","","","","","fixation","27840","html-keyboard-response","91","190435","0.0-6.0-0.14","86","2","2022-11-17 12:26:25","fd252370c17a9971d68c1d4354a03c2e","","Mozilla/5.0 (X11; CrOS aarch64 15117.86.0) AppleWebKit/537.36 (KHTML, like Gecko) Chrome/107.0.0.0 Safari/537.36","WebKit","Chrome","107.0.0.0","ChromeOS","","null","null","","<p style=""font-size: 48px;"">+</p>","2","Filler","",""
"","","","","","sentence","27840","html-keyboard-response","92","191830","0.0-6.0-1.14","86","2","2022-11-17 12:26:25","fd252370c17a9971d68c1d4354a03c2e","","Mozilla/5.0 (X11; CrOS aarch64 15117.86.0) AppleWebKit/537.36 (KHTML, like Gecko) Chrome/107.0.0.0 Safari/537.36","WebKit","Chrome","107.0.0.0","ChromeOS","","1383"," ","","A fork was placed on the plate","2","Filler","",""
"","","","","","fixation","27840","html-keyboard-response","93","192340","0.0-6.0-2.14","86","2","2022-11-17 12:26:25","fd252370c17a9971d68c1d4354a03c2e","","Mozilla/5.0 (X11; CrOS aarch64 15117.86.0) AppleWebKit/537.36 (KHTML, like Gecko) Chrome/107.0.0.0 Safari/537.36","WebKit","Chrome","107.0.0.0","ChromeOS","","null","null","","<p style=""font-size: 48px;"">+</p>","2","Filler","",""
"","","","","","picture","27840","image-keyboard-response","94","194083","0.0-6.0-3.14","86","2","2022-11-17 12:26:25","fd252370c17a9971d68c1d4354a03c2e","","Mozilla/5.0 (X11; CrOS aarch64 15117.86.0) AppleWebKit/537.36 (KHTML, like Gecko) Chrome/107.0.0.0 Safari/537.36","WebKit","Chrome","107.0.0.0","ChromeOS","","1729","s","","plate.jpg","2","Filler","true",""
"","","","","","fixation","27840","html-keyboard-response","95","195100","0.0-6.0-0.15","86","2","2022-11-17 12:26:25","fd252370c17a9971d68c1d4354a03c2e","","Mozilla/5.0 (X11; CrOS aarch64 15117.86.0) AppleWebKit/537.36 (KHTML, like Gecko) Chrome/107.0.0.0 Safari/537.36","WebKit","Chrome","107.0.0.0","ChromeOS","","null","null","","<p style=""font-size: 48px;"">+</p>","2","Heavy_Contradictory","",""
"","","","","","sentence","27840","html-keyboard-response","96","197659","0.0-6.0-1.15","86","2","2022-11-17 12:26:25","fd252370c17a9971d68c1d4354a03c2e","","Mozilla/5.0 (X11; CrOS aarch64 15117.86.0) AppleWebKit/537.36 (KHTML, like Gecko) Chrome/107.0.0.0 Safari/537.36","WebKit","Chrome","107.0.0.0","ChromeOS","","2545"," ","","A bowling ball dropped and touched an iPhone","2","Heavy_Contradictory","",""
"","","","","","fixation","27840","html-keyboard-response","97","198171","0.0-6.0-2.15","86","2","2022-11-17 12:26:25","fd252370c17a9971d68c1d4354a03c2e","","Mozilla/5.0 (X11; CrOS aarch64 15117.86.0) AppleWebKit/537.36 (KHTML, like Gecko) Chrome/107.0.0.0 Safari/537.36","WebKit","Chrome","107.0.0.0","ChromeOS","","null","null","","<p style=""font-size: 48px;"">+</p>","2","Heavy_Contradictory","",""
"","","","","","picture","27840","image-keyboard-response","98","200598","0.0-6.0-3.15","86","2","2022-11-17 12:26:25","fd252370c17a9971d68c1d4354a03c2e","","Mozilla/5.0 (X11; CrOS aarch64 15117.86.0) AppleWebKit/537.36 (KHTML, like Gecko) Chrome/107.0.0.0 Safari/537.36","WebKit","Chrome","107.0.0.0","ChromeOS","","2413","s","","iphoneS.png","2","Heavy_Contradictory","true",""
"","","","","","fixation","27840","html-keyboard-response","99","201620","0.0-6.0-0.16","86","2","2022-11-17 12:26:25","fd252370c17a9971d68c1d4354a03c2e","","Mozilla/5.0 (X11; CrOS aarch64 15117.86.0) AppleWebKit/537.36 (KHTML, like Gecko) Chrome/107.0.0.0 Safari/537.36","WebKit","Chrome","107.0.0.0","ChromeOS","","null","null","","<p style=""font-size: 48px;"">+</p>","2","Heavy_Matched","",""
"","","","","","sentence","27840","html-keyboard-response","100","203511","0.0-6.0-1.16","86","2","2022-11-17 12:26:25","fd252370c17a9971d68c1d4354a03c2e","","Mozilla/5.0 (X11; CrOS aarch64 15117.86.0) AppleWebKit/537.36 (KHTML, like Gecko) Chrome/107.0.0.0 Safari/537.36","WebKit","Chrome","107.0.0.0","ChromeOS","","1877"," ","","A bowling ball dropped and smashed a chocolate ice-cream","2","Heavy_Matched","",""
"","","","","","fixation","27840","html-keyboard-response","101","204027","0.0-6.0-2.16","86","2","2022-11-17 12:26:25","fd252370c17a9971d68c1d4354a03c2e","","Mozilla/5.0 (X11; CrOS aarch64 15117.86.0) AppleWebKit/537.36 (KHTML, like Gecko) Chrome/107.0.0.0 Safari/537.36","WebKit","Chrome","107.0.0.0","ChromeOS","","null","null","","<p style=""font-size: 48px;"">+</p>","2","Heavy_Matched","",""
"","","","","","picture","27840","image-keyboard-response","102","206429","0.0-6.0-3.16","86","2","2022-11-17 12:26:25","fd252370c17a9971d68c1d4354a03c2e","","Mozilla/5.0 (X11; CrOS aarch64 15117.86.0) AppleWebKit/537.36 (KHTML, like Gecko) Chrome/107.0.0.0 Safari/537.36","WebKit","Chrome","107.0.0.0","ChromeOS","","2385","s","","icecreamS.jpg","2","Heavy_Matched","true",""
"","","","","","fixation","27840","html-keyboard-response","103","207443","0.0-6.0-0.17","86","2","2022-11-17 12:26:25","fd252370c17a9971d68c1d4354a03c2e","","Mozilla/5.0 (X11; CrOS aarch64 15117.86.0) AppleWebKit/537.36 (KHTML, like Gecko) Chrome/107.0.0.0 Safari/537.36","WebKit","Chrome","107.0.0.0","ChromeOS","","null","null","","<p style=""font-size: 48px;"">+</p>","2","Filler","",""
"","","","","","sentence","27840","html-keyboard-response","104","208932","0.0-6.0-1.17","86","2","2022-11-17 12:26:25","fd252370c17a9971d68c1d4354a03c2e","","Mozilla/5.0 (X11; CrOS aarch64 15117.86.0) AppleWebKit/537.36 (KHTML, like Gecko) Chrome/107.0.0.0 Safari/537.36","WebKit","Chrome","107.0.0.0","ChromeOS","","1476"," ","","A cat is drinking water from a bowl","2","Filler","",""
"","","","","","fixation","27840","html-keyboard-response","105","209444","0.0-6.0-2.17","86","2","2022-11-17 12:26:25","fd252370c17a9971d68c1d4354a03c2e","","Mozilla/5.0 (X11; CrOS aarch64 15117.86.0) AppleWebKit/537.36 (KHTML, like Gecko) Chrome/107.0.0.0 Safari/537.36","WebKit","Chrome","107.0.0.0","ChromeOS","","null","null","","<p style=""font-size: 48px;"">+</p>","2","Filler","",""
"","","","","","picture","27840","image-keyboard-response","106","211621","0.0-6.0-3.17","86","2","2022-11-17 12:26:25","fd252370c17a9971d68c1d4354a03c2e","","Mozilla/5.0 (X11; CrOS aarch64 15117.86.0) AppleWebKit/537.36 (KHTML, like Gecko) Chrome/107.0.0.0 Safari/537.36","WebKit","Chrome","107.0.0.0","ChromeOS","","2161","s","","bowl.jpg","2","Filler","true",""
"","","","","","fixation","27840","html-keyboard-response","107","212635","0.0-6.0-0.18","86","2","2022-11-17 12:26:25","fd252370c17a9971d68c1d4354a03c2e","","Mozilla/5.0 (X11; CrOS aarch64 15117.86.0) AppleWebKit/537.36 (KHTML, like Gecko) Chrome/107.0.0.0 Safari/537.36","WebKit","Chrome","107.0.0.0","ChromeOS","","null","null","","<p style=""font-size: 48px;"">+</p>","2","Filler","",""
"","","","","","sentence","27840","html-keyboard-response","108","213839","0.0-6.0-1.18","86","2","2022-11-17 12:26:25","fd252370c17a9971d68c1d4354a03c2e","","Mozilla/5.0 (X11; CrOS aarch64 15117.86.0) AppleWebKit/537.36 (KHTML, like Gecko) Chrome/107.0.0.0 Safari/537.36","WebKit","Chrome","107.0.0.0","ChromeOS","","1193"," ","","A man is boiling potatoes.","2","Filler","",""
"","","","","","fixation","27840","html-keyboard-response","109","214347","0.0-6.0-2.18","86","2","2022-11-17 12:26:25","fd252370c17a9971d68c1d4354a03c2e","","Mozilla/5.0 (X11; CrOS aarch64 15117.86.0) AppleWebKit/537.36 (KHTML, like Gecko) Chrome/107.0.0.0 Safari/537.36","WebKit","Chrome","107.0.0.0","ChromeOS","","null","null","","<p style=""font-size: 48px;"">+</p>","2","Filler","",""
"","","","","","picture","27840","image-keyboard-response","110","215834","0.0-6.0-3.18","86","2","2022-11-17 12:26:25","fd252370c17a9971d68c1d4354a03c2e","","Mozilla/5.0 (X11; CrOS aarch64 15117.86.0) AppleWebKit/537.36 (KHTML, like Gecko) Chrome/107.0.0.0 Safari/537.36","WebKit","Chrome","107.0.0.0","ChromeOS","","1474","n","","cup.jpg","2","Filler","true",""
"","","","","","fixation","27840","html-keyboard-response","111","216843","0.0-6.0-0.19","86","2","2022-11-17 12:26:25","fd252370c17a9971d68c1d4354a03c2e","","Mozilla/5.0 (X11; CrOS aarch64 15117.86.0) AppleWebKit/537.36 (KHTML, like Gecko) Chrome/107.0.0.0 Safari/537.36","WebKit","Chrome","107.0.0.0","ChromeOS","","null","null","","<p style=""font-size: 48px;"">+</p>","2","Filler","",""
"","","","","","sentence","27840","html-keyboard-response","112","218032","0.0-6.0-1.19","86","2","2022-11-17 12:26:25","fd252370c17a9971d68c1d4354a03c2e","","Mozilla/5.0 (X11; CrOS aarch64 15117.86.0) AppleWebKit/537.36 (KHTML, like Gecko) Chrome/107.0.0.0 Safari/537.36","WebKit","Chrome","107.0.0.0","ChromeOS","","1177"," ","","A police officer is talking on the phone","2","Filler","",""
"","","","","","fixation","27840","html-keyboard-response","113","218548","0.0-6.0-2.19","86","2","2022-11-17 12:26:25","fd252370c17a9971d68c1d4354a03c2e","","Mozilla/5.0 (X11; CrOS aarch64 15117.86.0) AppleWebKit/537.36 (KHTML, like Gecko) Chrome/107.0.0.0 Safari/537.36","WebKit","Chrome","107.0.0.0","ChromeOS","","null","null","","<p style=""font-size: 48px;"">+</p>","2","Filler","",""
"","","","","","picture","27840","image-keyboard-response","114","219911","0.0-6.0-3.19","86","2","2022-11-17 12:26:25","fd252370c17a9971d68c1d4354a03c2e","","Mozilla/5.0 (X11; CrOS aarch64 15117.86.0) AppleWebKit/537.36 (KHTML, like Gecko) Chrome/107.0.0.0 Safari/537.36","WebKit","Chrome","107.0.0.0","ChromeOS","","1346","n","","tissuebox.jpg","2","Filler","true",""
"","","","","","fixation","27840","html-keyboard-response","115","220923","0.0-6.0-0.20","86","2","2022-11-17 12:26:25","fd252370c17a9971d68c1d4354a03c2e","","Mozilla/5.0 (X11; CrOS aarch64 15117.86.0) AppleWebKit/537.36 (KHTML, like Gecko) Chrome/107.0.0.0 Safari/537.36","WebKit","Chrome","107.0.0.0","ChromeOS","","null","null","","<p style=""font-size: 48px;"">+</p>","2","Filler","",""
"","","","","","sentence","27840","html-keyboard-response","116","222237","0.0-6.0-1.20","86","2","2022-11-17 12:26:25","fd252370c17a9971d68c1d4354a03c2e","","Mozilla/5.0 (X11; CrOS aarch64 15117.86.0) AppleWebKit/537.36 (KHTML, like Gecko) Chrome/107.0.0.0 Safari/537.36","WebKit","Chrome","107.0.0.0","ChromeOS","","1302"," ","","A zebra is playing with a horse","2","Filler","",""
"","","","","","fixation","27840","html-keyboard-response","117","222755","0.0-6.0-2.20","86","2","2022-11-17 12:26:25","fd252370c17a9971d68c1d4354a03c2e","","Mozilla/5.0 (X11; CrOS aarch64 15117.86.0) AppleWebKit/537.36 (KHTML, like Gecko) Chrome/107.0.0.0 Safari/537.36","WebKit","Chrome","107.0.0.0","ChromeOS","","null","null","","<p style=""font-size: 48px;"">+</p>","2","Filler","",""
"","","","","","picture","27840","image-keyboard-response","118","224066","0.0-6.0-3.20","86","2","2022-11-17 12:26:25","fd252370c17a9971d68c1d4354a03c2e","","Mozilla/5.0 (X11; CrOS aarch64 15117.86.0) AppleWebKit/537.36 (KHTML, like Gecko) Chrome/107.0.0.0 Safari/537.36","WebKit","Chrome","107.0.0.0","ChromeOS","","1294","n","","watch.jpg","2","Filler","true",""
"","","","","","fixation","27840","html-keyboard-response","119","225084","0.0-6.0-0.21","86","2","2022-11-17 12:26:25","fd252370c17a9971d68c1d4354a03c2e","","Mozilla/5.0 (X11; CrOS aarch64 15117.86.0) AppleWebKit/537.36 (KHTML, like Gecko) Chrome/107.0.0.0 Safari/537.36","WebKit","Chrome","107.0.0.0","ChromeOS","","null","null","","<p style=""font-size: 48px;"">+</p>","2","Filler","",""
"","","","","","sentence","27840","html-keyboard-response","120","226257","0.0-6.0-1.21","86","2","2022-11-17 12:26:25","fd252370c17a9971d68c1d4354a03c2e","","Mozilla/5.0 (X11; CrOS aarch64 15117.86.0) AppleWebKit/537.36 (KHTML, like Gecko) Chrome/107.0.0.0 Safari/537.36","WebKit","Chrome","107.0.0.0","ChromeOS","","1157"," ","","A toothbrush was placed on the sponge","2","Filler","",""
"","","","","","fixation","27840","html-keyboard-response","121","226771","0.0-6.0-2.21","86","2","2022-11-17 12:26:25","fd252370c17a9971d68c1d4354a03c2e","","Mozilla/5.0 (X11; CrOS aarch64 15117.86.0) AppleWebKit/537.36 (KHTML, like Gecko) Chrome/107.0.0.0 Safari/537.36","WebKit","Chrome","107.0.0.0","ChromeOS","","null","null","","<p style=""font-size: 48px;"">+</p>","2","Filler","",""
"","","","","","picture","27840","image-keyboard-response","122","228307","0.0-6.0-3.21","86","2","2022-11-17 12:26:25","fd252370c17a9971d68c1d4354a03c2e","","Mozilla/5.0 (X11; CrOS aarch64 15117.86.0) AppleWebKit/537.36 (KHTML, like Gecko) Chrome/107.0.0.0 Safari/537.36","WebKit","Chrome","107.0.0.0","ChromeOS","","1517","s","","sponge.jpg","2","Filler","true",""
"","","","","","fixation","27840","html-keyboard-response","123","229323","0.0-6.0-0.22","86","2","2022-11-17 12:26:25","fd252370c17a9971d68c1d4354a03c2e","","Mozilla/5.0 (X11; CrOS aarch64 15117.86.0) AppleWebKit/537.36 (KHTML, like Gecko) Chrome/107.0.0.0 Safari/537.36","WebKit","Chrome","107.0.0.0","ChromeOS","","null","null","","<p style=""font-size: 48px;"">+</p>","2","Filler","",""
"","","","","","sentence","27840","html-keyboard-response","124","230721","0.0-6.0-1.22","86","2","2022-11-17 12:26:25","fd252370c17a9971d68c1d4354a03c2e","","Mozilla/5.0 (X11; CrOS aarch64 15117.86.0) AppleWebKit/537.36 (KHTML, like Gecko) Chrome/107.0.0.0 Safari/537.36","WebKit","Chrome","107.0.0.0","ChromeOS","","1384"," ","","A towel was placed on the TV","2","Filler","",""
"","","","","","fixation","27840","html-keyboard-response","125","231235","0.0-6.0-2.22","86","2","2022-11-17 12:26:25","fd252370c17a9971d68c1d4354a03c2e","","Mozilla/5.0 (X11; CrOS aarch64 15117.86.0) AppleWebKit/537.36 (KHTML, like Gecko) Chrome/107.0.0.0 Safari/537.36","WebKit","Chrome","107.0.0.0","ChromeOS","","null","null","","<p style=""font-size: 48px;"">+</p>","2","Filler","",""
"","","","","","picture","27840","image-keyboard-response","126","232593","0.0-6.0-3.22","86","2","2022-11-17 12:26:25","fd252370c17a9971d68c1d4354a03c2e","","Mozilla/5.0 (X11; CrOS aarch64 15117.86.0) AppleWebKit/537.36 (KHTML, like Gecko) Chrome/107.0.0.0 Safari/537.36","WebKit","Chrome","107.0.0.0","ChromeOS","","1342","n","","pencil.jpg","2","Filler","true",""
"","","","","","fixation","27840","html-keyboard-response","127","233604","0.0-6.0-0.23","86","2","2022-11-17 12:26:25","fd252370c17a9971d68c1d4354a03c2e","","Mozilla/5.0 (X11; CrOS aarch64 15117.86.0) AppleWebKit/537.36 (KHTML, like Gecko) Chrome/107.0.0.0 Safari/537.36","WebKit","Chrome","107.0.0.0","ChromeOS","","null","null","","<p style=""font-size: 48px;"">+</p>","2","Filler","",""
"","","","","","sentence","27840","html-keyboard-response","128","234715","0.0-6.0-1.23","86","2","2022-11-17 12:26:25","fd252370c17a9971d68c1d4354a03c2e","","Mozilla/5.0 (X11; CrOS aarch64 15117.86.0) AppleWebKit/537.36 (KHTML, like Gecko) Chrome/107.0.0.0 Safari/537.36","WebKit","Chrome","107.0.0.0","ChromeOS","","1099"," ","","A keyboard was placed on the bed","2","Filler","",""
"","","","","","fixation","27840","html-keyboard-response","129","235227","0.0-6.0-2.23","86","2","2022-11-17 12:26:25","fd252370c17a9971d68c1d4354a03c2e","","Mozilla/5.0 (X11; CrOS aarch64 15117.86.0) AppleWebKit/537.36 (KHTML, like Gecko) Chrome/107.0.0.0 Safari/537.36","WebKit","Chrome","107.0.0.0","ChromeOS","","null","null","","<p style=""font-size: 48px;"">+</p>","2","Filler","",""
"","","","","","picture","27840","image-keyboard-response","130","236489","0.0-6.0-3.23","86","2","2022-11-17 12:26:25","fd252370c17a9971d68c1d4354a03c2e","","Mozilla/5.0 (X11; CrOS aarch64 15117.86.0) AppleWebKit/537.36 (KHTML, like Gecko) Chrome/107.0.0.0 Safari/537.36","WebKit","Chrome","107.0.0.0","ChromeOS","","1243","n","","bottlecap.jpg","2","Filler","true",""
"","","","","","fixation","27840","html-keyboard-response","131","237507","0.0-6.0-0.24","86","2","2022-11-17 12:26:25","fd252370c17a9971d68c1d4354a03c2e","","Mozilla/5.0 (X11; CrOS aarch64 15117.86.0) AppleWebKit/537.36 (KHTML, like Gecko) Chrome/107.0.0.0 Safari/537.36","WebKit","Chrome","107.0.0.0","ChromeOS","","null","null","","<p style=""font-size: 48px;"">+</p>","2","Light_Contradictory","",""
"","","","","","sentence","27840","html-keyboard-response","132","239199","0.0-6.0-1.24","86","2","2022-11-17 12:26:25","fd252370c17a9971d68c1d4354a03c2e","","Mozilla/5.0 (X11; CrOS aarch64 15117.86.0) AppleWebKit/537.36 (KHTML, like Gecko) Chrome/107.0.0.0 Safari/537.36","WebKit","Chrome","107.0.0.0","ChromeOS","","1675"," ","","A balloon dropped and smashed a wineglass","2","Light_Contradictory","",""
"","","","","","fixation","27840","html-keyboard-response","133","239715","0.0-6.0-2.24","86","2","2022-11-17 12:26:25","fd252370c17a9971d68c1d4354a03c2e","","Mozilla/5.0 (X11; CrOS aarch64 15117.86.0) AppleWebKit/537.36 (KHTML, like Gecko) Chrome/107.0.0.0 Safari/537.36","WebKit","Chrome","107.0.0.0","ChromeOS","","null","null","","<p style=""font-size: 48px;"">+</p>","2","Light_Contradictory","",""
"","","","","","picture","27840","image-keyboard-response","134","241027","0.0-6.0-3.24","86","2","2022-11-17 12:26:25","fd252370c17a9971d68c1d4354a03c2e","","Mozilla/5.0 (X11; CrOS aarch64 15117.86.0) AppleWebKit/537.36 (KHTML, like Gecko) Chrome/107.0.0.0 Safari/537.36","WebKit","Chrome","107.0.0.0","ChromeOS","","1287","s","","wineglassS.jpg","2","Light_Contradictory","true",""
"","","","","","fixation","27840","html-keyboard-response","135","242043","0.0-6.0-0.25","86","2","2022-11-17 12:26:25","fd252370c17a9971d68c1d4354a03c2e","","Mozilla/5.0 (X11; CrOS aarch64 15117.86.0) AppleWebKit/537.36 (KHTML, like Gecko) Chrome/107.0.0.0 Safari/537.36","WebKit","Chrome","107.0.0.0","ChromeOS","","null","null","","<p style=""font-size: 48px;"">+</p>","2","Heavy_Matched","",""
"","","","","","sentence","27840","html-keyboard-response","136","244260","0.0-6.0-1.25","86","2","2022-11-17 12:26:25","fd252370c17a9971d68c1d4354a03c2e","","Mozilla/5.0 (X11; CrOS aarch64 15117.86.0) AppleWebKit/537.36 (KHTML, like Gecko) Chrome/107.0.0.0 Safari/537.36","WebKit","Chrome","107.0.0.0","ChromeOS","","2200"," ","","A bowling ball dropped and smashed a blackberry","2","Heavy_Matched","",""
"","","","","","fixation","27840","html-keyboard-response","137","244779","0.0-6.0-2.25","86","2","2022-11-17 12:26:25","fd252370c17a9971d68c1d4354a03c2e","","Mozilla/5.0 (X11; CrOS aarch64 15117.86.0) AppleWebKit/537.36 (KHTML, like Gecko) Chrome/107.0.0.0 Safari/537.36","WebKit","Chrome","107.0.0.0","ChromeOS","","null","null","","<p style=""font-size: 48px;"">+</p>","2","Heavy_Matched","",""
"","","","","","picture","27840","image-keyboard-response","138","246239","0.0-6.0-3.25","86","2","2022-11-17 12:26:25","fd252370c17a9971d68c1d4354a03c2e","","Mozilla/5.0 (X11; CrOS aarch64 15117.86.0) AppleWebKit/537.36 (KHTML, like Gecko) Chrome/107.0.0.0 Safari/537.36","WebKit","Chrome","107.0.0.0","ChromeOS","","1441","s","","blackberryS.jpg","2","Heavy_Matched","true",""
"","","","","","fixation","27840","html-keyboard-response","139","247259","0.0-6.0-0.26","86","2","2022-11-17 12:26:25","fd252370c17a9971d68c1d4354a03c2e","","Mozilla/5.0 (X11; CrOS aarch64 15117.86.0) AppleWebKit/537.36 (KHTML, like Gecko) Chrome/107.0.0.0 Safari/537.36","WebKit","Chrome","107.0.0.0","ChromeOS","","null","null","","<p style=""font-size: 48px;"">+</p>","2","Heavy_Matched","",""
"","","","","","sentence","27840","html-keyboard-response","140","248768","0.0-6.0-1.26","86","2","2022-11-17 12:26:25","fd252370c17a9971d68c1d4354a03c2e","","Mozilla/5.0 (X11; CrOS aarch64 15117.86.0) AppleWebKit/537.36 (KHTML, like Gecko) Chrome/107.0.0.0 Safari/537.36","WebKit","Chrome","107.0.0.0","ChromeOS","","1491"," ","","A bowling ball dropped and smashed an egg flan","2","Heavy_Matched","",""
"","","","","","fixation","27840","html-keyboard-response","141","249279","0.0-6.0-2.26","86","2","2022-11-17 12:26:25","fd252370c17a9971d68c1d4354a03c2e","","Mozilla/5.0 (X11; CrOS aarch64 15117.86.0) AppleWebKit/537.36 (KHTML, like Gecko) Chrome/107.0.0.0 Safari/537.36","WebKit","Chrome","107.0.0.0","ChromeOS","","null","null","","<p style=""font-size: 48px;"">+</p>","2","Heavy_Matched","",""
"","","","","","picture","27840","image-keyboard-response","142","250868","0.0-6.0-3.26","86","2","2022-11-17 12:26:25","fd252370c17a9971d68c1d4354a03c2e","","Mozilla/5.0 (X11; CrOS aarch64 15117.86.0) AppleWebKit/537.36 (KHTML, like Gecko) Chrome/107.0.0.0 Safari/537.36","WebKit","Chrome","107.0.0.0","ChromeOS","","1573","n","","eggflanS.jpg","2","Heavy_Matched","false",""
"","","","","","fixation","27840","html-keyboard-response","143","251891","0.0-6.0-0.27","86","2","2022-11-17 12:26:25","fd252370c17a9971d68c1d4354a03c2e","","Mozilla/5.0 (X11; CrOS aarch64 15117.86.0) AppleWebKit/537.36 (KHTML, like Gecko) Chrome/107.0.0.0 Safari/537.36","WebKit","Chrome","107.0.0.0","ChromeOS","","null","null","","<p style=""font-size: 48px;"">+</p>","2","Filler","",""
"","","","","","sentence","27840","html-keyboard-response","144","252794","0.0-6.0-1.27","86","2","2022-11-17 12:26:25","fd252370c17a9971d68c1d4354a03c2e","","Mozilla/5.0 (X11; CrOS aarch64 15117.86.0) AppleWebKit/537.36 (KHTML, like Gecko) Chrome/107.0.0.0 Safari/537.36","WebKit","Chrome","107.0.0.0","ChromeOS","","883"," ","","A boy is wearing a hat","2","Filler","",""
"","","","","","fixation","27840","html-keyboard-response","145","253315","0.0-6.0-2.27","86","2","2022-11-17 12:26:25","fd252370c17a9971d68c1d4354a03c2e","","Mozilla/5.0 (X11; CrOS aarch64 15117.86.0) AppleWebKit/537.36 (KHTML, like Gecko) Chrome/107.0.0.0 Safari/537.36","WebKit","Chrome","107.0.0.0","ChromeOS","","null","null","","<p style=""font-size: 48px;"">+</p>","2","Filler","",""
"","","","","","picture","27840","image-keyboard-response","146","254720","0.0-6.0-3.27","86","2","2022-11-17 12:26:25","fd252370c17a9971d68c1d4354a03c2e","","Mozilla/5.0 (X11; CrOS aarch64 15117.86.0) AppleWebKit/537.36 (KHTML, like Gecko) Chrome/107.0.0.0 Safari/537.36","WebKit","Chrome","107.0.0.0","ChromeOS","","1383","s","","hat.jpg","2","Filler","true",""
"","","","","","fixation","27840","html-keyboard-response","147","255739","0.0-6.0-0.28","86","2","2022-11-17 12:26:25","fd252370c17a9971d68c1d4354a03c2e","","Mozilla/5.0 (X11; CrOS aarch64 15117.86.0) AppleWebKit/537.36 (KHTML, like Gecko) Chrome/107.0.0.0 Safari/537.36","WebKit","Chrome","107.0.0.0","ChromeOS","","null","null","","<p style=""font-size: 48px;"">+</p>","2","Filler","",""
"","","","","","sentence","27840","html-keyboard-response","148","257188","0.0-6.0-1.28","86","2","2022-11-17 12:26:25","fd252370c17a9971d68c1d4354a03c2e","","Mozilla/5.0 (X11; CrOS aarch64 15117.86.0) AppleWebKit/537.36 (KHTML, like Gecko) Chrome/107.0.0.0 Safari/537.36","WebKit","Chrome","107.0.0.0","ChromeOS","","1430"," ","","A ring was placed on the newspaper","2","Filler","",""
"","","","","","fixation","27840","html-keyboard-response","149","257707","0.0-6.0-2.28","86","2","2022-11-17 12:26:25","fd252370c17a9971d68c1d4354a03c2e","","Mozilla/5.0 (X11; CrOS aarch64 15117.86.0) AppleWebKit/537.36 (KHTML, like Gecko) Chrome/107.0.0.0 Safari/537.36","WebKit","Chrome","107.0.0.0","ChromeOS","","null","null","","<p style=""font-size: 48px;"">+</p>","2","Filler","",""
"","","","","","picture","27840","image-keyboard-response","150","258967","0.0-6.0-3.28","86","2","2022-11-17 12:26:25","fd252370c17a9971d68c1d4354a03c2e","","Mozilla/5.0 (X11; CrOS aarch64 15117.86.0) AppleWebKit/537.36 (KHTML, like Gecko) Chrome/107.0.0.0 Safari/537.36","WebKit","Chrome","107.0.0.0","ChromeOS","","1239","n","","cat.jpg","2","Filler","true",""
"","","","","","fixation","27840","html-keyboard-response","151","259987","0.0-6.0-0.29","86","2","2022-11-17 12:26:25","fd252370c17a9971d68c1d4354a03c2e","","Mozilla/5.0 (X11; CrOS aarch64 15117.86.0) AppleWebKit/537.36 (KHTML, like Gecko) Chrome/107.0.0.0 Safari/537.36","WebKit","Chrome","107.0.0.0","ChromeOS","","null","null","","<p style=""font-size: 48px;"">+</p>","2","Filler","",""
"","","","","","sentence","27840","html-keyboard-response","152","262800","0.0-6.0-1.29","86","2","2022-11-17 12:26:25","fd252370c17a9971d68c1d4354a03c2e","","Mozilla/5.0 (X11; CrOS aarch64 15117.86.0) AppleWebKit/537.36 (KHTML, like Gecko) Chrome/107.0.0.0 Safari/537.36","WebKit","Chrome","107.0.0.0","ChromeOS","","2794"," ","","A thermometer was placed on the box","2","Filler","",""
"","","","","","fixation","27840","html-keyboard-response","153","263315","0.0-6.0-2.29","86","2","2022-11-17 12:26:25","fd252370c17a9971d68c1d4354a03c2e","","Mozilla/5.0 (X11; CrOS aarch64 15117.86.0) AppleWebKit/537.36 (KHTML, like Gecko) Chrome/107.0.0.0 Safari/537.36","WebKit","Chrome","107.0.0.0","ChromeOS","","null","null","","<p style=""font-size: 48px;"">+</p>","2","Filler","",""
"","","","","","picture","27840","image-keyboard-response","154","264749","0.0-6.0-3.29","86","2","2022-11-17 12:26:25","fd252370c17a9971d68c1d4354a03c2e","","Mozilla/5.0 (X11; CrOS aarch64 15117.86.0) AppleWebKit/537.36 (KHTML, like Gecko) Chrome/107.0.0.0 Safari/537.36","WebKit","Chrome","107.0.0.0","ChromeOS","","1415","n","","button.jpg","2","Filler","true",""
"","","","","","fixation","27840","html-keyboard-response","155","265764","0.0-6.0-0.30","86","2","2022-11-17 12:26:25","fd252370c17a9971d68c1d4354a03c2e","","Mozilla/5.0 (X11; CrOS aarch64 15117.86.0) AppleWebKit/537.36 (KHTML, like Gecko) Chrome/107.0.0.0 Safari/537.36","WebKit","Chrome","107.0.0.0","ChromeOS","","null","null","","<p style=""font-size: 48px;"">+</p>","2","Heavy_Contradictory","",""
"","","","","","sentence","27840","html-keyboard-response","156","267382","0.0-6.0-1.30","86","2","2022-11-17 12:26:25","fd252370c17a9971d68c1d4354a03c2e","","Mozilla/5.0 (X11; CrOS aarch64 15117.86.0) AppleWebKit/537.36 (KHTML, like Gecko) Chrome/107.0.0.0 Safari/537.36","WebKit","Chrome","107.0.0.0","ChromeOS","","1601"," ","","A bowling ball dropped and touched a rice cake","2","Heavy_Contradictory","",""
"","","","","","fixation","27840","html-keyboard-response","157","267907","0.0-6.0-2.30","86","2","2022-11-17 12:26:25","fd252370c17a9971d68c1d4354a03c2e","","Mozilla/5.0 (X11; CrOS aarch64 15117.86.0) AppleWebKit/537.36 (KHTML, like Gecko) Chrome/107.0.0.0 Safari/537.36","WebKit","Chrome","107.0.0.0","ChromeOS","","null","null","","<p style=""font-size: 48px;"">+</p>","2","Heavy_Contradictory","",""
"","","","","","picture","27840","image-keyboard-response","158","268991","0.0-6.0-3.30","86","2","2022-11-17 12:26:25","fd252370c17a9971d68c1d4354a03c2e","","Mozilla/5.0 (X11; CrOS aarch64 15117.86.0) AppleWebKit/537.36 (KHTML, like Gecko) Chrome/107.0.0.0 Safari/537.36","WebKit","Chrome","107.0.0.0","ChromeOS","","1065","s","","tortitaS.jpg","2","Heavy_Contradictory","true",""
"","","","","","fixation","27840","html-keyboard-response","159","270011","0.0-6.0-0.31","86","2","2022-11-17 12:26:25","fd252370c17a9971d68c1d4354a03c2e","","Mozilla/5.0 (X11; CrOS aarch64 15117.86.0) AppleWebKit/537.36 (KHTML, like Gecko) Chrome/107.0.0.0 Safari/537.36","WebKit","Chrome","107.0.0.0","ChromeOS","","null","null","","<p style=""font-size: 48px;"">+</p>","2","Filler","",""
"","","","","","sentence","27840","html-keyboard-response","160","271391","0.0-6.0-1.31","86","2","2022-11-17 12:26:25","fd252370c17a9971d68c1d4354a03c2e","","Mozilla/5.0 (X11; CrOS aarch64 15117.86.0) AppleWebKit/537.36 (KHTML, like Gecko) Chrome/107.0.0.0 Safari/537.36","WebKit","Chrome","107.0.0.0","ChromeOS","","1360"," ","","An old man is hammering a nail","2","Filler","",""
"","","","","","fixation","27840","html-keyboard-response","161","271916","0.0-6.0-2.31","86","2","2022-11-17 12:26:25","fd252370c17a9971d68c1d4354a03c2e","","Mozilla/5.0 (X11; CrOS aarch64 15117.86.0) AppleWebKit/537.36 (KHTML, like Gecko) Chrome/107.0.0.0 Safari/537.36","WebKit","Chrome","107.0.0.0","ChromeOS","","null","null","","<p style=""font-size: 48px;"">+</p>","2","Filler","",""
"","","","","","picture","27840","image-keyboard-response","162","273357","0.0-6.0-3.31","86","2","2022-11-17 12:26:25","fd252370c17a9971d68c1d4354a03c2e","","Mozilla/5.0 (X11; CrOS aarch64 15117.86.0) AppleWebKit/537.36 (KHTML, like Gecko) Chrome/107.0.0.0 Safari/537.36","WebKit","Chrome","107.0.0.0","ChromeOS","","1419","s","","nail.jpg","2","Filler","true",""
"","","","","","fixation","27840","html-keyboard-response","163","274372","0.0-6.0-0.32","86","2","2022-11-17 12:26:25","fd252370c17a9971d68c1d4354a03c2e","","Mozilla/5.0 (X11; CrOS aarch64 15117.86.0) AppleWebKit/537.36 (KHTML, like Gecko) Chrome/107.0.0.0 Safari/537.36","WebKit","Chrome","107.0.0.0","ChromeOS","","null","null","","<p style=""font-size: 48px;"">+</p>","2","Filler","",""
"","","","","","sentence","27840","html-keyboard-response","164","275610","0.0-6.0-1.32","86","2","2022-11-17 12:26:25","fd252370c17a9971d68c1d4354a03c2e","","Mozilla/5.0 (X11; CrOS aarch64 15117.86.0) AppleWebKit/537.36 (KHTML, like Gecko) Chrome/107.0.0.0 Safari/537.36","WebKit","Chrome","107.0.0.0","ChromeOS","","1220"," ","","An actress is taking a microphone","2","Filler","",""
"","","","","","fixation","27840","html-keyboard-response","165","276123","0.0-6.0-2.32","86","2","2022-11-17 12:26:25","fd252370c17a9971d68c1d4354a03c2e","","Mozilla/5.0 (X11; CrOS aarch64 15117.86.0) AppleWebKit/537.36 (KHTML, like Gecko) Chrome/107.0.0.0 Safari/537.36","WebKit","Chrome","107.0.0.0","ChromeOS","","null","null","","<p style=""font-size: 48px;"">+</p>","2","Filler","",""
"","","","","","picture","27840","image-keyboard-response","166","277422","0.0-6.0-3.32","86","2","2022-11-17 12:26:25","fd252370c17a9971d68c1d4354a03c2e","","Mozilla/5.0 (X11; CrOS aarch64 15117.86.0) AppleWebKit/537.36 (KHTML, like Gecko) Chrome/107.0.0.0 Safari/537.36","WebKit","Chrome","107.0.0.0","ChromeOS","","1280","n","","pants.jpg","2","Filler","true",""
"","","","","","fixation","27840","html-keyboard-response","167","278435","0.0-6.0-0.33","86","2","2022-11-17 12:26:25","fd252370c17a9971d68c1d4354a03c2e","","Mozilla/5.0 (X11; CrOS aarch64 15117.86.0) AppleWebKit/537.36 (KHTML, like Gecko) Chrome/107.0.0.0 Safari/537.36","WebKit","Chrome","107.0.0.0","ChromeOS","","null","null","","<p style=""font-size: 48px;"">+</p>","2","Heavy_Matched","",""
"","","","","","sentence","27840","html-keyboard-response","168","279921","0.0-6.0-1.33","86","2","2022-11-17 12:26:25","fd252370c17a9971d68c1d4354a03c2e","","Mozilla/5.0 (X11; CrOS aarch64 15117.86.0) AppleWebKit/537.36 (KHTML, like Gecko) Chrome/107.0.0.0 Safari/537.36","WebKit","Chrome","107.0.0.0","ChromeOS","","1471"," ","","A bowling ball dropped and smashed an iPAD","2","Heavy_Matched","",""
"","","","","","fixation","27840","html-keyboard-response","169","280443","0.0-6.0-2.33","86","2","2022-11-17 12:26:25","fd252370c17a9971d68c1d4354a03c2e","","Mozilla/5.0 (X11; CrOS aarch64 15117.86.0) AppleWebKit/537.36 (KHTML, like Gecko) Chrome/107.0.0.0 Safari/537.36","WebKit","Chrome","107.0.0.0","ChromeOS","","null","null","","<p style=""font-size: 48px;"">+</p>","2","Heavy_Matched","",""
"","","","","","picture","27840","image-keyboard-response","170","282112","0.0-6.0-3.33","86","2","2022-11-17 12:26:25","fd252370c17a9971d68c1d4354a03c2e","","Mozilla/5.0 (X11; CrOS aarch64 15117.86.0) AppleWebKit/537.36 (KHTML, like Gecko) Chrome/107.0.0.0 Safari/537.36","WebKit","Chrome","107.0.0.0","ChromeOS","","1649","s","","iPadS.jpg","2","Heavy_Matched","true",""
"","","","","","fixation","27840","html-keyboard-response","171","283123","0.0-6.0-0.34","86","2","2022-11-17 12:26:25","fd252370c17a9971d68c1d4354a03c2e","","Mozilla/5.0 (X11; CrOS aarch64 15117.86.0) AppleWebKit/537.36 (KHTML, like Gecko) Chrome/107.0.0.0 Safari/537.36","WebKit","Chrome","107.0.0.0","ChromeOS","","null","null","","<p style=""font-size: 48px;"">+</p>","2","Light_Contradictory","",""
"","","","","","sentence","27840","html-keyboard-response","172","284612","0.0-6.0-1.34","86","2","2022-11-17 12:26:25","fd252370c17a9971d68c1d4354a03c2e","","Mozilla/5.0 (X11; CrOS aarch64 15117.86.0) AppleWebKit/537.36 (KHTML, like Gecko) Chrome/107.0.0.0 Safari/537.36","WebKit","Chrome","107.0.0.0","ChromeOS","","1469"," ","","A balloon dropped and smashed a TV","2","Light_Contradictory","",""
"","","","","","fixation","27840","html-keyboard-response","173","285139","0.0-6.0-2.34","86","2","2022-11-17 12:26:25","fd252370c17a9971d68c1d4354a03c2e","","Mozilla/5.0 (X11; CrOS aarch64 15117.86.0) AppleWebKit/537.36 (KHTML, like Gecko) Chrome/107.0.0.0 Safari/537.36","WebKit","Chrome","107.0.0.0","ChromeOS","","null","null","","<p style=""font-size: 48px;"">+</p>","2","Light_Contradictory","",""
"","","","","","picture","27840","image-keyboard-response","174","286039","0.0-6.0-3.34","86","2","2022-11-17 12:26:25","fd252370c17a9971d68c1d4354a03c2e","","Mozilla/5.0 (X11; CrOS aarch64 15117.86.0) AppleWebKit/537.36 (KHTML, like Gecko) Chrome/107.0.0.0 Safari/537.36","WebKit","Chrome","107.0.0.0","ChromeOS","","881","s","","tvS.jpg","2","Light_Contradictory","true",""
"","","","","","fixation","27840","html-keyboard-response","175","287052","0.0-6.0-0.35","86","2","2022-11-17 12:26:25","fd252370c17a9971d68c1d4354a03c2e","","Mozilla/5.0 (X11; CrOS aarch64 15117.86.0) AppleWebKit/537.36 (KHTML, like Gecko) Chrome/107.0.0.0 Safari/537.36","WebKit","Chrome","107.0.0.0","ChromeOS","","null","null","","<p style=""font-size: 48px;"">+</p>","2","Filler","",""
"","","","","","sentence","27840","html-keyboard-response","176","288129","0.0-6.0-1.35","86","2","2022-11-17 12:26:25","fd252370c17a9971d68c1d4354a03c2e","","Mozilla/5.0 (X11; CrOS aarch64 15117.86.0) AppleWebKit/537.36 (KHTML, like Gecko) Chrome/107.0.0.0 Safari/537.36","WebKit","Chrome","107.0.0.0","ChromeOS","","1058"," ","","A mouse is eating cheese","2","Filler","",""
"","","","","","fixation","27840","html-keyboard-response","177","288651","0.0-6.0-2.35","86","2","2022-11-17 12:26:25","fd252370c17a9971d68c1d4354a03c2e","","Mozilla/5.0 (X11; CrOS aarch64 15117.86.0) AppleWebKit/537.36 (KHTML, like Gecko) Chrome/107.0.0.0 Safari/537.36","WebKit","Chrome","107.0.0.0","ChromeOS","","null","null","","<p style=""font-size: 48px;"">+</p>","2","Filler","",""
"","","","","","picture","27840","image-keyboard-response","178","289803","0.0-6.0-3.35","86","2","2022-11-17 12:26:25","fd252370c17a9971d68c1d4354a03c2e","","Mozilla/5.0 (X11; CrOS aarch64 15117.86.0) AppleWebKit/537.36 (KHTML, like Gecko) Chrome/107.0.0.0 Safari/537.36","WebKit","Chrome","107.0.0.0","ChromeOS","","1129","n","","ring.jpg","2","Filler","true",""
"","","","","","fixation","27840","html-keyboard-response","179","290820","0.0-6.0-0.36","86","2","2022-11-17 12:26:25","fd252370c17a9971d68c1d4354a03c2e","","Mozilla/5.0 (X11; CrOS aarch64 15117.86.0) AppleWebKit/537.36 (KHTML, like Gecko) Chrome/107.0.0.0 Safari/537.36","WebKit","Chrome","107.0.0.0","ChromeOS","","null","null","","<p style=""font-size: 48px;"">+</p>","2","Filler","",""
"","","","","","sentence","27840","html-keyboard-response","180","291988","0.0-6.0-1.36","86","2","2022-11-17 12:26:25","fd252370c17a9971d68c1d4354a03c2e","","Mozilla/5.0 (X11; CrOS aarch64 15117.86.0) AppleWebKit/537.36 (KHTML, like Gecko) Chrome/107.0.0.0 Safari/537.36","WebKit","Chrome","107.0.0.0","ChromeOS","","1148"," ","","A president is writing in the notebook","2","Filler","",""
"","","","","","fixation","27840","html-keyboard-response","181","292499","0.0-6.0-2.36","86","2","2022-11-17 12:26:25","fd252370c17a9971d68c1d4354a03c2e","","Mozilla/5.0 (X11; CrOS aarch64 15117.86.0) AppleWebKit/537.36 (KHTML, like Gecko) Chrome/107.0.0.0 Safari/537.36","WebKit","Chrome","107.0.0.0","ChromeOS","","null","null","","<p style=""font-size: 48px;"">+</p>","2","Filler","",""
"","","","","","picture","27840","image-keyboard-response","182","293934","0.0-6.0-3.36","86","2","2022-11-17 12:26:25","fd252370c17a9971d68c1d4354a03c2e","","Mozilla/5.0 (X11; CrOS aarch64 15117.86.0) AppleWebKit/537.36 (KHTML, like Gecko) Chrome/107.0.0.0 Safari/537.36","WebKit","Chrome","107.0.0.0","ChromeOS","","1412","n","","can.jpg","2","Filler","true",""
"","","","","","fixation","27840","html-keyboard-response","183","294955","0.0-6.0-0.37","86","2","2022-11-17 12:26:25","fd252370c17a9971d68c1d4354a03c2e","","Mozilla/5.0 (X11; CrOS aarch64 15117.86.0) AppleWebKit/537.36 (KHTML, like Gecko) Chrome/107.0.0.0 Safari/537.36","WebKit","Chrome","107.0.0.0","ChromeOS","","null","null","","<p style=""font-size: 48px;"">+</p>","2","Filler","",""
"","","","","","sentence","27840","html-keyboard-response","184","295958","0.0-6.0-1.37","86","2","2022-11-17 12:26:25","fd252370c17a9971d68c1d4354a03c2e","","Mozilla/5.0 (X11; CrOS aarch64 15117.86.0) AppleWebKit/537.36 (KHTML, like Gecko) Chrome/107.0.0.0 Safari/537.36","WebKit","Chrome","107.0.0.0","ChromeOS","","987"," ","","An owl is sitting on the branch","2","Filler","",""
"","","","","","fixation","27840","html-keyboard-response","185","296484","0.0-6.0-2.37","86","2","2022-11-17 12:26:25","fd252370c17a9971d68c1d4354a03c2e","","Mozilla/5.0 (X11; CrOS aarch64 15117.86.0) AppleWebKit/537.36 (KHTML, like Gecko) Chrome/107.0.0.0 Safari/537.36","WebKit","Chrome","107.0.0.0","ChromeOS","","null","null","","<p style=""font-size: 48px;"">+</p>","2","Filler","",""
"","","","","","picture","27840","image-keyboard-response","186","298223","0.0-6.0-3.37","86","2","2022-11-17 12:26:25","fd252370c17a9971d68c1d4354a03c2e","","Mozilla/5.0 (X11; CrOS aarch64 15117.86.0) AppleWebKit/537.36 (KHTML, like Gecko) Chrome/107.0.0.0 Safari/537.36","WebKit","Chrome","107.0.0.0","ChromeOS","","1720","n","","rubberduck.jpg","2","Filler","true",""
"","","","","","fixation","27840","html-keyboard-response","187","299235","0.0-6.0-0.38","86","2","2022-11-17 12:26:25","fd252370c17a9971d68c1d4354a03c2e","","Mozilla/5.0 (X11; CrOS aarch64 15117.86.0) AppleWebKit/537.36 (KHTML, like Gecko) Chrome/107.0.0.0 Safari/537.36","WebKit","Chrome","107.0.0.0","ChromeOS","","null","null","","<p style=""font-size: 48px;"">+</p>","2","Filler","",""
"","","","","","sentence","27840","html-keyboard-response","188","300251","0.0-6.0-1.38","86","2","2022-11-17 12:26:25","fd252370c17a9971d68c1d4354a03c2e","","Mozilla/5.0 (X11; CrOS aarch64 15117.86.0) AppleWebKit/537.36 (KHTML, like Gecko) Chrome/107.0.0.0 Safari/537.36","WebKit","Chrome","107.0.0.0","ChromeOS","","997"," ","","A doctor is taking a stethoscope","2","Filler","",""
"","","","","","fixation","27840","html-keyboard-response","189","300771","0.0-6.0-2.38","86","2","2022-11-17 12:26:25","fd252370c17a9971d68c1d4354a03c2e","","Mozilla/5.0 (X11; CrOS aarch64 15117.86.0) AppleWebKit/537.36 (KHTML, like Gecko) Chrome/107.0.0.0 Safari/537.36","WebKit","Chrome","107.0.0.0","ChromeOS","","null","null","","<p style=""font-size: 48px;"">+</p>","2","Filler","",""
"","","","","","picture","27840","image-keyboard-response","190","302655","0.0-6.0-3.38","86","2","2022-11-17 12:26:25","fd252370c17a9971d68c1d4354a03c2e","","Mozilla/5.0 (X11; CrOS aarch64 15117.86.0) AppleWebKit/537.36 (KHTML, like Gecko) Chrome/107.0.0.0 Safari/537.36","WebKit","Chrome","107.0.0.0","ChromeOS","","1865","n","","matchesbox.jpg","2","Filler","true",""
"","","","","","fixation","27840","html-keyboard-response","191","303675","0.0-6.0-0.39","86","2","2022-11-17 12:26:25","fd252370c17a9971d68c1d4354a03c2e","","Mozilla/5.0 (X11; CrOS aarch64 15117.86.0) AppleWebKit/537.36 (KHTML, like Gecko) Chrome/107.0.0.0 Safari/537.36","WebKit","Chrome","107.0.0.0","ChromeOS","","null","null","","<p style=""font-size: 48px;"">+</p>","2","Filler","",""
"","","","","","sentence","27840","html-keyboard-response","192","304849","0.0-6.0-1.39","86","2","2022-11-17 12:26:25","fd252370c17a9971d68c1d4354a03c2e","","Mozilla/5.0 (X11; CrOS aarch64 15117.86.0) AppleWebKit/537.36 (KHTML, like Gecko) Chrome/107.0.0.0 Safari/537.36","WebKit","Chrome","107.0.0.0","ChromeOS","","1133"," ","","A pilot is reading a book","2","Filler","",""
"","","","","","fixation","27840","html-keyboard-response","193","305379","0.0-6.0-2.39","86","2","2022-11-17 12:26:25","fd252370c17a9971d68c1d4354a03c2e","","Mozilla/5.0 (X11; CrOS aarch64 15117.86.0) AppleWebKit/537.36 (KHTML, like Gecko) Chrome/107.0.0.0 Safari/537.36","WebKit","Chrome","107.0.0.0","ChromeOS","","null","null","","<p style=""font-size: 48px;"">+</p>","2","Filler","",""
"","","","","","picture","27840","image-keyboard-response","194","306471","0.0-6.0-3.39","86","2","2022-11-17 12:26:25","fd252370c17a9971d68c1d4354a03c2e","","Mozilla/5.0 (X11; CrOS aarch64 15117.86.0) AppleWebKit/537.36 (KHTML, like Gecko) Chrome/107.0.0.0 Safari/537.36","WebKit","Chrome","107.0.0.0","ChromeOS","","1070","n","","spoon.jpg","2","Filler","true",""
"","","","","","fixation","27840","html-keyboard-response","195","307499","0.0-6.0-0.40","86","2","2022-11-17 12:26:25","fd252370c17a9971d68c1d4354a03c2e","","Mozilla/5.0 (X11; CrOS aarch64 15117.86.0) AppleWebKit/537.36 (KHTML, like Gecko) Chrome/107.0.0.0 Safari/537.36","WebKit","Chrome","107.0.0.0","ChromeOS","","null","null","","<p style=""font-size: 48px;"">+</p>","2","Light_Matched","",""
"","","","","","sentence","27840","html-keyboard-response","196","308626","0.0-6.0-1.40","86","2","2022-11-17 12:26:25","fd252370c17a9971d68c1d4354a03c2e","","Mozilla/5.0 (X11; CrOS aarch64 15117.86.0) AppleWebKit/537.36 (KHTML, like Gecko) Chrome/107.0.0.0 Safari/537.36","WebKit","Chrome","107.0.0.0","ChromeOS","","1106"," ","","A balloon dropped and touched a vase","2","Light_Matched","",""
"","","","","","fixation","27840","html-keyboard-response","197","309155","0.0-6.0-2.40","86","2","2022-11-17 12:26:25","fd252370c17a9971d68c1d4354a03c2e","","Mozilla/5.0 (X11; CrOS aarch64 15117.86.0) AppleWebKit/537.36 (KHTML, like Gecko) Chrome/107.0.0.0 Safari/537.36","WebKit","Chrome","107.0.0.0","ChromeOS","","null","null","","<p style=""font-size: 48px;"">+</p>","2","Light_Matched","",""
"","","","","","picture","27840","image-keyboard-response","198","312170","0.0-6.0-3.40","86","2","2022-11-17 12:26:25","fd252370c17a9971d68c1d4354a03c2e","","Mozilla/5.0 (X11; CrOS aarch64 15117.86.0) AppleWebKit/537.36 (KHTML, like Gecko) Chrome/107.0.0.0 Safari/537.36","WebKit","Chrome","107.0.0.0","ChromeOS","","2988","s","","vaseS.jpg","2","Light_Matched","true",""
"","","","","","fixation","27840","html-keyboard-response","199","313196","0.0-6.0-0.41","86","2","2022-11-17 12:26:25","fd252370c17a9971d68c1d4354a03c2e","","Mozilla/5.0 (X11; CrOS aarch64 15117.86.0) AppleWebKit/537.36 (KHTML, like Gecko) Chrome/107.0.0.0 Safari/537.36","WebKit","Chrome","107.0.0.0","ChromeOS","","null","null","","<p style=""font-size: 48px;"">+</p>","2","Light_Contradictory","",""
"","","","","","sentence","27840","html-keyboard-response","200","314466","0.0-6.0-1.41","86","2","2022-11-17 12:26:25","fd252370c17a9971d68c1d4354a03c2e","","Mozilla/5.0 (X11; CrOS aarch64 15117.86.0) AppleWebKit/537.36 (KHTML, like Gecko) Chrome/107.0.0.0 Safari/537.36","WebKit","Chrome","107.0.0.0","ChromeOS","","1246"," ","","A balloon dropped and smashed an egg","2","Light_Contradictory","",""
"","","","","","fixation","27840","html-keyboard-response","201","314987","0.0-6.0-2.41","86","2","2022-11-17 12:26:25","fd252370c17a9971d68c1d4354a03c2e","","Mozilla/5.0 (X11; CrOS aarch64 15117.86.0) AppleWebKit/537.36 (KHTML, like Gecko) Chrome/107.0.0.0 Safari/537.36","WebKit","Chrome","107.0.0.0","ChromeOS","","null","null","","<p style=""font-size: 48px;"">+</p>","2","Light_Contradictory","",""
"","","","","","picture","27840","image-keyboard-response","202","316250","0.0-6.0-3.41","86","2","2022-11-17 12:26:25","fd252370c17a9971d68c1d4354a03c2e","","Mozilla/5.0 (X11; CrOS aarch64 15117.86.0) AppleWebKit/537.36 (KHTML, like Gecko) Chrome/107.0.0.0 Safari/537.36","WebKit","Chrome","107.0.0.0","ChromeOS","","1242","s","","eggS.jpg","2","Light_Contradictory","true",""
"","","","","","fixation","27840","html-keyboard-response","203","317275","0.0-6.0-0.42","86","2","2022-11-17 12:26:25","fd252370c17a9971d68c1d4354a03c2e","","Mozilla/5.0 (X11; CrOS aarch64 15117.86.0) AppleWebKit/537.36 (KHTML, like Gecko) Chrome/107.0.0.0 Safari/537.36","WebKit","Chrome","107.0.0.0","ChromeOS","","null","null","","<p style=""font-size: 48px;"">+</p>","2","Filler","",""
"","","","","","sentence","27840","html-keyboard-response","204","318624","0.0-6.0-1.42","86","2","2022-11-17 12:26:25","fd252370c17a9971d68c1d4354a03c2e","","Mozilla/5.0 (X11; CrOS aarch64 15117.86.0) AppleWebKit/537.36 (KHTML, like Gecko) Chrome/107.0.0.0 Safari/537.36","WebKit","Chrome","107.0.0.0","ChromeOS","","1324"," ","","A photographer is taking a photo of a lion","2","Filler","",""
"","","","","","fixation","27840","html-keyboard-response","205","319155","0.0-6.0-2.42","86","2","2022-11-17 12:26:25","fd252370c17a9971d68c1d4354a03c2e","","Mozilla/5.0 (X11; CrOS aarch64 15117.86.0) AppleWebKit/537.36 (KHTML, like Gecko) Chrome/107.0.0.0 Safari/537.36","WebKit","Chrome","107.0.0.0","ChromeOS","","null","null","","<p style=""font-size: 48px;"">+</p>","2","Filler","",""
"","","","","","picture","27840","image-keyboard-response","206","320312","0.0-6.0-3.42","86","2","2022-11-17 12:26:25","fd252370c17a9971d68c1d4354a03c2e","","Mozilla/5.0 (X11; CrOS aarch64 15117.86.0) AppleWebKit/537.36 (KHTML, like Gecko) Chrome/107.0.0.0 Safari/537.36","WebKit","Chrome","107.0.0.0","ChromeOS","","1132","s","","lion.jpg","2","Filler","true",""
"","","","","","fixation","27840","html-keyboard-response","207","321339","0.0-6.0-0.43","86","2","2022-11-17 12:26:25","fd252370c17a9971d68c1d4354a03c2e","","Mozilla/5.0 (X11; CrOS aarch64 15117.86.0) AppleWebKit/537.36 (KHTML, like Gecko) Chrome/107.0.0.0 Safari/537.36","WebKit","Chrome","107.0.0.0","ChromeOS","","null","null","","<p style=""font-size: 48px;"">+</p>","2","Filler","",""
"","","","","","sentence","27840","html-keyboard-response","208","322560","0.0-6.0-1.43","86","2","2022-11-17 12:26:25","fd252370c17a9971d68c1d4354a03c2e","","Mozilla/5.0 (X11; CrOS aarch64 15117.86.0) AppleWebKit/537.36 (KHTML, like Gecko) Chrome/107.0.0.0 Safari/537.36","WebKit","Chrome","107.0.0.0","ChromeOS","","1198"," ","","An astronaut is putting on a space suit","2","Filler","",""
"","","","","","fixation","27840","html-keyboard-response","209","323091","0.0-6.0-2.43","86","2","2022-11-17 12:26:25","fd252370c17a9971d68c1d4354a03c2e","","Mozilla/5.0 (X11; CrOS aarch64 15117.86.0) AppleWebKit/537.36 (KHTML, like Gecko) Chrome/107.0.0.0 Safari/537.36","WebKit","Chrome","107.0.0.0","ChromeOS","","null","null","","<p style=""font-size: 48px;"">+</p>","2","Filler","",""
"","","","","","picture","27840","image-keyboard-response","210","324004","0.0-6.0-3.43","86","2","2022-11-17 12:26:25","fd252370c17a9971d68c1d4354a03c2e","","Mozilla/5.0 (X11; CrOS aarch64 15117.86.0) AppleWebKit/537.36 (KHTML, like Gecko) Chrome/107.0.0.0 Safari/537.36","WebKit","Chrome","107.0.0.0","ChromeOS","","887","s","","spacesuit.jpg","2","Filler","true",""
"","","","","","fixation","27840","html-keyboard-response","211","325035","0.0-6.0-0.44","86","2","2022-11-17 12:26:25","fd252370c17a9971d68c1d4354a03c2e","","Mozilla/5.0 (X11; CrOS aarch64 15117.86.0) AppleWebKit/537.36 (KHTML, like Gecko) Chrome/107.0.0.0 Safari/537.36","WebKit","Chrome","107.0.0.0","ChromeOS","","null","null","","<p style=""font-size: 48px;"">+</p>","2","Filler","",""
"","","","","","sentence","27840","html-keyboard-response","212","326023","0.0-6.0-1.44","86","2","2022-11-17 12:26:25","fd252370c17a9971d68c1d4354a03c2e","","Mozilla/5.0 (X11; CrOS aarch64 15117.86.0) AppleWebKit/537.36 (KHTML, like Gecko) Chrome/107.0.0.0 Safari/537.36","WebKit","Chrome","107.0.0.0","ChromeOS","","969"," ","","A student is writing on a board","2","Filler","",""
"","","","","","fixation","27840","html-keyboard-response","213","326547","0.0-6.0-2.44","86","2","2022-11-17 12:26:25","fd252370c17a9971d68c1d4354a03c2e","","Mozilla/5.0 (X11; CrOS aarch64 15117.86.0) AppleWebKit/537.36 (KHTML, like Gecko) Chrome/107.0.0.0 Safari/537.36","WebKit","Chrome","107.0.0.0","ChromeOS","","null","null","","<p style=""font-size: 48px;"">+</p>","2","Filler","",""
"","","","","","picture","27840","image-keyboard-response","214","328191","0.0-6.0-3.44","86","2","2022-11-17 12:26:25","fd252370c17a9971d68c1d4354a03c2e","","Mozilla/5.0 (X11; CrOS aarch64 15117.86.0) AppleWebKit/537.36 (KHTML, like Gecko) Chrome/107.0.0.0 Safari/537.36","WebKit","Chrome","107.0.0.0","ChromeOS","","1611","n","","owl.jpg","2","Filler","true",""
"","","","","","fixation","27840","html-keyboard-response","215","329228","0.0-6.0-0.45","86","2","2022-11-17 12:26:25","fd252370c17a9971d68c1d4354a03c2e","","Mozilla/5.0 (X11; CrOS aarch64 15117.86.0) AppleWebKit/537.36 (KHTML, like Gecko) Chrome/107.0.0.0 Safari/537.36","WebKit","Chrome","107.0.0.0","ChromeOS","","null","null","","<p style=""font-size: 48px;"">+</p>","2","Heavy_Matched","",""
"","","","","","sentence","27840","html-keyboard-response","216","330967","0.0-6.0-1.45","86","2","2022-11-17 12:26:25","fd252370c17a9971d68c1d4354a03c2e","","Mozilla/5.0 (X11; CrOS aarch64 15117.86.0) AppleWebKit/537.36 (KHTML, like Gecko) Chrome/107.0.0.0 Safari/537.36","WebKit","Chrome","107.0.0.0","ChromeOS","","1713"," ","","A bowling ball dropped and smashed a banana","2","Heavy_Matched","",""
"","","","","","fixation","27840","html-keyboard-response","217","331500","0.0-6.0-2.45","86","2","2022-11-17 12:26:25","fd252370c17a9971d68c1d4354a03c2e","","Mozilla/5.0 (X11; CrOS aarch64 15117.86.0) AppleWebKit/537.36 (KHTML, like Gecko) Chrome/107.0.0.0 Safari/537.36","WebKit","Chrome","107.0.0.0","ChromeOS","","null","null","","<p style=""font-size: 48px;"">+</p>","2","Heavy_Matched","",""
"","","","","","picture","27840","image-keyboard-response","218","332772","0.0-6.0-3.45","86","2","2022-11-17 12:26:25","fd252370c17a9971d68c1d4354a03c2e","","Mozilla/5.0 (X11; CrOS aarch64 15117.86.0) AppleWebKit/537.36 (KHTML, like Gecko) Chrome/107.0.0.0 Safari/537.36","WebKit","Chrome","107.0.0.0","ChromeOS","","1248","s","","bananaS.jpg","2","Heavy_Matched","true",""
"","","","","","fixation","27840","html-keyboard-response","219","333803","0.0-6.0-0.46","86","2","2022-11-17 12:26:25","fd252370c17a9971d68c1d4354a03c2e","","Mozilla/5.0 (X11; CrOS aarch64 15117.86.0) AppleWebKit/537.36 (KHTML, like Gecko) Chrome/107.0.0.0 Safari/537.36","WebKit","Chrome","107.0.0.0","ChromeOS","","null","null","","<p style=""font-size: 48px;"">+</p>","2","Filler","",""
"","","","","","sentence","27840","html-keyboard-response","220","334834","0.0-6.0-1.46","86","2","2022-11-17 12:26:25","fd252370c17a9971d68c1d4354a03c2e","","Mozilla/5.0 (X11; CrOS aarch64 15117.86.0) AppleWebKit/537.36 (KHTML, like Gecko) Chrome/107.0.0.0 Safari/537.36","WebKit","Chrome","107.0.0.0","ChromeOS","","1005"," ","","A kitten is playing in the sandbox","2","Filler","",""
"","","","","","fixation","27840","html-keyboard-response","221","335363","0.0-6.0-2.46","86","2","2022-11-17 12:26:25","fd252370c17a9971d68c1d4354a03c2e","","Mozilla/5.0 (X11; CrOS aarch64 15117.86.0) AppleWebKit/537.36 (KHTML, like Gecko) Chrome/107.0.0.0 Safari/537.36","WebKit","Chrome","107.0.0.0","ChromeOS","","null","null","","<p style=""font-size: 48px;"">+</p>","2","Filler","",""
"","","","","","picture","27840","image-keyboard-response","222","337045","0.0-6.0-3.46","86","2","2022-11-17 12:26:25","fd252370c17a9971d68c1d4354a03c2e","","Mozilla/5.0 (X11; CrOS aarch64 15117.86.0) AppleWebKit/537.36 (KHTML, like Gecko) Chrome/107.0.0.0 Safari/537.36","WebKit","Chrome","107.0.0.0","ChromeOS","","1659","n","","dustbin.jpg","2","Filler","true",""
"","","","","","fixation","27840","html-keyboard-response","223","338075","0.0-6.0-0.47","86","2","2022-11-17 12:26:25","fd252370c17a9971d68c1d4354a03c2e","","Mozilla/5.0 (X11; CrOS aarch64 15117.86.0) AppleWebKit/537.36 (KHTML, like Gecko) Chrome/107.0.0.0 Safari/537.36","WebKit","Chrome","107.0.0.0","ChromeOS","","null","null","","<p style=""font-size: 48px;"">+</p>","2","Heavy_Contradictory","",""
"","","","","","sentence","27840","html-keyboard-response","224","340145","0.0-6.0-1.47","86","2","2022-11-17 12:26:25","fd252370c17a9971d68c1d4354a03c2e","","Mozilla/5.0 (X11; CrOS aarch64 15117.86.0) AppleWebKit/537.36 (KHTML, like Gecko) Chrome/107.0.0.0 Safari/537.36","WebKit","Chrome","107.0.0.0","ChromeOS","","2047"," ","","A bowling ball dropped and touched a light bulb","2","Heavy_Contradictory","",""
"","","","","","fixation","27840","html-keyboard-response","225","340667","0.0-6.0-2.47","86","2","2022-11-17 12:26:25","fd252370c17a9971d68c1d4354a03c2e","","Mozilla/5.0 (X11; CrOS aarch64 15117.86.0) AppleWebKit/537.36 (KHTML, like Gecko) Chrome/107.0.0.0 Safari/537.36","WebKit","Chrome","107.0.0.0","ChromeOS","","null","null","","<p style=""font-size: 48px;"">+</p>","2","Heavy_Contradictory","",""
"","","","","","picture","27840","image-keyboard-response","226","342243","0.0-6.0-3.47","86","2","2022-11-17 12:26:25","fd252370c17a9971d68c1d4354a03c2e","","Mozilla/5.0 (X11; CrOS aarch64 15117.86.0) AppleWebKit/537.36 (KHTML, like Gecko) Chrome/107.0.0.0 Safari/537.36","WebKit","Chrome","107.0.0.0","ChromeOS","","1549","s","","lampS.jpg","2","Heavy_Contradictory","true",""
"","","","","","fixation","27840","html-keyboard-response","227","343268","0.0-6.0-0.48","86","2","2022-11-17 12:26:25","fd252370c17a9971d68c1d4354a03c2e","","Mozilla/5.0 (X11; CrOS aarch64 15117.86.0) AppleWebKit/537.36 (KHTML, like Gecko) Chrome/107.0.0.0 Safari/537.36","WebKit","Chrome","107.0.0.0","ChromeOS","","null","null","","<p style=""font-size: 48px;"">+</p>","2","Filler","",""
"","","","","","sentence","27840","html-keyboard-response","228","344583","0.0-6.0-1.48","86","2","2022-11-17 12:26:25","fd252370c17a9971d68c1d4354a03c2e","","Mozilla/5.0 (X11; CrOS aarch64 15117.86.0) AppleWebKit/537.36 (KHTML, like Gecko) Chrome/107.0.0.0 Safari/537.36","WebKit","Chrome","107.0.0.0","ChromeOS","","1289"," ","","A woman is taking money out of a wallet","2","Filler","",""
"","","","","","fixation","27840","html-keyboard-response","229","345115","0.0-6.0-2.48","86","2","2022-11-17 12:26:25","fd252370c17a9971d68c1d4354a03c2e","","Mozilla/5.0 (X11; CrOS aarch64 15117.86.0) AppleWebKit/537.36 (KHTML, like Gecko) Chrome/107.0.0.0 Safari/537.36","WebKit","Chrome","107.0.0.0","ChromeOS","","null","null","","<p style=""font-size: 48px;"">+</p>","2","Filler","",""
"","","","","","picture","27840","image-keyboard-response","230","346405","0.0-6.0-3.48","86","2","2022-11-17 12:26:25","fd252370c17a9971d68c1d4354a03c2e","","Mozilla/5.0 (X11; CrOS aarch64 15117.86.0) AppleWebKit/537.36 (KHTML, like Gecko) Chrome/107.0.0.0 Safari/537.36","WebKit","Chrome","107.0.0.0","ChromeOS","","1258","n","","coconut.jpg","2","Filler","true",""
"","","","","","fixation","27840","html-keyboard-response","231","347427","0.0-6.0-0.49","86","2","2022-11-17 12:26:25","fd252370c17a9971d68c1d4354a03c2e","","Mozilla/5.0 (X11; CrOS aarch64 15117.86.0) AppleWebKit/537.36 (KHTML, like Gecko) Chrome/107.0.0.0 Safari/537.36","WebKit","Chrome","107.0.0.0","ChromeOS","","null","null","","<p style=""font-size: 48px;"">+</p>","2","Heavy_Contradictory","",""
"","","","","","sentence","27840","html-keyboard-response","232","349045","0.0-6.0-1.49","86","2","2022-11-17 12:26:25","fd252370c17a9971d68c1d4354a03c2e","","Mozilla/5.0 (X11; CrOS aarch64 15117.86.0) AppleWebKit/537.36 (KHTML, like Gecko) Chrome/107.0.0.0 Safari/537.36","WebKit","Chrome","107.0.0.0","ChromeOS","","1595"," ","","A bowling ball dropped and touched a chocolate muffin","2","Heavy_Contradictory","",""
"","","","","","fixation","27840","html-keyboard-response","233","349567","0.0-6.0-2.49","86","2","2022-11-17 12:26:25","fd252370c17a9971d68c1d4354a03c2e","","Mozilla/5.0 (X11; CrOS aarch64 15117.86.0) AppleWebKit/537.36 (KHTML, like Gecko) Chrome/107.0.0.0 Safari/537.36","WebKit","Chrome","107.0.0.0","ChromeOS","","null","null","","<p style=""font-size: 48px;"">+</p>","2","Heavy_Contradictory","",""
"","","","","","picture","27840","image-keyboard-response","234","350701","0.0-6.0-3.49","86","2","2022-11-17 12:26:25","fd252370c17a9971d68c1d4354a03c2e","","Mozilla/5.0 (X11; CrOS aarch64 15117.86.0) AppleWebKit/537.36 (KHTML, like Gecko) Chrome/107.0.0.0 Safari/537.36","WebKit","Chrome","107.0.0.0","ChromeOS","","1109","s","","muffinS.jpg","2","Heavy_Contradictory","true",""
"","","","","","fixation","27840","html-keyboard-response","235","351731","0.0-6.0-0.50","86","2","2022-11-17 12:26:25","fd252370c17a9971d68c1d4354a03c2e","","Mozilla/5.0 (X11; CrOS aarch64 15117.86.0) AppleWebKit/537.36 (KHTML, like Gecko) Chrome/107.0.0.0 Safari/537.36","WebKit","Chrome","107.0.0.0","ChromeOS","","null","null","","<p style=""font-size: 48px;"">+</p>","2","Filler","",""
"","","","","","sentence","27840","html-keyboard-response","236","353772","0.0-6.0-1.50","86","2","2022-11-17 12:26:25","fd252370c17a9971d68c1d4354a03c2e","","Mozilla/5.0 (X11; CrOS aarch64 15117.86.0) AppleWebKit/537.36 (KHTML, like Gecko) Chrome/107.0.0.0 Safari/537.36","WebKit","Chrome","107.0.0.0","ChromeOS","","2017"," ","","A cushion was placed on the magazine","2","Filler","",""
"","","","","","fixation","27840","html-keyboard-response","237","354291","0.0-6.0-2.50","86","2","2022-11-17 12:26:25","fd252370c17a9971d68c1d4354a03c2e","","Mozilla/5.0 (X11; CrOS aarch64 15117.86.0) AppleWebKit/537.36 (KHTML, like Gecko) Chrome/107.0.0.0 Safari/537.36","WebKit","Chrome","107.0.0.0","ChromeOS","","null","null","","<p style=""font-size: 48px;"">+</p>","2","Filler","",""
"","","","","","picture","27840","image-keyboard-response","238","355458","0.0-6.0-3.50","86","2","2022-11-17 12:26:25","fd252370c17a9971d68c1d4354a03c2e","","Mozilla/5.0 (X11; CrOS aarch64 15117.86.0) AppleWebKit/537.36 (KHTML, like Gecko) Chrome/107.0.0.0 Safari/537.36","WebKit","Chrome","107.0.0.0","ChromeOS","","1143","n","","box.jpg","2","Filler","true",""
"","","","","","fixation","27840","html-keyboard-response","239","356483","0.0-6.0-0.51","86","2","2022-11-17 12:26:25","fd252370c17a9971d68c1d4354a03c2e","","Mozilla/5.0 (X11; CrOS aarch64 15117.86.0) AppleWebKit/537.36 (KHTML, like Gecko) Chrome/107.0.0.0 Safari/537.36","WebKit","Chrome","107.0.0.0","ChromeOS","","null","null","","<p style=""font-size: 48px;"">+</p>","2","Heavy_Contradictory","",""
"","","","","","sentence","27840","html-keyboard-response","240","357606","0.0-6.0-1.51","86","2","2022-11-17 12:26:25","fd252370c17a9971d68c1d4354a03c2e","","Mozilla/5.0 (X11; CrOS aarch64 15117.86.0) AppleWebKit/537.36 (KHTML, like Gecko) Chrome/107.0.0.0 Safari/537.36","WebKit","Chrome","107.0.0.0","ChromeOS","","1104"," ","","A bowling ball dropped and touched a mirror","2","Heavy_Contradictory","",""
"","","","","","fixation","27840","html-keyboard-response","241","358139","0.0-6.0-2.51","86","2","2022-11-17 12:26:25","fd252370c17a9971d68c1d4354a03c2e","","Mozilla/5.0 (X11; CrOS aarch64 15117.86.0) AppleWebKit/537.36 (KHTML, like Gecko) Chrome/107.0.0.0 Safari/537.36","WebKit","Chrome","107.0.0.0","ChromeOS","","null","null","","<p style=""font-size: 48px;"">+</p>","2","Heavy_Contradictory","",""
"","","","","","picture","27840","image-keyboard-response","242","359601","0.0-6.0-3.51","86","2","2022-11-17 12:26:25","fd252370c17a9971d68c1d4354a03c2e","","Mozilla/5.0 (X11; CrOS aarch64 15117.86.0) AppleWebKit/537.36 (KHTML, like Gecko) Chrome/107.0.0.0 Safari/537.36","WebKit","Chrome","107.0.0.0","ChromeOS","","1433","s","","mirrorS.jpg","2","Heavy_Contradictory","true",""
"","","","","","fixation","27840","html-keyboard-response","243","360635","0.0-6.0-0.52","86","2","2022-11-17 12:26:25","fd252370c17a9971d68c1d4354a03c2e","","Mozilla/5.0 (X11; CrOS aarch64 15117.86.0) AppleWebKit/537.36 (KHTML, like Gecko) Chrome/107.0.0.0 Safari/537.36","WebKit","Chrome","107.0.0.0","ChromeOS","","null","null","","<p style=""font-size: 48px;"">+</p>","2","Filler","",""
"","","","","","sentence","27840","html-keyboard-response","244","361887","0.0-6.0-1.52","86","2","2022-11-17 12:26:25","fd252370c17a9971d68c1d4354a03c2e","","Mozilla/5.0 (X11; CrOS aarch64 15117.86.0) AppleWebKit/537.36 (KHTML, like Gecko) Chrome/107.0.0.0 Safari/537.36","WebKit","Chrome","107.0.0.0","ChromeOS","","1231"," ","","A horse is chewing hay","2","Filler","",""
"","","","","","fixation","27840","html-keyboard-response","245","362404","0.0-6.0-2.52","86","2","2022-11-17 12:26:25","fd252370c17a9971d68c1d4354a03c2e","","Mozilla/5.0 (X11; CrOS aarch64 15117.86.0) AppleWebKit/537.36 (KHTML, like Gecko) Chrome/107.0.0.0 Safari/537.36","WebKit","Chrome","107.0.0.0","ChromeOS","","null","null","","<p style=""font-size: 48px;"">+</p>","2","Filler","",""
"","","","","","picture","27840","image-keyboard-response","246","363565","0.0-6.0-3.52","86","2","2022-11-17 12:26:25","fd252370c17a9971d68c1d4354a03c2e","","Mozilla/5.0 (X11; CrOS aarch64 15117.86.0) AppleWebKit/537.36 (KHTML, like Gecko) Chrome/107.0.0.0 Safari/537.36","WebKit","Chrome","107.0.0.0","ChromeOS","","1136","n","","purse.jpg","2","Filler","true",""
"","","","","","fixation","27840","html-keyboard-response","247","364595","0.0-6.0-0.53","86","2","2022-11-17 12:26:25","fd252370c17a9971d68c1d4354a03c2e","","Mozilla/5.0 (X11; CrOS aarch64 15117.86.0) AppleWebKit/537.36 (KHTML, like Gecko) Chrome/107.0.0.0 Safari/537.36","WebKit","Chrome","107.0.0.0","ChromeOS","","null","null","","<p style=""font-size: 48px;"">+</p>","2","Filler","",""
"","","","","","sentence","27840","html-keyboard-response","248","366286","0.0-6.0-1.53","86","2","2022-11-17 12:26:25","fd252370c17a9971d68c1d4354a03c2e","","Mozilla/5.0 (X11; CrOS aarch64 15117.86.0) AppleWebKit/537.36 (KHTML, like Gecko) Chrome/107.0.0.0 Safari/537.36","WebKit","Chrome","107.0.0.0","ChromeOS","","1671"," ","","A pencil was placed on the shoe","2","Filler","",""
"","","","","","fixation","27840","html-keyboard-response","249","366820","0.0-6.0-2.53","86","2","2022-11-17 12:26:25","fd252370c17a9971d68c1d4354a03c2e","","Mozilla/5.0 (X11; CrOS aarch64 15117.86.0) AppleWebKit/537.36 (KHTML, like Gecko) Chrome/107.0.0.0 Safari/537.36","WebKit","Chrome","107.0.0.0","ChromeOS","","null","null","","<p style=""font-size: 48px;"">+</p>","2","Filler","",""
"","","","","","picture","27840","image-keyboard-response","250","367982","0.0-6.0-3.53","86","2","2022-11-17 12:26:25","fd252370c17a9971d68c1d4354a03c2e","","Mozilla/5.0 (X11; CrOS aarch64 15117.86.0) AppleWebKit/537.36 (KHTML, like Gecko) Chrome/107.0.0.0 Safari/537.36","WebKit","Chrome","107.0.0.0","ChromeOS","","1133","n","","perfume.jpg","2","Filler","true",""
