success,timeout,failed_images,failed_audio,failed_video,typeoftrial,subject,trial_type,trial_index,time_elapsed,internal_node_id,run_id,condition,recorded_at,source_code_version,ip,user_agent,device,browser,browser_version,platform,platform_version,sona_id,rt,response,Experiment,stimulus,list_number,trialcondition,correct,question_order
TRUE,FALSE,[],[],[],preload,3825,preload,0,1511,0.0-0.0,20,3,2022-11-17 00:47:26,1e2a314d68345bcc521be5de8e44be57,,"Mozilla/5.0 (Macintosh; Intel Mac OS X 10_15_7) AppleWebKit/537.36 (KHTML, like Gecko) Chrome/107.0.0.0 Safari/537.36",Macintosh,Chrome,107.0.0.0,OS X,10_15_7,12936,,,,,,,,
,,,,,instructions,3825,html-button-response,1,13671,0.0-1.0,20,3,2022-11-17 00:47:26,1e2a314d68345bcc521be5de8e44be57,,"Mozilla/5.0 (Macintosh; Intel Mac OS X 10_15_7) AppleWebKit/537.36 (KHTML, like Gecko) Chrome/107.0.0.0 Safari/537.36",Macintosh,Chrome,107.0.0.0,OS X,10_15_7,12936,12158,0,,"<p style=""font-size:20px;""> Welcome to the experiment! </p>
                    <p style=""font-size:20px;""> In this experiment, you will be asked to make judgments about the content of different sentences.</p>
                    <p style=""font-size:20px;""> On each trial, you will read a sentence, and will be shown a picture immediately following the sentence. </p>
                    <p style=""font-size:20px;""> Your task is to decide whether the object displayed in the picture was mentioned in the sentence or not </p>
                    <p style=""font-size:20px;""> and respond as quickly as possible by pressing <strong>S</strong> for yes or <strong>N</strong> for no. </p>
                    <p style=""font-size:20px;""> You will now do a practice session with feedback and instructions. </p>
                    <p style=""font-size:20px;""> Click the button below to continue.</p>",,,,
,,,,,instructions,3825,html-button-response,2,16579,0.0-2.0,20,3,2022-11-17 00:47:26,1e2a314d68345bcc521be5de8e44be57,,"Mozilla/5.0 (Macintosh; Intel Mac OS X 10_15_7) AppleWebKit/537.36 (KHTML, like Gecko) Chrome/107.0.0.0 Safari/537.36",Macintosh,Chrome,107.0.0.0,OS X,10_15_7,12936,2905,0,,"<p style=""font-size:20px;""> You are about to begin the practice test. </p>
                    <p style=""font-size:20px;""> On each trial, a sentence will appear on the screen. You should press SPACEBAR when you have read and understood the sentence.</p>
                    <p style=""font-size:20px;""> After you press SPACEBAR, a picture will appear on the screen. </p>
                    <p style=""font-size:20px;""> You need to indicate whether or not the pictured object was mentioned in the sentence. </p>
                    <p style=""font-size:20px;""> If the object WAS mentioned in the preceding sentence, you should press <strong>S</strong> </p>
                    <p style=""font-size:20px;""> If the object was NOT mentioned in the preceding sentence, you should press <strong>N</strong>. </p>
                    <p style=""font-size:20px;""> Click the button below to continue to the practice session.</p>",,,,
,,,,,fixation,3825,html-keyboard-response,3,17589,0.0-3.0-0.0,20,3,2022-11-17 00:47:26,1e2a314d68345bcc521be5de8e44be57,,"Mozilla/5.0 (Macintosh; Intel Mac OS X 10_15_7) AppleWebKit/537.36 (KHTML, like Gecko) Chrome/107.0.0.0 Safari/537.36",Macintosh,Chrome,107.0.0.0,OS X,10_15_7,12936,null,null,,"<p style=""font-size: 48px;"">+</p>",practice,practice_n,,
,,,,,sentence,3825,html-keyboard-response,4,30813,0.0-3.0-1.0,20,3,2022-11-17 00:47:26,1e2a314d68345bcc521be5de8e44be57,,"Mozilla/5.0 (Macintosh; Intel Mac OS X 10_15_7) AppleWebKit/537.36 (KHTML, like Gecko) Chrome/107.0.0.0 Safari/537.36",Macintosh,Chrome,107.0.0.0,OS X,10_15_7,12936,13221, ,,A bowling ball dropped and touched a bottle,practice,practice_n,,
,,,,,fixation,3825,html-keyboard-response,5,31321,0.0-3.0-2.0,20,3,2022-11-17 00:47:26,1e2a314d68345bcc521be5de8e44be57,,"Mozilla/5.0 (Macintosh; Intel Mac OS X 10_15_7) AppleWebKit/537.36 (KHTML, like Gecko) Chrome/107.0.0.0 Safari/537.36",Macintosh,Chrome,107.0.0.0,OS X,10_15_7,12936,null,null,,"<p style=""font-size: 48px;"">+</p>",practice,practice_n,,
,,,,,picture,3825,image-keyboard-response,6,33306,0.0-3.0-3.0,20,3,2022-11-17 00:47:26,1e2a314d68345bcc521be5de8e44be57,,"Mozilla/5.0 (Macintosh; Intel Mac OS X 10_15_7) AppleWebKit/537.36 (KHTML, like Gecko) Chrome/107.0.0.0 Safari/537.36",Macintosh,Chrome,107.0.0.0,OS X,10_15_7,12936,1981,n,,bookB.jpg,practice,practice_n,TRUE,
,,,,,,,html-keyboard-response,7,35313,0.0-3.0-4.0,20,3,2022-11-17 00:47:26,1e2a314d68345bcc521be5de8e44be57,,"Mozilla/5.0 (Macintosh; Intel Mac OS X 10_15_7) AppleWebKit/537.36 (KHTML, like Gecko) Chrome/107.0.0.0 Safari/537.36",Macintosh,Chrome,107.0.0.0,OS X,10_15_7,12936,null,null,,CORRECT!,,,,
,,,,,fixation,3825,html-keyboard-response,8,36318,0.0-3.0-0.1,20,3,2022-11-17 00:47:26,1e2a314d68345bcc521be5de8e44be57,,"Mozilla/5.0 (Macintosh; Intel Mac OS X 10_15_7) AppleWebKit/537.36 (KHTML, like Gecko) Chrome/107.0.0.0 Safari/537.36",Macintosh,Chrome,107.0.0.0,OS X,10_15_7,12936,null,null,,"<p style=""font-size: 48px;"">+</p>",practice,practice_n,,
,,,,,sentence,3825,html-keyboard-response,9,38437,0.0-3.0-1.1,20,3,2022-11-17 00:47:26,1e2a314d68345bcc521be5de8e44be57,,"Mozilla/5.0 (Macintosh; Intel Mac OS X 10_15_7) AppleWebKit/537.36 (KHTML, like Gecko) Chrome/107.0.0.0 Safari/537.36",Macintosh,Chrome,107.0.0.0,OS X,10_15_7,12936,2117, ,,A balloon dropped and smashed a cup,practice,practice_n,,
,,,,,fixation,3825,html-keyboard-response,10,38945,0.0-3.0-2.1,20,3,2022-11-17 00:47:26,1e2a314d68345bcc521be5de8e44be57,,"Mozilla/5.0 (Macintosh; Intel Mac OS X 10_15_7) AppleWebKit/537.36 (KHTML, like Gecko) Chrome/107.0.0.0 Safari/537.36",Macintosh,Chrome,107.0.0.0,OS X,10_15_7,12936,null,null,,"<p style=""font-size: 48px;"">+</p>",practice,practice_n,,
,,,,,picture,3825,image-keyboard-response,11,40012,0.0-3.0-3.1,20,3,2022-11-17 00:47:26,1e2a314d68345bcc521be5de8e44be57,,"Mozilla/5.0 (Macintosh; Intel Mac OS X 10_15_7) AppleWebKit/537.36 (KHTML, like Gecko) Chrome/107.0.0.0 Safari/537.36",Macintosh,Chrome,107.0.0.0,OS X,10_15_7,12936,1064,n,,bananaB.jpg,practice,practice_n,TRUE,
,,,,,,,html-keyboard-response,12,42016,0.0-3.0-4.1,20,3,2022-11-17 00:47:26,1e2a314d68345bcc521be5de8e44be57,,"Mozilla/5.0 (Macintosh; Intel Mac OS X 10_15_7) AppleWebKit/537.36 (KHTML, like Gecko) Chrome/107.0.0.0 Safari/537.36",Macintosh,Chrome,107.0.0.0,OS X,10_15_7,12936,null,null,,CORRECT!,,,,
,,,,,fixation,3825,html-keyboard-response,13,43025,0.0-3.0-0.2,20,3,2022-11-17 00:47:26,1e2a314d68345bcc521be5de8e44be57,,"Mozilla/5.0 (Macintosh; Intel Mac OS X 10_15_7) AppleWebKit/537.36 (KHTML, like Gecko) Chrome/107.0.0.0 Safari/537.36",Macintosh,Chrome,107.0.0.0,OS X,10_15_7,12936,null,null,,"<p style=""font-size: 48px;"">+</p>",practice,practice_s,,
,,,,,sentence,3825,html-keyboard-response,14,45505,0.0-3.0-1.2,20,3,2022-11-17 00:47:26,1e2a314d68345bcc521be5de8e44be57,,"Mozilla/5.0 (Macintosh; Intel Mac OS X 10_15_7) AppleWebKit/537.36 (KHTML, like Gecko) Chrome/107.0.0.0 Safari/537.36",Macintosh,Chrome,107.0.0.0,OS X,10_15_7,12936,2478, ,,A bowling ball dropped and smashed a teacup,practice,practice_s,,
,,,,,fixation,3825,html-keyboard-response,15,46009,0.0-3.0-2.2,20,3,2022-11-17 00:47:26,1e2a314d68345bcc521be5de8e44be57,,"Mozilla/5.0 (Macintosh; Intel Mac OS X 10_15_7) AppleWebKit/537.36 (KHTML, like Gecko) Chrome/107.0.0.0 Safari/537.36",Macintosh,Chrome,107.0.0.0,OS X,10_15_7,12936,null,null,,"<p style=""font-size: 48px;"">+</p>",practice,practice_s,,
,,,,,picture,3825,image-keyboard-response,16,48015,0.0-3.0-3.2,20,3,2022-11-17 00:47:26,1e2a314d68345bcc521be5de8e44be57,,"Mozilla/5.0 (Macintosh; Intel Mac OS X 10_15_7) AppleWebKit/537.36 (KHTML, like Gecko) Chrome/107.0.0.0 Safari/537.36",Macintosh,Chrome,107.0.0.0,OS X,10_15_7,12936,2002,s,,cupB.jpg,practice,practice_s,TRUE,
,,,,,,,html-keyboard-response,17,50028,0.0-3.0-4.2,20,3,2022-11-17 00:47:26,1e2a314d68345bcc521be5de8e44be57,,"Mozilla/5.0 (Macintosh; Intel Mac OS X 10_15_7) AppleWebKit/537.36 (KHTML, like Gecko) Chrome/107.0.0.0 Safari/537.36",Macintosh,Chrome,107.0.0.0,OS X,10_15_7,12936,null,null,,CORRECT!,,,,
,,,,,fixation,3825,html-keyboard-response,18,51038,0.0-3.0-0.3,20,3,2022-11-17 00:47:26,1e2a314d68345bcc521be5de8e44be57,,"Mozilla/5.0 (Macintosh; Intel Mac OS X 10_15_7) AppleWebKit/537.36 (KHTML, like Gecko) Chrome/107.0.0.0 Safari/537.36",Macintosh,Chrome,107.0.0.0,OS X,10_15_7,12936,null,null,,"<p style=""font-size: 48px;"">+</p>",practice,practice_s,,
,,,,,sentence,3825,html-keyboard-response,19,52790,0.0-3.0-1.3,20,3,2022-11-17 00:47:26,1e2a314d68345bcc521be5de8e44be57,,"Mozilla/5.0 (Macintosh; Intel Mac OS X 10_15_7) AppleWebKit/537.36 (KHTML, like Gecko) Chrome/107.0.0.0 Safari/537.36",Macintosh,Chrome,107.0.0.0,OS X,10_15_7,12936,1749, ,,A knife was placed on a hammer,practice,practice_s,,
,,,,,fixation,3825,html-keyboard-response,20,53297,0.0-3.0-2.3,20,3,2022-11-17 00:47:26,1e2a314d68345bcc521be5de8e44be57,,"Mozilla/5.0 (Macintosh; Intel Mac OS X 10_15_7) AppleWebKit/537.36 (KHTML, like Gecko) Chrome/107.0.0.0 Safari/537.36",Macintosh,Chrome,107.0.0.0,OS X,10_15_7,12936,null,null,,"<p style=""font-size: 48px;"">+</p>",practice,practice_s,,
,,,,,picture,3825,image-keyboard-response,21,54648,0.0-3.0-3.3,20,3,2022-11-17 00:47:26,1e2a314d68345bcc521be5de8e44be57,,"Mozilla/5.0 (Macintosh; Intel Mac OS X 10_15_7) AppleWebKit/537.36 (KHTML, like Gecko) Chrome/107.0.0.0 Safari/537.36",Macintosh,Chrome,107.0.0.0,OS X,10_15_7,12936,1347,s,,hammerB.jpg,practice,practice_s,TRUE,
,,,,,,,html-keyboard-response,22,56657,0.0-3.0-4.3,20,3,2022-11-17 00:47:26,1e2a314d68345bcc521be5de8e44be57,,"Mozilla/5.0 (Macintosh; Intel Mac OS X 10_15_7) AppleWebKit/537.36 (KHTML, like Gecko) Chrome/107.0.0.0 Safari/537.36",Macintosh,Chrome,107.0.0.0,OS X,10_15_7,12936,null,null,,CORRECT!,,,,
,,,,,fixation,3825,html-keyboard-response,23,57665,0.0-3.0-0.4,20,3,2022-11-17 00:47:26,1e2a314d68345bcc521be5de8e44be57,,"Mozilla/5.0 (Macintosh; Intel Mac OS X 10_15_7) AppleWebKit/537.36 (KHTML, like Gecko) Chrome/107.0.0.0 Safari/537.36",Macintosh,Chrome,107.0.0.0,OS X,10_15_7,12936,null,null,,"<p style=""font-size: 48px;"">+</p>",practice,practice_n,,
,,,,,sentence,3825,html-keyboard-response,24,59604,0.0-3.0-1.4,20,3,2022-11-17 00:47:26,1e2a314d68345bcc521be5de8e44be57,,"Mozilla/5.0 (Macintosh; Intel Mac OS X 10_15_7) AppleWebKit/537.36 (KHTML, like Gecko) Chrome/107.0.0.0 Safari/537.36",Macintosh,Chrome,107.0.0.0,OS X,10_15_7,12936,1934, ,,A fork was placed on a stool,practice,practice_n,,
,,,,,fixation,3825,html-keyboard-response,25,60113,0.0-3.0-2.4,20,3,2022-11-17 00:47:26,1e2a314d68345bcc521be5de8e44be57,,"Mozilla/5.0 (Macintosh; Intel Mac OS X 10_15_7) AppleWebKit/537.36 (KHTML, like Gecko) Chrome/107.0.0.0 Safari/537.36",Macintosh,Chrome,107.0.0.0,OS X,10_15_7,12936,null,null,,"<p style=""font-size: 48px;"">+</p>",practice,practice_n,,
,,,,,picture,3825,image-keyboard-response,26,60826,0.0-3.0-3.4,20,3,2022-11-17 00:47:26,1e2a314d68345bcc521be5de8e44be57,,"Mozilla/5.0 (Macintosh; Intel Mac OS X 10_15_7) AppleWebKit/537.36 (KHTML, like Gecko) Chrome/107.0.0.0 Safari/537.36",Macintosh,Chrome,107.0.0.0,OS X,10_15_7,12936,707,n,,tableB.jpg,practice,practice_n,TRUE,
,,,,,,,html-keyboard-response,27,62833,0.0-3.0-4.4,20,3,2022-11-17 00:47:26,1e2a314d68345bcc521be5de8e44be57,,"Mozilla/5.0 (Macintosh; Intel Mac OS X 10_15_7) AppleWebKit/537.36 (KHTML, like Gecko) Chrome/107.0.0.0 Safari/537.36",Macintosh,Chrome,107.0.0.0,OS X,10_15_7,12936,null,null,,CORRECT!,,,,
,,,,,fixation,3825,html-keyboard-response,28,63838,0.0-3.0-0.5,20,3,2022-11-17 00:47:26,1e2a314d68345bcc521be5de8e44be57,,"Mozilla/5.0 (Macintosh; Intel Mac OS X 10_15_7) AppleWebKit/537.36 (KHTML, like Gecko) Chrome/107.0.0.0 Safari/537.36",Macintosh,Chrome,107.0.0.0,OS X,10_15_7,12936,null,null,,"<p style=""font-size: 48px;"">+</p>",practice,practice_s,,
,,,,,sentence,3825,html-keyboard-response,29,63867,0.0-3.0-1.5,20,3,2022-11-17 00:47:26,1e2a314d68345bcc521be5de8e44be57,,"Mozilla/5.0 (Macintosh; Intel Mac OS X 10_15_7) AppleWebKit/537.36 (KHTML, like Gecko) Chrome/107.0.0.0 Safari/537.36",Macintosh,Chrome,107.0.0.0,OS X,10_15_7,12936,26, ,,A balloon dropped and touched a cigarette,practice,practice_s,,
,,,,,fixation,3825,html-keyboard-response,30,64374,0.0-3.0-2.5,20,3,2022-11-17 00:47:26,1e2a314d68345bcc521be5de8e44be57,,"Mozilla/5.0 (Macintosh; Intel Mac OS X 10_15_7) AppleWebKit/537.36 (KHTML, like Gecko) Chrome/107.0.0.0 Safari/537.36",Macintosh,Chrome,107.0.0.0,OS X,10_15_7,12936,null,null,,"<p style=""font-size: 48px;"">+</p>",practice,practice_s,,
,,,,,picture,3825,image-keyboard-response,31,65306,0.0-3.0-3.5,20,3,2022-11-17 00:47:26,1e2a314d68345bcc521be5de8e44be57,,"Mozilla/5.0 (Macintosh; Intel Mac OS X 10_15_7) AppleWebKit/537.36 (KHTML, like Gecko) Chrome/107.0.0.0 Safari/537.36",Macintosh,Chrome,107.0.0.0,OS X,10_15_7,12936,928,n,,cigaretteB.jpg,practice,practice_s,FALSE,
,,,,,,,html-keyboard-response,32,67323,0.0-3.0-4.5,20,3,2022-11-17 00:47:26,1e2a314d68345bcc521be5de8e44be57,,"Mozilla/5.0 (Macintosh; Intel Mac OS X 10_15_7) AppleWebKit/537.36 (KHTML, like Gecko) Chrome/107.0.0.0 Safari/537.36",Macintosh,Chrome,107.0.0.0,OS X,10_15_7,12936,null,null,,WRONG!,,,,
,,,,,movetoexp,3825,html-button-response,33,69888,0.0-4.0,20,3,2022-11-17 00:47:26,1e2a314d68345bcc521be5de8e44be57,,"Mozilla/5.0 (Macintosh; Intel Mac OS X 10_15_7) AppleWebKit/537.36 (KHTML, like Gecko) Chrome/107.0.0.0 Safari/537.36",Macintosh,Chrome,107.0.0.0,OS X,10_15_7,12936,2558,0,,"<p style=""font-size:20px;"">You have now completed the practice session! </p>
                    <p style=""font-size:20px;"">You will now move on to the main experiment, where you will not be provided any feedback. </p>
                    <p style=""font-size:20px;"">Remember, you should press <strong>S</strong> if the pictured object was mentioned in the preceding sentence<br> and <strong>N</strong> if the pictured object was not mentioned in the preceding sentence.</p>
                    <p style=""font-size:20px;"">Please click the button below to continue to the main experiment. </p>",,,,
,,,,,fixation,3825,html-keyboard-response,34,70897,0.0-5.0-0.0,20,3,2022-11-17 00:47:26,1e2a314d68345bcc521be5de8e44be57,,"Mozilla/5.0 (Macintosh; Intel Mac OS X 10_15_7) AppleWebKit/537.36 (KHTML, like Gecko) Chrome/107.0.0.0 Safari/537.36",Macintosh,Chrome,107.0.0.0,OS X,10_15_7,12936,null,null,,"<p style=""font-size: 48px;"">+</p>",3,Filler,,
,,,,,sentence,3825,html-keyboard-response,35,71079,0.0-5.0-1.0,20,3,2022-11-17 00:47:26,1e2a314d68345bcc521be5de8e44be57,,"Mozilla/5.0 (Macintosh; Intel Mac OS X 10_15_7) AppleWebKit/537.36 (KHTML, like Gecko) Chrome/107.0.0.0 Safari/537.36",Macintosh,Chrome,107.0.0.0,OS X,10_15_7,12936,178, ,,A pencil was placed on the shoe,3,Filler,,
,,,,,fixation,3825,html-keyboard-response,36,71593,0.0-5.0-2.0,20,3,2022-11-17 00:47:26,1e2a314d68345bcc521be5de8e44be57,,"Mozilla/5.0 (Macintosh; Intel Mac OS X 10_15_7) AppleWebKit/537.36 (KHTML, like Gecko) Chrome/107.0.0.0 Safari/537.36",Macintosh,Chrome,107.0.0.0,OS X,10_15_7,12936,null,null,,"<p style=""font-size: 48px;"">+</p>",3,Filler,,
,,,,,picture,3825,image-keyboard-response,37,72516,0.0-5.0-3.0,20,3,2022-11-17 00:47:26,1e2a314d68345bcc521be5de8e44be57,,"Mozilla/5.0 (Macintosh; Intel Mac OS X 10_15_7) AppleWebKit/537.36 (KHTML, like Gecko) Chrome/107.0.0.0 Safari/537.36",Macintosh,Chrome,107.0.0.0,OS X,10_15_7,12936,919,n,,perfume.jpg,3,Filler,TRUE,
,,,,,fixation,3825,html-keyboard-response,38,73529,0.0-5.0-0.1,20,3,2022-11-17 00:47:26,1e2a314d68345bcc521be5de8e44be57,,"Mozilla/5.0 (Macintosh; Intel Mac OS X 10_15_7) AppleWebKit/537.36 (KHTML, like Gecko) Chrome/107.0.0.0 Safari/537.36",Macintosh,Chrome,107.0.0.0,OS X,10_15_7,12936,null,null,,"<p style=""font-size: 48px;"">+</p>",3,Filler,,
,,,,,sentence,3825,html-keyboard-response,39,75421,0.0-5.0-1.1,20,3,2022-11-17 00:47:26,1e2a314d68345bcc521be5de8e44be57,,"Mozilla/5.0 (Macintosh; Intel Mac OS X 10_15_7) AppleWebKit/537.36 (KHTML, like Gecko) Chrome/107.0.0.0 Safari/537.36",Macintosh,Chrome,107.0.0.0,OS X,10_15_7,12936,1886, ,,A president is writing in the notebook,3,Filler,,
,,,,,fixation,3825,html-keyboard-response,40,75929,0.0-5.0-2.1,20,3,2022-11-17 00:47:26,1e2a314d68345bcc521be5de8e44be57,,"Mozilla/5.0 (Macintosh; Intel Mac OS X 10_15_7) AppleWebKit/537.36 (KHTML, like Gecko) Chrome/107.0.0.0 Safari/537.36",Macintosh,Chrome,107.0.0.0,OS X,10_15_7,12936,null,null,,"<p style=""font-size: 48px;"">+</p>",3,Filler,,
,,,,,picture,3825,image-keyboard-response,41,76634,0.0-5.0-3.1,20,3,2022-11-17 00:47:26,1e2a314d68345bcc521be5de8e44be57,,"Mozilla/5.0 (Macintosh; Intel Mac OS X 10_15_7) AppleWebKit/537.36 (KHTML, like Gecko) Chrome/107.0.0.0 Safari/537.36",Macintosh,Chrome,107.0.0.0,OS X,10_15_7,12936,700,n,,can.jpg,3,Filler,TRUE,
,,,,,fixation,3825,html-keyboard-response,42,77641,0.0-5.0-0.2,20,3,2022-11-17 00:47:26,1e2a314d68345bcc521be5de8e44be57,,"Mozilla/5.0 (Macintosh; Intel Mac OS X 10_15_7) AppleWebKit/537.36 (KHTML, like Gecko) Chrome/107.0.0.0 Safari/537.36",Macintosh,Chrome,107.0.0.0,OS X,10_15_7,12936,null,null,,"<p style=""font-size: 48px;"">+</p>",3,Filler,,
,,,,,sentence,3825,html-keyboard-response,43,80214,0.0-5.0-1.2,20,3,2022-11-17 00:47:26,1e2a314d68345bcc521be5de8e44be57,,"Mozilla/5.0 (Macintosh; Intel Mac OS X 10_15_7) AppleWebKit/537.36 (KHTML, like Gecko) Chrome/107.0.0.0 Safari/537.36",Macintosh,Chrome,107.0.0.0,OS X,10_15_7,12936,2567, ,,A student is writing on a board,3,Filler,,
,,,,,fixation,3825,html-keyboard-response,44,80721,0.0-5.0-2.2,20,3,2022-11-17 00:47:26,1e2a314d68345bcc521be5de8e44be57,,"Mozilla/5.0 (Macintosh; Intel Mac OS X 10_15_7) AppleWebKit/537.36 (KHTML, like Gecko) Chrome/107.0.0.0 Safari/537.36",Macintosh,Chrome,107.0.0.0,OS X,10_15_7,12936,null,null,,"<p style=""font-size: 48px;"">+</p>",3,Filler,,
,,,,,picture,3825,image-keyboard-response,45,81326,0.0-5.0-3.2,20,3,2022-11-17 00:47:26,1e2a314d68345bcc521be5de8e44be57,,"Mozilla/5.0 (Macintosh; Intel Mac OS X 10_15_7) AppleWebKit/537.36 (KHTML, like Gecko) Chrome/107.0.0.0 Safari/537.36",Macintosh,Chrome,107.0.0.0,OS X,10_15_7,12936,600,n,,owl.jpg,3,Filler,TRUE,
,,,,,fixation,3825,html-keyboard-response,46,82337,0.0-5.0-0.3,20,3,2022-11-17 00:47:26,1e2a314d68345bcc521be5de8e44be57,,"Mozilla/5.0 (Macintosh; Intel Mac OS X 10_15_7) AppleWebKit/537.36 (KHTML, like Gecko) Chrome/107.0.0.0 Safari/537.36",Macintosh,Chrome,107.0.0.0,OS X,10_15_7,12936,null,null,,"<p style=""font-size: 48px;"">+</p>",3,Heavy_Contradictory,,
,,,,,sentence,3825,html-keyboard-response,47,85078,0.0-5.0-1.3,20,3,2022-11-17 00:47:26,1e2a314d68345bcc521be5de8e44be57,,"Mozilla/5.0 (Macintosh; Intel Mac OS X 10_15_7) AppleWebKit/537.36 (KHTML, like Gecko) Chrome/107.0.0.0 Safari/537.36",Macintosh,Chrome,107.0.0.0,OS X,10_15_7,12936,2734, ,,A bowling ball dropped and touched a piece of sushi,3,Heavy_Contradictory,,
,,,,,fixation,3825,html-keyboard-response,48,85585,0.0-5.0-2.3,20,3,2022-11-17 00:47:26,1e2a314d68345bcc521be5de8e44be57,,"Mozilla/5.0 (Macintosh; Intel Mac OS X 10_15_7) AppleWebKit/537.36 (KHTML, like Gecko) Chrome/107.0.0.0 Safari/537.36",Macintosh,Chrome,107.0.0.0,OS X,10_15_7,12936,null,null,,"<p style=""font-size: 48px;"">+</p>",3,Heavy_Contradictory,,
,,,,,picture,3825,image-keyboard-response,49,86741,0.0-5.0-3.3,20,3,2022-11-17 00:47:26,1e2a314d68345bcc521be5de8e44be57,,"Mozilla/5.0 (Macintosh; Intel Mac OS X 10_15_7) AppleWebKit/537.36 (KHTML, like Gecko) Chrome/107.0.0.0 Safari/537.36",Macintosh,Chrome,107.0.0.0,OS X,10_15_7,12936,1150,s,,sushiS.jpg,3,Heavy_Contradictory,TRUE,
,,,,,fixation,3825,html-keyboard-response,50,87753,0.0-5.0-0.4,20,3,2022-11-17 00:47:26,1e2a314d68345bcc521be5de8e44be57,,"Mozilla/5.0 (Macintosh; Intel Mac OS X 10_15_7) AppleWebKit/537.36 (KHTML, like Gecko) Chrome/107.0.0.0 Safari/537.36",Macintosh,Chrome,107.0.0.0,OS X,10_15_7,12936,null,null,,"<p style=""font-size: 48px;"">+</p>",3,Filler,,
,,,,,sentence,3825,html-keyboard-response,51,89533,0.0-5.0-1.4,20,3,2022-11-17 00:47:26,1e2a314d68345bcc521be5de8e44be57,,"Mozilla/5.0 (Macintosh; Intel Mac OS X 10_15_7) AppleWebKit/537.36 (KHTML, like Gecko) Chrome/107.0.0.0 Safari/537.36",Macintosh,Chrome,107.0.0.0,OS X,10_15_7,12936,1773, ,,A thermometer was placed on the box,3,Filler,,
,,,,,fixation,3825,html-keyboard-response,52,90040,0.0-5.0-2.4,20,3,2022-11-17 00:47:26,1e2a314d68345bcc521be5de8e44be57,,"Mozilla/5.0 (Macintosh; Intel Mac OS X 10_15_7) AppleWebKit/537.36 (KHTML, like Gecko) Chrome/107.0.0.0 Safari/537.36",Macintosh,Chrome,107.0.0.0,OS X,10_15_7,12936,null,null,,"<p style=""font-size: 48px;"">+</p>",3,Filler,,
,,,,,picture,3825,image-keyboard-response,53,90904,0.0-5.0-3.4,20,3,2022-11-17 00:47:26,1e2a314d68345bcc521be5de8e44be57,,"Mozilla/5.0 (Macintosh; Intel Mac OS X 10_15_7) AppleWebKit/537.36 (KHTML, like Gecko) Chrome/107.0.0.0 Safari/537.36",Macintosh,Chrome,107.0.0.0,OS X,10_15_7,12936,859,n,,button.jpg,3,Filler,TRUE,
,,,,,fixation,3825,html-keyboard-response,54,91913,0.0-5.0-0.5,20,3,2022-11-17 00:47:26,1e2a314d68345bcc521be5de8e44be57,,"Mozilla/5.0 (Macintosh; Intel Mac OS X 10_15_7) AppleWebKit/537.36 (KHTML, like Gecko) Chrome/107.0.0.0 Safari/537.36",Macintosh,Chrome,107.0.0.0,OS X,10_15_7,12936,null,null,,"<p style=""font-size: 48px;"">+</p>",3,Filler,,
,,,,,sentence,3825,html-keyboard-response,55,92946,0.0-5.0-1.5,20,3,2022-11-17 00:47:26,1e2a314d68345bcc521be5de8e44be57,,"Mozilla/5.0 (Macintosh; Intel Mac OS X 10_15_7) AppleWebKit/537.36 (KHTML, like Gecko) Chrome/107.0.0.0 Safari/537.36",Macintosh,Chrome,107.0.0.0,OS X,10_15_7,12936,1025, ,,A postman is driving a car,3,Filler,,
,,,,,fixation,3825,html-keyboard-response,56,93457,0.0-5.0-2.5,20,3,2022-11-17 00:47:26,1e2a314d68345bcc521be5de8e44be57,,"Mozilla/5.0 (Macintosh; Intel Mac OS X 10_15_7) AppleWebKit/537.36 (KHTML, like Gecko) Chrome/107.0.0.0 Safari/537.36",Macintosh,Chrome,107.0.0.0,OS X,10_15_7,12936,null,null,,"<p style=""font-size: 48px;"">+</p>",3,Filler,,
,,,,,picture,3825,image-keyboard-response,57,94107,0.0-5.0-3.5,20,3,2022-11-17 00:47:26,1e2a314d68345bcc521be5de8e44be57,,"Mozilla/5.0 (Macintosh; Intel Mac OS X 10_15_7) AppleWebKit/537.36 (KHTML, like Gecko) Chrome/107.0.0.0 Safari/537.36",Macintosh,Chrome,107.0.0.0,OS X,10_15_7,12936,643,s,,car.jpg,3,Filler,TRUE,
,,,,,fixation,3825,html-keyboard-response,58,95121,0.0-5.0-0.6,20,3,2022-11-17 00:47:26,1e2a314d68345bcc521be5de8e44be57,,"Mozilla/5.0 (Macintosh; Intel Mac OS X 10_15_7) AppleWebKit/537.36 (KHTML, like Gecko) Chrome/107.0.0.0 Safari/537.36",Macintosh,Chrome,107.0.0.0,OS X,10_15_7,12936,null,null,,"<p style=""font-size: 48px;"">+</p>",3,Filler,,
,,,,,sentence,3825,html-keyboard-response,59,98752,0.0-5.0-1.6,20,3,2022-11-17 00:47:26,1e2a314d68345bcc521be5de8e44be57,,"Mozilla/5.0 (Macintosh; Intel Mac OS X 10_15_7) AppleWebKit/537.36 (KHTML, like Gecko) Chrome/107.0.0.0 Safari/537.36",Macintosh,Chrome,107.0.0.0,OS X,10_15_7,12936,3623, ,,A boy is wearing a hat,3,Filler,,
,,,,,fixation,3825,html-keyboard-response,60,99265,0.0-5.0-2.6,20,3,2022-11-17 00:47:26,1e2a314d68345bcc521be5de8e44be57,,"Mozilla/5.0 (Macintosh; Intel Mac OS X 10_15_7) AppleWebKit/537.36 (KHTML, like Gecko) Chrome/107.0.0.0 Safari/537.36",Macintosh,Chrome,107.0.0.0,OS X,10_15_7,12936,null,null,,"<p style=""font-size: 48px;"">+</p>",3,Filler,,
,,,,,picture,3825,image-keyboard-response,61,99955,0.0-5.0-3.6,20,3,2022-11-17 00:47:26,1e2a314d68345bcc521be5de8e44be57,,"Mozilla/5.0 (Macintosh; Intel Mac OS X 10_15_7) AppleWebKit/537.36 (KHTML, like Gecko) Chrome/107.0.0.0 Safari/537.36",Macintosh,Chrome,107.0.0.0,OS X,10_15_7,12936,683,n,,hat.jpg,3,Filler,FALSE,
,,,,,fixation,3825,html-keyboard-response,62,100970,0.0-5.0-0.7,20,3,2022-11-17 00:47:26,1e2a314d68345bcc521be5de8e44be57,,"Mozilla/5.0 (Macintosh; Intel Mac OS X 10_15_7) AppleWebKit/537.36 (KHTML, like Gecko) Chrome/107.0.0.0 Safari/537.36",Macintosh,Chrome,107.0.0.0,OS X,10_15_7,12936,null,null,,"<p style=""font-size: 48px;"">+</p>",3,Filler,,
,,,,,sentence,3825,html-keyboard-response,63,102343,0.0-5.0-1.7,20,3,2022-11-17 00:47:26,1e2a314d68345bcc521be5de8e44be57,,"Mozilla/5.0 (Macintosh; Intel Mac OS X 10_15_7) AppleWebKit/537.36 (KHTML, like Gecko) Chrome/107.0.0.0 Safari/537.36",Macintosh,Chrome,107.0.0.0,OS X,10_15_7,12936,1365, ,,A toothbrush was placed on the sponge,3,Filler,,
,,,,,fixation,3825,html-keyboard-response,64,102849,0.0-5.0-2.7,20,3,2022-11-17 00:47:26,1e2a314d68345bcc521be5de8e44be57,,"Mozilla/5.0 (Macintosh; Intel Mac OS X 10_15_7) AppleWebKit/537.36 (KHTML, like Gecko) Chrome/107.0.0.0 Safari/537.36",Macintosh,Chrome,107.0.0.0,OS X,10_15_7,12936,null,null,,"<p style=""font-size: 48px;"">+</p>",3,Filler,,
,,,,,picture,3825,image-keyboard-response,65,103468,0.0-5.0-3.7,20,3,2022-11-17 00:47:26,1e2a314d68345bcc521be5de8e44be57,,"Mozilla/5.0 (Macintosh; Intel Mac OS X 10_15_7) AppleWebKit/537.36 (KHTML, like Gecko) Chrome/107.0.0.0 Safari/537.36",Macintosh,Chrome,107.0.0.0,OS X,10_15_7,12936,612,s,,sponge.jpg,3,Filler,TRUE,
,,,,,fixation,3825,html-keyboard-response,66,104481,0.0-5.0-0.8,20,3,2022-11-17 00:47:26,1e2a314d68345bcc521be5de8e44be57,,"Mozilla/5.0 (Macintosh; Intel Mac OS X 10_15_7) AppleWebKit/537.36 (KHTML, like Gecko) Chrome/107.0.0.0 Safari/537.36",Macintosh,Chrome,107.0.0.0,OS X,10_15_7,12936,null,null,,"<p style=""font-size: 48px;"">+</p>",3,Filler,,
,,,,,sentence,3825,html-keyboard-response,67,106145,0.0-5.0-1.8,20,3,2022-11-17 00:47:26,1e2a314d68345bcc521be5de8e44be57,,"Mozilla/5.0 (Macintosh; Intel Mac OS X 10_15_7) AppleWebKit/537.36 (KHTML, like Gecko) Chrome/107.0.0.0 Safari/537.36",Macintosh,Chrome,107.0.0.0,OS X,10_15_7,12936,1657, ,,A parrot is eating an apple,3,Filler,,
,,,,,fixation,3825,html-keyboard-response,68,106657,0.0-5.0-2.8,20,3,2022-11-17 00:47:26,1e2a314d68345bcc521be5de8e44be57,,"Mozilla/5.0 (Macintosh; Intel Mac OS X 10_15_7) AppleWebKit/537.36 (KHTML, like Gecko) Chrome/107.0.0.0 Safari/537.36",Macintosh,Chrome,107.0.0.0,OS X,10_15_7,12936,null,null,,"<p style=""font-size: 48px;"">+</p>",3,Filler,,
,,,,,picture,3825,image-keyboard-response,69,107300,0.0-5.0-3.8,20,3,2022-11-17 00:47:26,1e2a314d68345bcc521be5de8e44be57,,"Mozilla/5.0 (Macintosh; Intel Mac OS X 10_15_7) AppleWebKit/537.36 (KHTML, like Gecko) Chrome/107.0.0.0 Safari/537.36",Macintosh,Chrome,107.0.0.0,OS X,10_15_7,12936,636,n,,shirt.jpg,3,Filler,TRUE,
,,,,,fixation,3825,html-keyboard-response,70,108313,0.0-5.0-0.9,20,3,2022-11-17 00:47:26,1e2a314d68345bcc521be5de8e44be57,,"Mozilla/5.0 (Macintosh; Intel Mac OS X 10_15_7) AppleWebKit/537.36 (KHTML, like Gecko) Chrome/107.0.0.0 Safari/537.36",Macintosh,Chrome,107.0.0.0,OS X,10_15_7,12936,null,null,,"<p style=""font-size: 48px;"">+</p>",3,Heavy_Contradictory,,
,,,,,sentence,3825,html-keyboard-response,71,109672,0.0-5.0-1.9,20,3,2022-11-17 00:47:26,1e2a314d68345bcc521be5de8e44be57,,"Mozilla/5.0 (Macintosh; Intel Mac OS X 10_15_7) AppleWebKit/537.36 (KHTML, like Gecko) Chrome/107.0.0.0 Safari/537.36",Macintosh,Chrome,107.0.0.0,OS X,10_15_7,12936,1350, ,,A bowling ball dropped and touched a strawberry,3,Heavy_Contradictory,,
,,,,,fixation,3825,html-keyboard-response,72,110185,0.0-5.0-2.9,20,3,2022-11-17 00:47:26,1e2a314d68345bcc521be5de8e44be57,,"Mozilla/5.0 (Macintosh; Intel Mac OS X 10_15_7) AppleWebKit/537.36 (KHTML, like Gecko) Chrome/107.0.0.0 Safari/537.36",Macintosh,Chrome,107.0.0.0,OS X,10_15_7,12936,null,null,,"<p style=""font-size: 48px;"">+</p>",3,Heavy_Contradictory,,
,,,,,picture,3825,image-keyboard-response,73,110893,0.0-5.0-3.9,20,3,2022-11-17 00:47:26,1e2a314d68345bcc521be5de8e44be57,,"Mozilla/5.0 (Macintosh; Intel Mac OS X 10_15_7) AppleWebKit/537.36 (KHTML, like Gecko) Chrome/107.0.0.0 Safari/537.36",Macintosh,Chrome,107.0.0.0,OS X,10_15_7,12936,699,s,,strawberryS.jpg,3,Heavy_Contradictory,TRUE,
,,,,,fixation,3825,html-keyboard-response,74,111905,0.0-5.0-0.10,20,3,2022-11-17 00:47:26,1e2a314d68345bcc521be5de8e44be57,,"Mozilla/5.0 (Macintosh; Intel Mac OS X 10_15_7) AppleWebKit/537.36 (KHTML, like Gecko) Chrome/107.0.0.0 Safari/537.36",Macintosh,Chrome,107.0.0.0,OS X,10_15_7,12936,null,null,,"<p style=""font-size: 48px;"">+</p>",3,Heavy_Matched,,
,,,,,sentence,3825,html-keyboard-response,75,113974,0.0-5.0-1.10,20,3,2022-11-17 00:47:26,1e2a314d68345bcc521be5de8e44be57,,"Mozilla/5.0 (Macintosh; Intel Mac OS X 10_15_7) AppleWebKit/537.36 (KHTML, like Gecko) Chrome/107.0.0.0 Safari/537.36",Macintosh,Chrome,107.0.0.0,OS X,10_15_7,12936,2061, ,,A bowling ball dropped and smashed a chocolate muffin,3,Heavy_Matched,,
,,,,,fixation,3825,html-keyboard-response,76,114481,0.0-5.0-2.10,20,3,2022-11-17 00:47:26,1e2a314d68345bcc521be5de8e44be57,,"Mozilla/5.0 (Macintosh; Intel Mac OS X 10_15_7) AppleWebKit/537.36 (KHTML, like Gecko) Chrome/107.0.0.0 Safari/537.36",Macintosh,Chrome,107.0.0.0,OS X,10_15_7,12936,null,null,,"<p style=""font-size: 48px;"">+</p>",3,Heavy_Matched,,
,,,,,picture,3825,image-keyboard-response,77,115168,0.0-5.0-3.10,20,3,2022-11-17 00:47:26,1e2a314d68345bcc521be5de8e44be57,,"Mozilla/5.0 (Macintosh; Intel Mac OS X 10_15_7) AppleWebKit/537.36 (KHTML, like Gecko) Chrome/107.0.0.0 Safari/537.36",Macintosh,Chrome,107.0.0.0,OS X,10_15_7,12936,677,n,,muffinS.jpg,3,Heavy_Matched,FALSE,
,,,,,fixation,3825,html-keyboard-response,78,116185,0.0-5.0-0.11,20,3,2022-11-17 00:47:26,1e2a314d68345bcc521be5de8e44be57,,"Mozilla/5.0 (Macintosh; Intel Mac OS X 10_15_7) AppleWebKit/537.36 (KHTML, like Gecko) Chrome/107.0.0.0 Safari/537.36",Macintosh,Chrome,107.0.0.0,OS X,10_15_7,12936,null,null,,"<p style=""font-size: 48px;"">+</p>",3,Light_Contradictory,,
,,,,,sentence,3825,html-keyboard-response,79,119847,0.0-5.0-1.11,20,3,2022-11-17 00:47:26,1e2a314d68345bcc521be5de8e44be57,,"Mozilla/5.0 (Macintosh; Intel Mac OS X 10_15_7) AppleWebKit/537.36 (KHTML, like Gecko) Chrome/107.0.0.0 Safari/537.36",Macintosh,Chrome,107.0.0.0,OS X,10_15_7,12936,3653, ,,A balloon dropped and smashed an egg flan,3,Light_Contradictory,,
,,,,,fixation,3825,html-keyboard-response,80,120361,0.0-5.0-2.11,20,3,2022-11-17 00:47:26,1e2a314d68345bcc521be5de8e44be57,,"Mozilla/5.0 (Macintosh; Intel Mac OS X 10_15_7) AppleWebKit/537.36 (KHTML, like Gecko) Chrome/107.0.0.0 Safari/537.36",Macintosh,Chrome,107.0.0.0,OS X,10_15_7,12936,null,null,,"<p style=""font-size: 48px;"">+</p>",3,Light_Contradictory,,
,,,,,picture,3825,image-keyboard-response,81,121409,0.0-5.0-3.11,20,3,2022-11-17 00:47:26,1e2a314d68345bcc521be5de8e44be57,,"Mozilla/5.0 (Macintosh; Intel Mac OS X 10_15_7) AppleWebKit/537.36 (KHTML, like Gecko) Chrome/107.0.0.0 Safari/537.36",Macintosh,Chrome,107.0.0.0,OS X,10_15_7,12936,1041,s,,eggflanS.jpg,3,Light_Contradictory,TRUE,
,,,,,fixation,3825,html-keyboard-response,82,122425,0.0-5.0-0.12,20,3,2022-11-17 00:47:26,1e2a314d68345bcc521be5de8e44be57,,"Mozilla/5.0 (Macintosh; Intel Mac OS X 10_15_7) AppleWebKit/537.36 (KHTML, like Gecko) Chrome/107.0.0.0 Safari/537.36",Macintosh,Chrome,107.0.0.0,OS X,10_15_7,12936,null,null,,"<p style=""font-size: 48px;"">+</p>",3,Filler,,
,,,,,sentence,3825,html-keyboard-response,83,123610,0.0-5.0-1.12,20,3,2022-11-17 00:47:26,1e2a314d68345bcc521be5de8e44be57,,"Mozilla/5.0 (Macintosh; Intel Mac OS X 10_15_7) AppleWebKit/537.36 (KHTML, like Gecko) Chrome/107.0.0.0 Safari/537.36",Macintosh,Chrome,107.0.0.0,OS X,10_15_7,12936,1176, ,,A donkey is drinking water.,3,Filler,,
,,,,,fixation,3825,html-keyboard-response,84,124121,0.0-5.0-2.12,20,3,2022-11-17 00:47:26,1e2a314d68345bcc521be5de8e44be57,,"Mozilla/5.0 (Macintosh; Intel Mac OS X 10_15_7) AppleWebKit/537.36 (KHTML, like Gecko) Chrome/107.0.0.0 Safari/537.36",Macintosh,Chrome,107.0.0.0,OS X,10_15_7,12936,null,null,,"<p style=""font-size: 48px;"">+</p>",3,Filler,,
,,,,,picture,3825,image-keyboard-response,85,124689,0.0-5.0-3.12,20,3,2022-11-17 00:47:26,1e2a314d68345bcc521be5de8e44be57,,"Mozilla/5.0 (Macintosh; Intel Mac OS X 10_15_7) AppleWebKit/537.36 (KHTML, like Gecko) Chrome/107.0.0.0 Safari/537.36",Macintosh,Chrome,107.0.0.0,OS X,10_15_7,12936,556,n,,couch.jpg,3,Filler,TRUE,
,,,,,fixation,3825,html-keyboard-response,86,125705,0.0-5.0-0.13,20,3,2022-11-17 00:47:26,1e2a314d68345bcc521be5de8e44be57,,"Mozilla/5.0 (Macintosh; Intel Mac OS X 10_15_7) AppleWebKit/537.36 (KHTML, like Gecko) Chrome/107.0.0.0 Safari/537.36",Macintosh,Chrome,107.0.0.0,OS X,10_15_7,12936,null,null,,"<p style=""font-size: 48px;"">+</p>",3,Filler,,
,,,,,sentence,3825,html-keyboard-response,87,127060,0.0-5.0-1.13,20,3,2022-11-17 00:47:26,1e2a314d68345bcc521be5de8e44be57,,"Mozilla/5.0 (Macintosh; Intel Mac OS X 10_15_7) AppleWebKit/537.36 (KHTML, like Gecko) Chrome/107.0.0.0 Safari/537.36",Macintosh,Chrome,107.0.0.0,OS X,10_15_7,12936,1345, ,,A man is playing with a cat,3,Filler,,
,,,,,fixation,3825,html-keyboard-response,88,127569,0.0-5.0-2.13,20,3,2022-11-17 00:47:26,1e2a314d68345bcc521be5de8e44be57,,"Mozilla/5.0 (Macintosh; Intel Mac OS X 10_15_7) AppleWebKit/537.36 (KHTML, like Gecko) Chrome/107.0.0.0 Safari/537.36",Macintosh,Chrome,107.0.0.0,OS X,10_15_7,12936,null,null,,"<p style=""font-size: 48px;"">+</p>",3,Filler,,
,,,,,picture,3825,image-keyboard-response,89,128644,0.0-5.0-3.13,20,3,2022-11-17 00:47:26,1e2a314d68345bcc521be5de8e44be57,,"Mozilla/5.0 (Macintosh; Intel Mac OS X 10_15_7) AppleWebKit/537.36 (KHTML, like Gecko) Chrome/107.0.0.0 Safari/537.36",Macintosh,Chrome,107.0.0.0,OS X,10_15_7,12936,1068,n,,ceramicplate.jpg,3,Filler,TRUE,
,,,,,fixation,3825,html-keyboard-response,90,129657,0.0-5.0-0.14,20,3,2022-11-17 00:47:26,1e2a314d68345bcc521be5de8e44be57,,"Mozilla/5.0 (Macintosh; Intel Mac OS X 10_15_7) AppleWebKit/537.36 (KHTML, like Gecko) Chrome/107.0.0.0 Safari/537.36",Macintosh,Chrome,107.0.0.0,OS X,10_15_7,12936,null,null,,"<p style=""font-size: 48px;"">+</p>",3,Filler,,
,,,,,sentence,3825,html-keyboard-response,91,130698,0.0-5.0-1.14,20,3,2022-11-17 00:47:26,1e2a314d68345bcc521be5de8e44be57,,"Mozilla/5.0 (Macintosh; Intel Mac OS X 10_15_7) AppleWebKit/537.36 (KHTML, like Gecko) Chrome/107.0.0.0 Safari/537.36",Macintosh,Chrome,107.0.0.0,OS X,10_15_7,12936,1031, ,,A musician is playing a guitar,3,Filler,,
,,,,,fixation,3825,html-keyboard-response,92,131209,0.0-5.0-2.14,20,3,2022-11-17 00:47:26,1e2a314d68345bcc521be5de8e44be57,,"Mozilla/5.0 (Macintosh; Intel Mac OS X 10_15_7) AppleWebKit/537.36 (KHTML, like Gecko) Chrome/107.0.0.0 Safari/537.36",Macintosh,Chrome,107.0.0.0,OS X,10_15_7,12936,null,null,,"<p style=""font-size: 48px;"">+</p>",3,Filler,,
,,,,,picture,3825,image-keyboard-response,93,131922,0.0-5.0-3.14,20,3,2022-11-17 00:47:26,1e2a314d68345bcc521be5de8e44be57,,"Mozilla/5.0 (Macintosh; Intel Mac OS X 10_15_7) AppleWebKit/537.36 (KHTML, like Gecko) Chrome/107.0.0.0 Safari/537.36",Macintosh,Chrome,107.0.0.0,OS X,10_15_7,12936,706,s,,guitar.jpg,3,Filler,TRUE,
,,,,,fixation,3825,html-keyboard-response,94,132937,0.0-5.0-0.15,20,3,2022-11-17 00:47:26,1e2a314d68345bcc521be5de8e44be57,,"Mozilla/5.0 (Macintosh; Intel Mac OS X 10_15_7) AppleWebKit/537.36 (KHTML, like Gecko) Chrome/107.0.0.0 Safari/537.36",Macintosh,Chrome,107.0.0.0,OS X,10_15_7,12936,null,null,,"<p style=""font-size: 48px;"">+</p>",3,Heavy_Contradictory,,
,,,,,sentence,3825,html-keyboard-response,95,134692,0.0-5.0-1.15,20,3,2022-11-17 00:47:26,1e2a314d68345bcc521be5de8e44be57,,"Mozilla/5.0 (Macintosh; Intel Mac OS X 10_15_7) AppleWebKit/537.36 (KHTML, like Gecko) Chrome/107.0.0.0 Safari/537.36",Macintosh,Chrome,107.0.0.0,OS X,10_15_7,12936,1748, ,,A bowling ball dropped and touched a vase,3,Heavy_Contradictory,,
,,,,,fixation,3825,html-keyboard-response,96,135209,0.0-5.0-2.15,20,3,2022-11-17 00:47:26,1e2a314d68345bcc521be5de8e44be57,,"Mozilla/5.0 (Macintosh; Intel Mac OS X 10_15_7) AppleWebKit/537.36 (KHTML, like Gecko) Chrome/107.0.0.0 Safari/537.36",Macintosh,Chrome,107.0.0.0,OS X,10_15_7,12936,null,null,,"<p style=""font-size: 48px;"">+</p>",3,Heavy_Contradictory,,
,,,,,picture,3825,image-keyboard-response,97,136554,0.0-5.0-3.15,20,3,2022-11-17 00:47:26,1e2a314d68345bcc521be5de8e44be57,,"Mozilla/5.0 (Macintosh; Intel Mac OS X 10_15_7) AppleWebKit/537.36 (KHTML, like Gecko) Chrome/107.0.0.0 Safari/537.36",Macintosh,Chrome,107.0.0.0,OS X,10_15_7,12936,1337,s,,vaseS.jpg,3,Heavy_Contradictory,TRUE,
,,,,,fixation,3825,html-keyboard-response,98,137561,0.0-5.0-0.16,20,3,2022-11-17 00:47:26,1e2a314d68345bcc521be5de8e44be57,,"Mozilla/5.0 (Macintosh; Intel Mac OS X 10_15_7) AppleWebKit/537.36 (KHTML, like Gecko) Chrome/107.0.0.0 Safari/537.36",Macintosh,Chrome,107.0.0.0,OS X,10_15_7,12936,null,null,,"<p style=""font-size: 48px;"">+</p>",3,Filler,,
,,,,,sentence,3825,html-keyboard-response,99,138343,0.0-5.0-1.16,20,3,2022-11-17 00:47:26,1e2a314d68345bcc521be5de8e44be57,,"Mozilla/5.0 (Macintosh; Intel Mac OS X 10_15_7) AppleWebKit/537.36 (KHTML, like Gecko) Chrome/107.0.0.0 Safari/537.36",Macintosh,Chrome,107.0.0.0,OS X,10_15_7,12936,773, ,,A nurse is taking a syringe,3,Filler,,
,,,,,fixation,3825,html-keyboard-response,100,138857,0.0-5.0-2.16,20,3,2022-11-17 00:47:26,1e2a314d68345bcc521be5de8e44be57,,"Mozilla/5.0 (Macintosh; Intel Mac OS X 10_15_7) AppleWebKit/537.36 (KHTML, like Gecko) Chrome/107.0.0.0 Safari/537.36",Macintosh,Chrome,107.0.0.0,OS X,10_15_7,12936,null,null,,"<p style=""font-size: 48px;"">+</p>",3,Filler,,
,,,,,picture,3825,image-keyboard-response,101,139593,0.0-5.0-3.16,20,3,2022-11-17 00:47:26,1e2a314d68345bcc521be5de8e44be57,,"Mozilla/5.0 (Macintosh; Intel Mac OS X 10_15_7) AppleWebKit/537.36 (KHTML, like Gecko) Chrome/107.0.0.0 Safari/537.36",Macintosh,Chrome,107.0.0.0,OS X,10_15_7,12936,726,n,,headphones.jpg,3,Filler,TRUE,
,,,,,fixation,3825,html-keyboard-response,102,140609,0.0-5.0-0.17,20,3,2022-11-17 00:47:26,1e2a314d68345bcc521be5de8e44be57,,"Mozilla/5.0 (Macintosh; Intel Mac OS X 10_15_7) AppleWebKit/537.36 (KHTML, like Gecko) Chrome/107.0.0.0 Safari/537.36",Macintosh,Chrome,107.0.0.0,OS X,10_15_7,12936,null,null,,"<p style=""font-size: 48px;"">+</p>",3,Light_Matched,,
,,,,,sentence,3825,html-keyboard-response,103,141704,0.0-5.0-1.17,20,3,2022-11-17 00:47:26,1e2a314d68345bcc521be5de8e44be57,,"Mozilla/5.0 (Macintosh; Intel Mac OS X 10_15_7) AppleWebKit/537.36 (KHTML, like Gecko) Chrome/107.0.0.0 Safari/537.36",Macintosh,Chrome,107.0.0.0,OS X,10_15_7,12936,1087, ,,A balloon dropped and touched an egg,3,Light_Matched,,
,,,,,fixation,3825,html-keyboard-response,104,142217,0.0-5.0-2.17,20,3,2022-11-17 00:47:26,1e2a314d68345bcc521be5de8e44be57,,"Mozilla/5.0 (Macintosh; Intel Mac OS X 10_15_7) AppleWebKit/537.36 (KHTML, like Gecko) Chrome/107.0.0.0 Safari/537.36",Macintosh,Chrome,107.0.0.0,OS X,10_15_7,12936,null,null,,"<p style=""font-size: 48px;"">+</p>",3,Light_Matched,,
,,,,,picture,3825,image-keyboard-response,105,142740,0.0-5.0-3.17,20,3,2022-11-17 00:47:26,1e2a314d68345bcc521be5de8e44be57,,"Mozilla/5.0 (Macintosh; Intel Mac OS X 10_15_7) AppleWebKit/537.36 (KHTML, like Gecko) Chrome/107.0.0.0 Safari/537.36",Macintosh,Chrome,107.0.0.0,OS X,10_15_7,12936,514,s,,eggS.jpg,3,Light_Matched,TRUE,
,,,,,fixation,3825,html-keyboard-response,106,143753,0.0-5.0-0.18,20,3,2022-11-17 00:47:26,1e2a314d68345bcc521be5de8e44be57,,"Mozilla/5.0 (Macintosh; Intel Mac OS X 10_15_7) AppleWebKit/537.36 (KHTML, like Gecko) Chrome/107.0.0.0 Safari/537.36",Macintosh,Chrome,107.0.0.0,OS X,10_15_7,12936,null,null,,"<p style=""font-size: 48px;"">+</p>",3,Filler,,
,,,,,sentence,3825,html-keyboard-response,107,144682,0.0-5.0-1.18,20,3,2022-11-17 00:47:26,1e2a314d68345bcc521be5de8e44be57,,"Mozilla/5.0 (Macintosh; Intel Mac OS X 10_15_7) AppleWebKit/537.36 (KHTML, like Gecko) Chrome/107.0.0.0 Safari/537.36",Macintosh,Chrome,107.0.0.0,OS X,10_15_7,12936,920, ,,A watch was placed on the laptop,3,Filler,,
,,,,,fixation,3825,html-keyboard-response,108,145201,0.0-5.0-2.18,20,3,2022-11-17 00:47:26,1e2a314d68345bcc521be5de8e44be57,,"Mozilla/5.0 (Macintosh; Intel Mac OS X 10_15_7) AppleWebKit/537.36 (KHTML, like Gecko) Chrome/107.0.0.0 Safari/537.36",Macintosh,Chrome,107.0.0.0,OS X,10_15_7,12936,null,null,,"<p style=""font-size: 48px;"">+</p>",3,Filler,,
,,,,,picture,3825,image-keyboard-response,109,146277,0.0-5.0-3.18,20,3,2022-11-17 00:47:26,1e2a314d68345bcc521be5de8e44be57,,"Mozilla/5.0 (Macintosh; Intel Mac OS X 10_15_7) AppleWebKit/537.36 (KHTML, like Gecko) Chrome/107.0.0.0 Safari/537.36",Macintosh,Chrome,107.0.0.0,OS X,10_15_7,12936,1067,n,,bow.jpg,3,Filler,TRUE,
,,,,,fixation,3825,html-keyboard-response,110,147289,0.0-5.0-0.19,20,3,2022-11-17 00:47:26,1e2a314d68345bcc521be5de8e44be57,,"Mozilla/5.0 (Macintosh; Intel Mac OS X 10_15_7) AppleWebKit/537.36 (KHTML, like Gecko) Chrome/107.0.0.0 Safari/537.36",Macintosh,Chrome,107.0.0.0,OS X,10_15_7,12936,null,null,,"<p style=""font-size: 48px;"">+</p>",3,Filler,,
,,,,,sentence,3825,html-keyboard-response,111,148432,0.0-5.0-1.19,20,3,2022-11-17 00:47:26,1e2a314d68345bcc521be5de8e44be57,,"Mozilla/5.0 (Macintosh; Intel Mac OS X 10_15_7) AppleWebKit/537.36 (KHTML, like Gecko) Chrome/107.0.0.0 Safari/537.36",Macintosh,Chrome,107.0.0.0,OS X,10_15_7,12936,1134, ,,A zebra is playing with a horse,3,Filler,,
,,,,,fixation,3825,html-keyboard-response,112,148945,0.0-5.0-2.19,20,3,2022-11-17 00:47:26,1e2a314d68345bcc521be5de8e44be57,,"Mozilla/5.0 (Macintosh; Intel Mac OS X 10_15_7) AppleWebKit/537.36 (KHTML, like Gecko) Chrome/107.0.0.0 Safari/537.36",Macintosh,Chrome,107.0.0.0,OS X,10_15_7,12936,null,null,,"<p style=""font-size: 48px;"">+</p>",3,Filler,,
,,,,,picture,3825,image-keyboard-response,113,149732,0.0-5.0-3.19,20,3,2022-11-17 00:47:26,1e2a314d68345bcc521be5de8e44be57,,"Mozilla/5.0 (Macintosh; Intel Mac OS X 10_15_7) AppleWebKit/537.36 (KHTML, like Gecko) Chrome/107.0.0.0 Safari/537.36",Macintosh,Chrome,107.0.0.0,OS X,10_15_7,12936,777,n,,watch.jpg,3,Filler,TRUE,
,,,,,fixation,3825,html-keyboard-response,114,150748,0.0-5.0-0.20,20,3,2022-11-17 00:47:26,1e2a314d68345bcc521be5de8e44be57,,"Mozilla/5.0 (Macintosh; Intel Mac OS X 10_15_7) AppleWebKit/537.36 (KHTML, like Gecko) Chrome/107.0.0.0 Safari/537.36",Macintosh,Chrome,107.0.0.0,OS X,10_15_7,12936,null,null,,"<p style=""font-size: 48px;"">+</p>",3,Light_Matched,,
,,,,,sentence,3825,html-keyboard-response,115,152175,0.0-5.0-1.20,20,3,2022-11-17 00:47:26,1e2a314d68345bcc521be5de8e44be57,,"Mozilla/5.0 (Macintosh; Intel Mac OS X 10_15_7) AppleWebKit/537.36 (KHTML, like Gecko) Chrome/107.0.0.0 Safari/537.36",Macintosh,Chrome,107.0.0.0,OS X,10_15_7,12936,1417, ,,A balloon dropped and touched a porcelain figure,3,Light_Matched,,
,,,,,fixation,3825,html-keyboard-response,116,152689,0.0-5.0-2.20,20,3,2022-11-17 00:47:26,1e2a314d68345bcc521be5de8e44be57,,"Mozilla/5.0 (Macintosh; Intel Mac OS X 10_15_7) AppleWebKit/537.36 (KHTML, like Gecko) Chrome/107.0.0.0 Safari/537.36",Macintosh,Chrome,107.0.0.0,OS X,10_15_7,12936,null,null,,"<p style=""font-size: 48px;"">+</p>",3,Light_Matched,,
,,,,,picture,3825,image-keyboard-response,117,153606,0.0-5.0-3.20,20,3,2022-11-17 00:47:26,1e2a314d68345bcc521be5de8e44be57,,"Mozilla/5.0 (Macintosh; Intel Mac OS X 10_15_7) AppleWebKit/537.36 (KHTML, like Gecko) Chrome/107.0.0.0 Safari/537.36",Macintosh,Chrome,107.0.0.0,OS X,10_15_7,12936,904,s,,figureS.jpg,3,Light_Matched,TRUE,
,,,,,fixation,3825,html-keyboard-response,118,154625,0.0-5.0-0.21,20,3,2022-11-17 00:47:26,1e2a314d68345bcc521be5de8e44be57,,"Mozilla/5.0 (Macintosh; Intel Mac OS X 10_15_7) AppleWebKit/537.36 (KHTML, like Gecko) Chrome/107.0.0.0 Safari/537.36",Macintosh,Chrome,107.0.0.0,OS X,10_15_7,12936,null,null,,"<p style=""font-size: 48px;"">+</p>",3,Filler,,
,,,,,sentence,3825,html-keyboard-response,119,155395,0.0-5.0-1.21,20,3,2022-11-17 00:47:26,1e2a314d68345bcc521be5de8e44be57,,"Mozilla/5.0 (Macintosh; Intel Mac OS X 10_15_7) AppleWebKit/537.36 (KHTML, like Gecko) Chrome/107.0.0.0 Safari/537.36",Macintosh,Chrome,107.0.0.0,OS X,10_15_7,12936,759, ,,A fork was placed on the plate,3,Filler,,
,,,,,fixation,3825,html-keyboard-response,120,155913,0.0-5.0-2.21,20,3,2022-11-17 00:47:26,1e2a314d68345bcc521be5de8e44be57,,"Mozilla/5.0 (Macintosh; Intel Mac OS X 10_15_7) AppleWebKit/537.36 (KHTML, like Gecko) Chrome/107.0.0.0 Safari/537.36",Macintosh,Chrome,107.0.0.0,OS X,10_15_7,12936,null,null,,"<p style=""font-size: 48px;"">+</p>",3,Filler,,
,,,,,picture,3825,image-keyboard-response,121,156621,0.0-5.0-3.21,20,3,2022-11-17 00:47:26,1e2a314d68345bcc521be5de8e44be57,,"Mozilla/5.0 (Macintosh; Intel Mac OS X 10_15_7) AppleWebKit/537.36 (KHTML, like Gecko) Chrome/107.0.0.0 Safari/537.36",Macintosh,Chrome,107.0.0.0,OS X,10_15_7,12936,695,s,,plate.jpg,3,Filler,TRUE,
,,,,,fixation,3825,html-keyboard-response,122,157633,0.0-5.0-0.22,20,3,2022-11-17 00:47:26,1e2a314d68345bcc521be5de8e44be57,,"Mozilla/5.0 (Macintosh; Intel Mac OS X 10_15_7) AppleWebKit/537.36 (KHTML, like Gecko) Chrome/107.0.0.0 Safari/537.36",Macintosh,Chrome,107.0.0.0,OS X,10_15_7,12936,null,null,,"<p style=""font-size: 48px;"">+</p>",3,Filler,,
,,,,,sentence,3825,html-keyboard-response,123,159216,0.0-5.0-1.22,20,3,2022-11-17 00:47:26,1e2a314d68345bcc521be5de8e44be57,,"Mozilla/5.0 (Macintosh; Intel Mac OS X 10_15_7) AppleWebKit/537.36 (KHTML, like Gecko) Chrome/107.0.0.0 Safari/537.36",Macintosh,Chrome,107.0.0.0,OS X,10_15_7,12936,1572, ,,A pilot is reading a book,3,Filler,,
,,,,,fixation,3825,html-keyboard-response,124,159729,0.0-5.0-2.22,20,3,2022-11-17 00:47:26,1e2a314d68345bcc521be5de8e44be57,,"Mozilla/5.0 (Macintosh; Intel Mac OS X 10_15_7) AppleWebKit/537.36 (KHTML, like Gecko) Chrome/107.0.0.0 Safari/537.36",Macintosh,Chrome,107.0.0.0,OS X,10_15_7,12936,null,null,,"<p style=""font-size: 48px;"">+</p>",3,Filler,,
,,,,,picture,3825,image-keyboard-response,125,160380,0.0-5.0-3.22,20,3,2022-11-17 00:47:26,1e2a314d68345bcc521be5de8e44be57,,"Mozilla/5.0 (Macintosh; Intel Mac OS X 10_15_7) AppleWebKit/537.36 (KHTML, like Gecko) Chrome/107.0.0.0 Safari/537.36",Macintosh,Chrome,107.0.0.0,OS X,10_15_7,12936,639,n,,spoon.jpg,3,Filler,TRUE,
,,,,,fixation,3825,html-keyboard-response,126,161393,0.0-5.0-0.23,20,3,2022-11-17 00:47:26,1e2a314d68345bcc521be5de8e44be57,,"Mozilla/5.0 (Macintosh; Intel Mac OS X 10_15_7) AppleWebKit/537.36 (KHTML, like Gecko) Chrome/107.0.0.0 Safari/537.36",Macintosh,Chrome,107.0.0.0,OS X,10_15_7,12936,null,null,,"<p style=""font-size: 48px;"">+</p>",3,Filler,,
,,,,,sentence,3825,html-keyboard-response,127,161953,0.0-5.0-1.23,20,3,2022-11-17 00:47:26,1e2a314d68345bcc521be5de8e44be57,,"Mozilla/5.0 (Macintosh; Intel Mac OS X 10_15_7) AppleWebKit/537.36 (KHTML, like Gecko) Chrome/107.0.0.0 Safari/537.36",Macintosh,Chrome,107.0.0.0,OS X,10_15_7,12936,550, ,,A thief is stealing a wallet,3,Filler,,
,,,,,fixation,3825,html-keyboard-response,128,162465,0.0-5.0-2.23,20,3,2022-11-17 00:47:26,1e2a314d68345bcc521be5de8e44be57,,"Mozilla/5.0 (Macintosh; Intel Mac OS X 10_15_7) AppleWebKit/537.36 (KHTML, like Gecko) Chrome/107.0.0.0 Safari/537.36",Macintosh,Chrome,107.0.0.0,OS X,10_15_7,12936,null,null,,"<p style=""font-size: 48px;"">+</p>",3,Filler,,
,,,,,picture,3825,image-keyboard-response,129,162961,0.0-5.0-3.23,20,3,2022-11-17 00:47:26,1e2a314d68345bcc521be5de8e44be57,,"Mozilla/5.0 (Macintosh; Intel Mac OS X 10_15_7) AppleWebKit/537.36 (KHTML, like Gecko) Chrome/107.0.0.0 Safari/537.36",Macintosh,Chrome,107.0.0.0,OS X,10_15_7,12936,487,n,,teddybear.jpg,3,Filler,TRUE,
,,,,,fixation,3825,html-keyboard-response,130,163977,0.0-5.0-0.24,20,3,2022-11-17 00:47:26,1e2a314d68345bcc521be5de8e44be57,,"Mozilla/5.0 (Macintosh; Intel Mac OS X 10_15_7) AppleWebKit/537.36 (KHTML, like Gecko) Chrome/107.0.0.0 Safari/537.36",Macintosh,Chrome,107.0.0.0,OS X,10_15_7,12936,null,null,,"<p style=""font-size: 48px;"">+</p>",3,Filler,,
,,,,,sentence,3825,html-keyboard-response,131,164841,0.0-5.0-1.24,20,3,2022-11-17 00:47:26,1e2a314d68345bcc521be5de8e44be57,,"Mozilla/5.0 (Macintosh; Intel Mac OS X 10_15_7) AppleWebKit/537.36 (KHTML, like Gecko) Chrome/107.0.0.0 Safari/537.36",Macintosh,Chrome,107.0.0.0,OS X,10_15_7,12936,853, ,,A cushion was placed on the magazine,3,Filler,,
,,,,,fixation,3825,html-keyboard-response,132,165353,0.0-5.0-2.24,20,3,2022-11-17 00:47:26,1e2a314d68345bcc521be5de8e44be57,,"Mozilla/5.0 (Macintosh; Intel Mac OS X 10_15_7) AppleWebKit/537.36 (KHTML, like Gecko) Chrome/107.0.0.0 Safari/537.36",Macintosh,Chrome,107.0.0.0,OS X,10_15_7,12936,null,null,,"<p style=""font-size: 48px;"">+</p>",3,Filler,,
,,,,,picture,3825,image-keyboard-response,133,166106,0.0-5.0-3.24,20,3,2022-11-17 00:47:26,1e2a314d68345bcc521be5de8e44be57,,"Mozilla/5.0 (Macintosh; Intel Mac OS X 10_15_7) AppleWebKit/537.36 (KHTML, like Gecko) Chrome/107.0.0.0 Safari/537.36",Macintosh,Chrome,107.0.0.0,OS X,10_15_7,12936,741,n,,box.jpg,3,Filler,TRUE,
,,,,,fixation,3825,html-keyboard-response,134,167121,0.0-5.0-0.25,20,3,2022-11-17 00:47:26,1e2a314d68345bcc521be5de8e44be57,,"Mozilla/5.0 (Macintosh; Intel Mac OS X 10_15_7) AppleWebKit/537.36 (KHTML, like Gecko) Chrome/107.0.0.0 Safari/537.36",Macintosh,Chrome,107.0.0.0,OS X,10_15_7,12936,null,null,,"<p style=""font-size: 48px;"">+</p>",3,Filler,,
,,,,,sentence,3825,html-keyboard-response,135,168546,0.0-5.0-1.25,20,3,2022-11-17 00:47:26,1e2a314d68345bcc521be5de8e44be57,,"Mozilla/5.0 (Macintosh; Intel Mac OS X 10_15_7) AppleWebKit/537.36 (KHTML, like Gecko) Chrome/107.0.0.0 Safari/537.36",Macintosh,Chrome,107.0.0.0,OS X,10_15_7,12936,1416, ,,An astronaut is putting on a space suit,3,Filler,,
,,,,,fixation,3825,html-keyboard-response,136,169065,0.0-5.0-2.25,20,3,2022-11-17 00:47:26,1e2a314d68345bcc521be5de8e44be57,,"Mozilla/5.0 (Macintosh; Intel Mac OS X 10_15_7) AppleWebKit/537.36 (KHTML, like Gecko) Chrome/107.0.0.0 Safari/537.36",Macintosh,Chrome,107.0.0.0,OS X,10_15_7,12936,null,null,,"<p style=""font-size: 48px;"">+</p>",3,Filler,,
,,,,,picture,3825,image-keyboard-response,137,169683,0.0-5.0-3.25,20,3,2022-11-17 00:47:26,1e2a314d68345bcc521be5de8e44be57,,"Mozilla/5.0 (Macintosh; Intel Mac OS X 10_15_7) AppleWebKit/537.36 (KHTML, like Gecko) Chrome/107.0.0.0 Safari/537.36",Macintosh,Chrome,107.0.0.0,OS X,10_15_7,12936,607,s,,spacesuit.jpg,3,Filler,TRUE,
,,,,,fixation,3825,html-keyboard-response,138,170705,0.0-5.0-0.26,20,3,2022-11-17 00:47:26,1e2a314d68345bcc521be5de8e44be57,,"Mozilla/5.0 (Macintosh; Intel Mac OS X 10_15_7) AppleWebKit/537.36 (KHTML, like Gecko) Chrome/107.0.0.0 Safari/537.36",Macintosh,Chrome,107.0.0.0,OS X,10_15_7,12936,null,null,,"<p style=""font-size: 48px;"">+</p>",3,Light_Contradictory,,
,,,,,sentence,3825,html-keyboard-response,139,171482,0.0-5.0-1.26,20,3,2022-11-17 00:47:26,1e2a314d68345bcc521be5de8e44be57,,"Mozilla/5.0 (Macintosh; Intel Mac OS X 10_15_7) AppleWebKit/537.36 (KHTML, like Gecko) Chrome/107.0.0.0 Safari/537.36",Macintosh,Chrome,107.0.0.0,OS X,10_15_7,12936,767, ,,A balloon dropped and smashed a banana,3,Light_Contradictory,,
,,,,,fixation,3825,html-keyboard-response,140,171993,0.0-5.0-2.26,20,3,2022-11-17 00:47:26,1e2a314d68345bcc521be5de8e44be57,,"Mozilla/5.0 (Macintosh; Intel Mac OS X 10_15_7) AppleWebKit/537.36 (KHTML, like Gecko) Chrome/107.0.0.0 Safari/537.36",Macintosh,Chrome,107.0.0.0,OS X,10_15_7,12936,null,null,,"<p style=""font-size: 48px;"">+</p>",3,Light_Contradictory,,
,,,,,picture,3825,image-keyboard-response,141,172535,0.0-5.0-3.26,20,3,2022-11-17 00:47:26,1e2a314d68345bcc521be5de8e44be57,,"Mozilla/5.0 (Macintosh; Intel Mac OS X 10_15_7) AppleWebKit/537.36 (KHTML, like Gecko) Chrome/107.0.0.0 Safari/537.36",Macintosh,Chrome,107.0.0.0,OS X,10_15_7,12936,531,s,,bananaS.jpg,3,Light_Contradictory,TRUE,
,,,,,fixation,3825,html-keyboard-response,142,173553,0.0-5.0-0.27,20,3,2022-11-17 00:47:26,1e2a314d68345bcc521be5de8e44be57,,"Mozilla/5.0 (Macintosh; Intel Mac OS X 10_15_7) AppleWebKit/537.36 (KHTML, like Gecko) Chrome/107.0.0.0 Safari/537.36",Macintosh,Chrome,107.0.0.0,OS X,10_15_7,12936,null,null,,"<p style=""font-size: 48px;"">+</p>",3,Heavy_Matched,,
,,,,,sentence,3825,html-keyboard-response,143,174321,0.0-5.0-1.27,20,3,2022-11-17 00:47:26,1e2a314d68345bcc521be5de8e44be57,,"Mozilla/5.0 (Macintosh; Intel Mac OS X 10_15_7) AppleWebKit/537.36 (KHTML, like Gecko) Chrome/107.0.0.0 Safari/537.36",Macintosh,Chrome,107.0.0.0,OS X,10_15_7,12936,758, ,,A bowling ball dropped and smashed an iPhone,3,Heavy_Matched,,
,,,,,fixation,3825,html-keyboard-response,144,174841,0.0-5.0-2.27,20,3,2022-11-17 00:47:26,1e2a314d68345bcc521be5de8e44be57,,"Mozilla/5.0 (Macintosh; Intel Mac OS X 10_15_7) AppleWebKit/537.36 (KHTML, like Gecko) Chrome/107.0.0.0 Safari/537.36",Macintosh,Chrome,107.0.0.0,OS X,10_15_7,12936,null,null,,"<p style=""font-size: 48px;"">+</p>",3,Heavy_Matched,,
,,,,,picture,3825,image-keyboard-response,145,175499,0.0-5.0-3.27,20,3,2022-11-17 00:47:26,1e2a314d68345bcc521be5de8e44be57,,"Mozilla/5.0 (Macintosh; Intel Mac OS X 10_15_7) AppleWebKit/537.36 (KHTML, like Gecko) Chrome/107.0.0.0 Safari/537.36",Macintosh,Chrome,107.0.0.0,OS X,10_15_7,12936,648,s,,iphoneS.png,3,Heavy_Matched,TRUE,
,,,,,fixation,3825,html-keyboard-response,146,176513,0.0-5.0-0.28,20,3,2022-11-17 00:47:26,1e2a314d68345bcc521be5de8e44be57,,"Mozilla/5.0 (Macintosh; Intel Mac OS X 10_15_7) AppleWebKit/537.36 (KHTML, like Gecko) Chrome/107.0.0.0 Safari/537.36",Macintosh,Chrome,107.0.0.0,OS X,10_15_7,12936,null,null,,"<p style=""font-size: 48px;"">+</p>",3,Heavy_Contradictory,,
,,,,,sentence,3825,html-keyboard-response,147,177293,0.0-5.0-1.28,20,3,2022-11-17 00:47:26,1e2a314d68345bcc521be5de8e44be57,,"Mozilla/5.0 (Macintosh; Intel Mac OS X 10_15_7) AppleWebKit/537.36 (KHTML, like Gecko) Chrome/107.0.0.0 Safari/537.36",Macintosh,Chrome,107.0.0.0,OS X,10_15_7,12936,769, ,,A bowling ball dropped and touched a tomato,3,Heavy_Contradictory,,
,,,,,fixation,3825,html-keyboard-response,148,177809,0.0-5.0-2.28,20,3,2022-11-17 00:47:26,1e2a314d68345bcc521be5de8e44be57,,"Mozilla/5.0 (Macintosh; Intel Mac OS X 10_15_7) AppleWebKit/537.36 (KHTML, like Gecko) Chrome/107.0.0.0 Safari/537.36",Macintosh,Chrome,107.0.0.0,OS X,10_15_7,12936,null,null,,"<p style=""font-size: 48px;"">+</p>",3,Heavy_Contradictory,,
,,,,,picture,3825,image-keyboard-response,149,178525,0.0-5.0-3.28,20,3,2022-11-17 00:47:26,1e2a314d68345bcc521be5de8e44be57,,"Mozilla/5.0 (Macintosh; Intel Mac OS X 10_15_7) AppleWebKit/537.36 (KHTML, like Gecko) Chrome/107.0.0.0 Safari/537.36",Macintosh,Chrome,107.0.0.0,OS X,10_15_7,12936,705,s,,tomatoS.jpg,3,Heavy_Contradictory,TRUE,
,,,,,fixation,3825,html-keyboard-response,150,179537,0.0-5.0-0.29,20,3,2022-11-17 00:47:26,1e2a314d68345bcc521be5de8e44be57,,"Mozilla/5.0 (Macintosh; Intel Mac OS X 10_15_7) AppleWebKit/537.36 (KHTML, like Gecko) Chrome/107.0.0.0 Safari/537.36",Macintosh,Chrome,107.0.0.0,OS X,10_15_7,12936,null,null,,"<p style=""font-size: 48px;"">+</p>",3,Filler,,
,,,,,sentence,3825,html-keyboard-response,151,180386,0.0-5.0-1.29,20,3,2022-11-17 00:47:26,1e2a314d68345bcc521be5de8e44be57,,"Mozilla/5.0 (Macintosh; Intel Mac OS X 10_15_7) AppleWebKit/537.36 (KHTML, like Gecko) Chrome/107.0.0.0 Safari/537.36",Macintosh,Chrome,107.0.0.0,OS X,10_15_7,12936,837, ,,A dentist is drinking a can of cola,3,Filler,,
,,,,,fixation,3825,html-keyboard-response,152,180905,0.0-5.0-2.29,20,3,2022-11-17 00:47:26,1e2a314d68345bcc521be5de8e44be57,,"Mozilla/5.0 (Macintosh; Intel Mac OS X 10_15_7) AppleWebKit/537.36 (KHTML, like Gecko) Chrome/107.0.0.0 Safari/537.36",Macintosh,Chrome,107.0.0.0,OS X,10_15_7,12936,null,null,,"<p style=""font-size: 48px;"">+</p>",3,Filler,,
,,,,,picture,3825,image-keyboard-response,153,181380,0.0-5.0-3.29,20,3,2022-11-17 00:47:26,1e2a314d68345bcc521be5de8e44be57,,"Mozilla/5.0 (Macintosh; Intel Mac OS X 10_15_7) AppleWebKit/537.36 (KHTML, like Gecko) Chrome/107.0.0.0 Safari/537.36",Macintosh,Chrome,107.0.0.0,OS X,10_15_7,12936,464,n,,doll.jpg,3,Filler,TRUE,
,,,,,fixation,3825,html-keyboard-response,154,182393,0.0-5.0-0.30,20,3,2022-11-17 00:47:26,1e2a314d68345bcc521be5de8e44be57,,"Mozilla/5.0 (Macintosh; Intel Mac OS X 10_15_7) AppleWebKit/537.36 (KHTML, like Gecko) Chrome/107.0.0.0 Safari/537.36",Macintosh,Chrome,107.0.0.0,OS X,10_15_7,12936,null,null,,"<p style=""font-size: 48px;"">+</p>",3,Filler,,
,,,,,sentence,3825,html-keyboard-response,155,183442,0.0-5.0-1.30,20,3,2022-11-17 00:47:26,1e2a314d68345bcc521be5de8e44be57,,"Mozilla/5.0 (Macintosh; Intel Mac OS X 10_15_7) AppleWebKit/537.36 (KHTML, like Gecko) Chrome/107.0.0.0 Safari/537.36",Macintosh,Chrome,107.0.0.0,OS X,10_15_7,12936,1039, ,,A man is shaving his beard,3,Filler,,
,,,,,fixation,3825,html-keyboard-response,156,183953,0.0-5.0-2.30,20,3,2022-11-17 00:47:26,1e2a314d68345bcc521be5de8e44be57,,"Mozilla/5.0 (Macintosh; Intel Mac OS X 10_15_7) AppleWebKit/537.36 (KHTML, like Gecko) Chrome/107.0.0.0 Safari/537.36",Macintosh,Chrome,107.0.0.0,OS X,10_15_7,12936,null,null,,"<p style=""font-size: 48px;"">+</p>",3,Filler,,
,,,,,picture,3825,image-keyboard-response,157,184472,0.0-5.0-3.30,20,3,2022-11-17 00:47:26,1e2a314d68345bcc521be5de8e44be57,,"Mozilla/5.0 (Macintosh; Intel Mac OS X 10_15_7) AppleWebKit/537.36 (KHTML, like Gecko) Chrome/107.0.0.0 Safari/537.36",Macintosh,Chrome,107.0.0.0,OS X,10_15_7,12936,507,n,,clock.jpg,3,Filler,TRUE,
,,,,,fixation,3825,html-keyboard-response,158,185489,0.0-5.0-0.31,20,3,2022-11-17 00:47:26,1e2a314d68345bcc521be5de8e44be57,,"Mozilla/5.0 (Macintosh; Intel Mac OS X 10_15_7) AppleWebKit/537.36 (KHTML, like Gecko) Chrome/107.0.0.0 Safari/537.36",Macintosh,Chrome,107.0.0.0,OS X,10_15_7,12936,null,null,,"<p style=""font-size: 48px;"">+</p>",3,Filler,,
,,,,,sentence,3825,html-keyboard-response,159,186194,0.0-5.0-1.31,20,3,2022-11-17 00:47:26,1e2a314d68345bcc521be5de8e44be57,,"Mozilla/5.0 (Macintosh; Intel Mac OS X 10_15_7) AppleWebKit/537.36 (KHTML, like Gecko) Chrome/107.0.0.0 Safari/537.36",Macintosh,Chrome,107.0.0.0,OS X,10_15_7,12936,694, ,,A ring was placed on the newspaper,3,Filler,,
,,,,,fixation,3825,html-keyboard-response,160,186713,0.0-5.0-2.31,20,3,2022-11-17 00:47:26,1e2a314d68345bcc521be5de8e44be57,,"Mozilla/5.0 (Macintosh; Intel Mac OS X 10_15_7) AppleWebKit/537.36 (KHTML, like Gecko) Chrome/107.0.0.0 Safari/537.36",Macintosh,Chrome,107.0.0.0,OS X,10_15_7,12936,null,null,,"<p style=""font-size: 48px;"">+</p>",3,Filler,,
,,,,,picture,3825,image-keyboard-response,161,187257,0.0-5.0-3.31,20,3,2022-11-17 00:47:26,1e2a314d68345bcc521be5de8e44be57,,"Mozilla/5.0 (Macintosh; Intel Mac OS X 10_15_7) AppleWebKit/537.36 (KHTML, like Gecko) Chrome/107.0.0.0 Safari/537.36",Macintosh,Chrome,107.0.0.0,OS X,10_15_7,12936,530,n,,cat.jpg,3,Filler,TRUE,
,,,,,fixation,3825,html-keyboard-response,162,188273,0.0-5.0-0.32,20,3,2022-11-17 00:47:26,1e2a314d68345bcc521be5de8e44be57,,"Mozilla/5.0 (Macintosh; Intel Mac OS X 10_15_7) AppleWebKit/537.36 (KHTML, like Gecko) Chrome/107.0.0.0 Safari/537.36",Macintosh,Chrome,107.0.0.0,OS X,10_15_7,12936,null,null,,"<p style=""font-size: 48px;"">+</p>",3,Light_Matched,,
,,,,,sentence,3825,html-keyboard-response,163,188966,0.0-5.0-1.32,20,3,2022-11-17 00:47:26,1e2a314d68345bcc521be5de8e44be57,,"Mozilla/5.0 (Macintosh; Intel Mac OS X 10_15_7) AppleWebKit/537.36 (KHTML, like Gecko) Chrome/107.0.0.0 Safari/537.36",Macintosh,Chrome,107.0.0.0,OS X,10_15_7,12936,681, ,,A balloon dropped and touched a TV,3,Light_Matched,,
,,,,,fixation,3825,html-keyboard-response,164,189481,0.0-5.0-2.32,20,3,2022-11-17 00:47:26,1e2a314d68345bcc521be5de8e44be57,,"Mozilla/5.0 (Macintosh; Intel Mac OS X 10_15_7) AppleWebKit/537.36 (KHTML, like Gecko) Chrome/107.0.0.0 Safari/537.36",Macintosh,Chrome,107.0.0.0,OS X,10_15_7,12936,null,null,,"<p style=""font-size: 48px;"">+</p>",3,Light_Matched,,
,,,,,picture,3825,image-keyboard-response,165,190014,0.0-5.0-3.32,20,3,2022-11-17 00:47:26,1e2a314d68345bcc521be5de8e44be57,,"Mozilla/5.0 (Macintosh; Intel Mac OS X 10_15_7) AppleWebKit/537.36 (KHTML, like Gecko) Chrome/107.0.0.0 Safari/537.36",Macintosh,Chrome,107.0.0.0,OS X,10_15_7,12936,520,s,,tvS.jpg,3,Light_Matched,TRUE,
,,,,,fixation,3825,html-keyboard-response,166,191033,0.0-5.0-0.33,20,3,2022-11-17 00:47:26,1e2a314d68345bcc521be5de8e44be57,,"Mozilla/5.0 (Macintosh; Intel Mac OS X 10_15_7) AppleWebKit/537.36 (KHTML, like Gecko) Chrome/107.0.0.0 Safari/537.36",Macintosh,Chrome,107.0.0.0,OS X,10_15_7,12936,null,null,,"<p style=""font-size: 48px;"">+</p>",3,Light_Contradictory,,
,,,,,sentence,3825,html-keyboard-response,167,191712,0.0-5.0-1.33,20,3,2022-11-17 00:47:26,1e2a314d68345bcc521be5de8e44be57,,"Mozilla/5.0 (Macintosh; Intel Mac OS X 10_15_7) AppleWebKit/537.36 (KHTML, like Gecko) Chrome/107.0.0.0 Safari/537.36",Macintosh,Chrome,107.0.0.0,OS X,10_15_7,12936,667, ,,A balloon dropped and smashed glasses,3,Light_Contradictory,,
,,,,,fixation,3825,html-keyboard-response,168,192225,0.0-5.0-2.33,20,3,2022-11-17 00:47:26,1e2a314d68345bcc521be5de8e44be57,,"Mozilla/5.0 (Macintosh; Intel Mac OS X 10_15_7) AppleWebKit/537.36 (KHTML, like Gecko) Chrome/107.0.0.0 Safari/537.36",Macintosh,Chrome,107.0.0.0,OS X,10_15_7,12936,null,null,,"<p style=""font-size: 48px;"">+</p>",3,Light_Contradictory,,
,,,,,picture,3825,image-keyboard-response,169,192759,0.0-5.0-3.33,20,3,2022-11-17 00:47:26,1e2a314d68345bcc521be5de8e44be57,,"Mozilla/5.0 (Macintosh; Intel Mac OS X 10_15_7) AppleWebKit/537.36 (KHTML, like Gecko) Chrome/107.0.0.0 Safari/537.36",Macintosh,Chrome,107.0.0.0,OS X,10_15_7,12936,522,n,,glassesS.jpg,3,Light_Contradictory,FALSE,
,,,,,fixation,3825,html-keyboard-response,170,193777,0.0-5.0-0.34,20,3,2022-11-17 00:47:26,1e2a314d68345bcc521be5de8e44be57,,"Mozilla/5.0 (Macintosh; Intel Mac OS X 10_15_7) AppleWebKit/537.36 (KHTML, like Gecko) Chrome/107.0.0.0 Safari/537.36",Macintosh,Chrome,107.0.0.0,OS X,10_15_7,12936,null,null,,"<p style=""font-size: 48px;"">+</p>",3,Heavy_Matched,,
,,,,,sentence,3825,html-keyboard-response,171,194257,0.0-5.0-1.34,20,3,2022-11-17 00:47:26,1e2a314d68345bcc521be5de8e44be57,,"Mozilla/5.0 (Macintosh; Intel Mac OS X 10_15_7) AppleWebKit/537.36 (KHTML, like Gecko) Chrome/107.0.0.0 Safari/537.36",Macintosh,Chrome,107.0.0.0,OS X,10_15_7,12936,467, ,,A bowling ball dropped and smashed a donut,3,Heavy_Matched,,
,,,,,fixation,3825,html-keyboard-response,172,194778,0.0-5.0-2.34,20,3,2022-11-17 00:47:26,1e2a314d68345bcc521be5de8e44be57,,"Mozilla/5.0 (Macintosh; Intel Mac OS X 10_15_7) AppleWebKit/537.36 (KHTML, like Gecko) Chrome/107.0.0.0 Safari/537.36",Macintosh,Chrome,107.0.0.0,OS X,10_15_7,12936,null,null,,"<p style=""font-size: 48px;"">+</p>",3,Heavy_Matched,,
,,,,,picture,3825,image-keyboard-response,173,195181,0.0-5.0-3.34,20,3,2022-11-17 00:47:26,1e2a314d68345bcc521be5de8e44be57,,"Mozilla/5.0 (Macintosh; Intel Mac OS X 10_15_7) AppleWebKit/537.36 (KHTML, like Gecko) Chrome/107.0.0.0 Safari/537.36",Macintosh,Chrome,107.0.0.0,OS X,10_15_7,12936,387,s,,donutS.jpg,3,Heavy_Matched,TRUE,
,,,,,fixation,3825,html-keyboard-response,174,196193,0.0-5.0-0.35,20,3,2022-11-17 00:47:26,1e2a314d68345bcc521be5de8e44be57,,"Mozilla/5.0 (Macintosh; Intel Mac OS X 10_15_7) AppleWebKit/537.36 (KHTML, like Gecko) Chrome/107.0.0.0 Safari/537.36",Macintosh,Chrome,107.0.0.0,OS X,10_15_7,12936,null,null,,"<p style=""font-size: 48px;"">+</p>",3,Filler,,
,,,,,sentence,3825,html-keyboard-response,175,196884,0.0-5.0-1.35,20,3,2022-11-17 00:47:26,1e2a314d68345bcc521be5de8e44be57,,"Mozilla/5.0 (Macintosh; Intel Mac OS X 10_15_7) AppleWebKit/537.36 (KHTML, like Gecko) Chrome/107.0.0.0 Safari/537.36",Macintosh,Chrome,107.0.0.0,OS X,10_15_7,12936,679, ,,A cat is drinking water from a bowl,3,Filler,,
,,,,,fixation,3825,html-keyboard-response,176,197401,0.0-5.0-2.35,20,3,2022-11-17 00:47:26,1e2a314d68345bcc521be5de8e44be57,,"Mozilla/5.0 (Macintosh; Intel Mac OS X 10_15_7) AppleWebKit/537.36 (KHTML, like Gecko) Chrome/107.0.0.0 Safari/537.36",Macintosh,Chrome,107.0.0.0,OS X,10_15_7,12936,null,null,,"<p style=""font-size: 48px;"">+</p>",3,Filler,,
,,,,,picture,3825,image-keyboard-response,177,197809,0.0-5.0-3.35,20,3,2022-11-17 00:47:26,1e2a314d68345bcc521be5de8e44be57,,"Mozilla/5.0 (Macintosh; Intel Mac OS X 10_15_7) AppleWebKit/537.36 (KHTML, like Gecko) Chrome/107.0.0.0 Safari/537.36",Macintosh,Chrome,107.0.0.0,OS X,10_15_7,12936,394,s,,bowl.jpg,3,Filler,TRUE,
,,,,,fixation,3825,html-keyboard-response,178,198825,0.0-5.0-0.36,20,3,2022-11-17 00:47:26,1e2a314d68345bcc521be5de8e44be57,,"Mozilla/5.0 (Macintosh; Intel Mac OS X 10_15_7) AppleWebKit/537.36 (KHTML, like Gecko) Chrome/107.0.0.0 Safari/537.36",Macintosh,Chrome,107.0.0.0,OS X,10_15_7,12936,null,null,,"<p style=""font-size: 48px;"">+</p>",3,Filler,,
,,,,,sentence,3825,html-keyboard-response,179,199402,0.0-5.0-1.36,20,3,2022-11-17 00:47:26,1e2a314d68345bcc521be5de8e44be57,,"Mozilla/5.0 (Macintosh; Intel Mac OS X 10_15_7) AppleWebKit/537.36 (KHTML, like Gecko) Chrome/107.0.0.0 Safari/537.36",Macintosh,Chrome,107.0.0.0,OS X,10_15_7,12936,566, ,,A kitten is playing in the sandbox,3,Filler,,
,,,,,fixation,3825,html-keyboard-response,180,199921,0.0-5.0-2.36,20,3,2022-11-17 00:47:26,1e2a314d68345bcc521be5de8e44be57,,"Mozilla/5.0 (Macintosh; Intel Mac OS X 10_15_7) AppleWebKit/537.36 (KHTML, like Gecko) Chrome/107.0.0.0 Safari/537.36",Macintosh,Chrome,107.0.0.0,OS X,10_15_7,12936,null,null,,"<p style=""font-size: 48px;"">+</p>",3,Filler,,
,,,,,picture,3825,image-keyboard-response,181,200496,0.0-5.0-3.36,20,3,2022-11-17 00:47:26,1e2a314d68345bcc521be5de8e44be57,,"Mozilla/5.0 (Macintosh; Intel Mac OS X 10_15_7) AppleWebKit/537.36 (KHTML, like Gecko) Chrome/107.0.0.0 Safari/537.36",Macintosh,Chrome,107.0.0.0,OS X,10_15_7,12936,557,n,,dustbin.jpg,3,Filler,TRUE,
,,,,,fixation,3825,html-keyboard-response,182,201509,0.0-5.0-0.37,20,3,2022-11-17 00:47:26,1e2a314d68345bcc521be5de8e44be57,,"Mozilla/5.0 (Macintosh; Intel Mac OS X 10_15_7) AppleWebKit/537.36 (KHTML, like Gecko) Chrome/107.0.0.0 Safari/537.36",Macintosh,Chrome,107.0.0.0,OS X,10_15_7,12936,null,null,,"<p style=""font-size: 48px;"">+</p>",3,Filler,,
,,,,,sentence,3825,html-keyboard-response,183,202067,0.0-5.0-1.37,20,3,2022-11-17 00:47:26,1e2a314d68345bcc521be5de8e44be57,,"Mozilla/5.0 (Macintosh; Intel Mac OS X 10_15_7) AppleWebKit/537.36 (KHTML, like Gecko) Chrome/107.0.0.0 Safari/537.36",Macintosh,Chrome,107.0.0.0,OS X,10_15_7,12936,548, ,,A woman is taking money out of a wallet,3,Filler,,
,,,,,fixation,3825,html-keyboard-response,184,202585,0.0-5.0-2.37,20,3,2022-11-17 00:47:26,1e2a314d68345bcc521be5de8e44be57,,"Mozilla/5.0 (Macintosh; Intel Mac OS X 10_15_7) AppleWebKit/537.36 (KHTML, like Gecko) Chrome/107.0.0.0 Safari/537.36",Macintosh,Chrome,107.0.0.0,OS X,10_15_7,12936,null,null,,"<p style=""font-size: 48px;"">+</p>",3,Filler,,
,,,,,picture,3825,image-keyboard-response,185,203101,0.0-5.0-3.37,20,3,2022-11-17 00:47:26,1e2a314d68345bcc521be5de8e44be57,,"Mozilla/5.0 (Macintosh; Intel Mac OS X 10_15_7) AppleWebKit/537.36 (KHTML, like Gecko) Chrome/107.0.0.0 Safari/537.36",Macintosh,Chrome,107.0.0.0,OS X,10_15_7,12936,504,n,,coconut.jpg,3,Filler,TRUE,
,,,,,fixation,3825,html-keyboard-response,186,204120,0.0-5.0-0.38,20,3,2022-11-17 00:47:26,1e2a314d68345bcc521be5de8e44be57,,"Mozilla/5.0 (Macintosh; Intel Mac OS X 10_15_7) AppleWebKit/537.36 (KHTML, like Gecko) Chrome/107.0.0.0 Safari/537.36",Macintosh,Chrome,107.0.0.0,OS X,10_15_7,12936,null,null,,"<p style=""font-size: 48px;"">+</p>",3,Filler,,
,,,,,sentence,3825,html-keyboard-response,187,204542,0.0-5.0-1.38,20,3,2022-11-17 00:47:26,1e2a314d68345bcc521be5de8e44be57,,"Mozilla/5.0 (Macintosh; Intel Mac OS X 10_15_7) AppleWebKit/537.36 (KHTML, like Gecko) Chrome/107.0.0.0 Safari/537.36",Macintosh,Chrome,107.0.0.0,OS X,10_15_7,12936,409, ,,A teenage girl is playing the piano,3,Filler,,
,,,,,fixation,3825,html-keyboard-response,188,205057,0.0-5.0-2.38,20,3,2022-11-17 00:47:26,1e2a314d68345bcc521be5de8e44be57,,"Mozilla/5.0 (Macintosh; Intel Mac OS X 10_15_7) AppleWebKit/537.36 (KHTML, like Gecko) Chrome/107.0.0.0 Safari/537.36",Macintosh,Chrome,107.0.0.0,OS X,10_15_7,12936,null,null,,"<p style=""font-size: 48px;"">+</p>",3,Filler,,
,,,,,picture,3825,image-keyboard-response,189,205683,0.0-5.0-3.38,20,3,2022-11-17 00:47:26,1e2a314d68345bcc521be5de8e44be57,,"Mozilla/5.0 (Macintosh; Intel Mac OS X 10_15_7) AppleWebKit/537.36 (KHTML, like Gecko) Chrome/107.0.0.0 Safari/537.36",Macintosh,Chrome,107.0.0.0,OS X,10_15_7,12936,614,n,,pillow.jpg,3,Filler,TRUE,
,,,,,fixation,3825,html-keyboard-response,190,206705,0.0-5.0-0.39,20,3,2022-11-17 00:47:26,1e2a314d68345bcc521be5de8e44be57,,"Mozilla/5.0 (Macintosh; Intel Mac OS X 10_15_7) AppleWebKit/537.36 (KHTML, like Gecko) Chrome/107.0.0.0 Safari/537.36",Macintosh,Chrome,107.0.0.0,OS X,10_15_7,12936,null,null,,"<p style=""font-size: 48px;"">+</p>",3,Filler,,
,,,,,sentence,3825,html-keyboard-response,191,207145,0.0-5.0-1.39,20,3,2022-11-17 00:47:26,1e2a314d68345bcc521be5de8e44be57,,"Mozilla/5.0 (Macintosh; Intel Mac OS X 10_15_7) AppleWebKit/537.36 (KHTML, like Gecko) Chrome/107.0.0.0 Safari/537.36",Macintosh,Chrome,107.0.0.0,OS X,10_15_7,12936,428, ,,A keyboard was placed on the bed,3,Filler,,
,,,,,fixation,3825,html-keyboard-response,192,207665,0.0-5.0-2.39,20,3,2022-11-17 00:47:26,1e2a314d68345bcc521be5de8e44be57,,"Mozilla/5.0 (Macintosh; Intel Mac OS X 10_15_7) AppleWebKit/537.36 (KHTML, like Gecko) Chrome/107.0.0.0 Safari/537.36",Macintosh,Chrome,107.0.0.0,OS X,10_15_7,12936,null,null,,"<p style=""font-size: 48px;"">+</p>",3,Filler,,
,,,,,picture,3825,image-keyboard-response,193,208180,0.0-5.0-3.39,20,3,2022-11-17 00:47:26,1e2a314d68345bcc521be5de8e44be57,,"Mozilla/5.0 (Macintosh; Intel Mac OS X 10_15_7) AppleWebKit/537.36 (KHTML, like Gecko) Chrome/107.0.0.0 Safari/537.36",Macintosh,Chrome,107.0.0.0,OS X,10_15_7,12936,505,n,,bottlecap.jpg,3,Filler,TRUE,
,,,,,fixation,3825,html-keyboard-response,194,209201,0.0-5.0-0.40,20,3,2022-11-17 00:47:26,1e2a314d68345bcc521be5de8e44be57,,"Mozilla/5.0 (Macintosh; Intel Mac OS X 10_15_7) AppleWebKit/537.36 (KHTML, like Gecko) Chrome/107.0.0.0 Safari/537.36",Macintosh,Chrome,107.0.0.0,OS X,10_15_7,12936,null,null,,"<p style=""font-size: 48px;"">+</p>",3,Filler,,
,,,,,sentence,3825,html-keyboard-response,195,209680,0.0-5.0-1.40,20,3,2022-11-17 00:47:26,1e2a314d68345bcc521be5de8e44be57,,"Mozilla/5.0 (Macintosh; Intel Mac OS X 10_15_7) AppleWebKit/537.36 (KHTML, like Gecko) Chrome/107.0.0.0 Safari/537.36",Macintosh,Chrome,107.0.0.0,OS X,10_15_7,12936,465, ,,An elephant is eating a watermelon,3,Filler,,
,,,,,fixation,3825,html-keyboard-response,196,210194,0.0-5.0-2.40,20,3,2022-11-17 00:47:26,1e2a314d68345bcc521be5de8e44be57,,"Mozilla/5.0 (Macintosh; Intel Mac OS X 10_15_7) AppleWebKit/537.36 (KHTML, like Gecko) Chrome/107.0.0.0 Safari/537.36",Macintosh,Chrome,107.0.0.0,OS X,10_15_7,12936,null,null,,"<p style=""font-size: 48px;"">+</p>",3,Filler,,
,,,,,picture,3825,image-keyboard-response,197,210590,0.0-5.0-3.40,20,3,2022-11-17 00:47:26,1e2a314d68345bcc521be5de8e44be57,,"Mozilla/5.0 (Macintosh; Intel Mac OS X 10_15_7) AppleWebKit/537.36 (KHTML, like Gecko) Chrome/107.0.0.0 Safari/537.36",Macintosh,Chrome,107.0.0.0,OS X,10_15_7,12936,382,s,,watermelon.jpg,3,Filler,TRUE,
,,,,,fixation,3825,html-keyboard-response,198,211609,0.0-5.0-0.41,20,3,2022-11-17 00:47:26,1e2a314d68345bcc521be5de8e44be57,,"Mozilla/5.0 (Macintosh; Intel Mac OS X 10_15_7) AppleWebKit/537.36 (KHTML, like Gecko) Chrome/107.0.0.0 Safari/537.36",Macintosh,Chrome,107.0.0.0,OS X,10_15_7,12936,null,null,,"<p style=""font-size: 48px;"">+</p>",3,Filler,,
,,,,,sentence,3825,html-keyboard-response,199,212324,0.0-5.0-1.41,20,3,2022-11-17 00:47:26,1e2a314d68345bcc521be5de8e44be57,,"Mozilla/5.0 (Macintosh; Intel Mac OS X 10_15_7) AppleWebKit/537.36 (KHTML, like Gecko) Chrome/107.0.0.0 Safari/537.36",Macintosh,Chrome,107.0.0.0,OS X,10_15_7,12936,707, ,,A cabbage was placed on the table,3,Filler,,
,,,,,fixation,3825,html-keyboard-response,200,212841,0.0-5.0-2.41,20,3,2022-11-17 00:47:26,1e2a314d68345bcc521be5de8e44be57,,"Mozilla/5.0 (Macintosh; Intel Mac OS X 10_15_7) AppleWebKit/537.36 (KHTML, like Gecko) Chrome/107.0.0.0 Safari/537.36",Macintosh,Chrome,107.0.0.0,OS X,10_15_7,12936,null,null,,"<p style=""font-size: 48px;"">+</p>",3,Filler,,
,,,,,picture,3825,image-keyboard-response,201,213497,0.0-5.0-3.41,20,3,2022-11-17 00:47:26,1e2a314d68345bcc521be5de8e44be57,,"Mozilla/5.0 (Macintosh; Intel Mac OS X 10_15_7) AppleWebKit/537.36 (KHTML, like Gecko) Chrome/107.0.0.0 Safari/537.36",Macintosh,Chrome,107.0.0.0,OS X,10_15_7,12936,641,n,,ladder.jpg,3,Filler,TRUE,
,,,,,fixation,3825,html-keyboard-response,202,214513,0.0-5.0-0.42,20,3,2022-11-17 00:47:26,1e2a314d68345bcc521be5de8e44be57,,"Mozilla/5.0 (Macintosh; Intel Mac OS X 10_15_7) AppleWebKit/537.36 (KHTML, like Gecko) Chrome/107.0.0.0 Safari/537.36",Macintosh,Chrome,107.0.0.0,OS X,10_15_7,12936,null,null,,"<p style=""font-size: 48px;"">+</p>",3,Filler,,
,,,,,sentence,3825,html-keyboard-response,203,215460,0.0-5.0-1.42,20,3,2022-11-17 00:47:26,1e2a314d68345bcc521be5de8e44be57,,"Mozilla/5.0 (Macintosh; Intel Mac OS X 10_15_7) AppleWebKit/537.36 (KHTML, like Gecko) Chrome/107.0.0.0 Safari/537.36",Macintosh,Chrome,107.0.0.0,OS X,10_15_7,12936,935, ,,A horse is chewing hay,3,Filler,,
,,,,,fixation,3825,html-keyboard-response,204,215977,0.0-5.0-2.42,20,3,2022-11-17 00:47:26,1e2a314d68345bcc521be5de8e44be57,,"Mozilla/5.0 (Macintosh; Intel Mac OS X 10_15_7) AppleWebKit/537.36 (KHTML, like Gecko) Chrome/107.0.0.0 Safari/537.36",Macintosh,Chrome,107.0.0.0,OS X,10_15_7,12936,null,null,,"<p style=""font-size: 48px;"">+</p>",3,Filler,,
,,,,,picture,3825,image-keyboard-response,205,216513,0.0-5.0-3.42,20,3,2022-11-17 00:47:26,1e2a314d68345bcc521be5de8e44be57,,"Mozilla/5.0 (Macintosh; Intel Mac OS X 10_15_7) AppleWebKit/537.36 (KHTML, like Gecko) Chrome/107.0.0.0 Safari/537.36",Macintosh,Chrome,107.0.0.0,OS X,10_15_7,12936,523,n,,purse.jpg,3,Filler,TRUE,
,,,,,fixation,3825,html-keyboard-response,206,217537,0.0-5.0-0.43,20,3,2022-11-17 00:47:26,1e2a314d68345bcc521be5de8e44be57,,"Mozilla/5.0 (Macintosh; Intel Mac OS X 10_15_7) AppleWebKit/537.36 (KHTML, like Gecko) Chrome/107.0.0.0 Safari/537.36",Macintosh,Chrome,107.0.0.0,OS X,10_15_7,12936,null,null,,"<p style=""font-size: 48px;"">+</p>",3,Heavy_Contradictory,,
,,,,,sentence,3825,html-keyboard-response,207,218805,0.0-5.0-1.43,20,3,2022-11-17 00:47:26,1e2a314d68345bcc521be5de8e44be57,,"Mozilla/5.0 (Macintosh; Intel Mac OS X 10_15_7) AppleWebKit/537.36 (KHTML, like Gecko) Chrome/107.0.0.0 Safari/537.36",Macintosh,Chrome,107.0.0.0,OS X,10_15_7,12936,1253, ,,A bowling ball dropped and touched a tile,3,Heavy_Contradictory,,
,,,,,fixation,3825,html-keyboard-response,208,219321,0.0-5.0-2.43,20,3,2022-11-17 00:47:26,1e2a314d68345bcc521be5de8e44be57,,"Mozilla/5.0 (Macintosh; Intel Mac OS X 10_15_7) AppleWebKit/537.36 (KHTML, like Gecko) Chrome/107.0.0.0 Safari/537.36",Macintosh,Chrome,107.0.0.0,OS X,10_15_7,12936,null,null,,"<p style=""font-size: 48px;"">+</p>",3,Heavy_Contradictory,,
,,,,,picture,3825,image-keyboard-response,209,219956,0.0-5.0-3.43,20,3,2022-11-17 00:47:26,1e2a314d68345bcc521be5de8e44be57,,"Mozilla/5.0 (Macintosh; Intel Mac OS X 10_15_7) AppleWebKit/537.36 (KHTML, like Gecko) Chrome/107.0.0.0 Safari/537.36",Macintosh,Chrome,107.0.0.0,OS X,10_15_7,12936,623,s,,tileS.jpg,3,Heavy_Contradictory,TRUE,
,,,,,fixation,3825,html-keyboard-response,210,220977,0.0-5.0-0.44,20,3,2022-11-17 00:47:26,1e2a314d68345bcc521be5de8e44be57,,"Mozilla/5.0 (Macintosh; Intel Mac OS X 10_15_7) AppleWebKit/537.36 (KHTML, like Gecko) Chrome/107.0.0.0 Safari/537.36",Macintosh,Chrome,107.0.0.0,OS X,10_15_7,12936,null,null,,"<p style=""font-size: 48px;"">+</p>",3,Light_Contradictory,,
,,,,,sentence,3825,html-keyboard-response,211,221801,0.0-5.0-1.44,20,3,2022-11-17 00:47:26,1e2a314d68345bcc521be5de8e44be57,,"Mozilla/5.0 (Macintosh; Intel Mac OS X 10_15_7) AppleWebKit/537.36 (KHTML, like Gecko) Chrome/107.0.0.0 Safari/537.36",Macintosh,Chrome,107.0.0.0,OS X,10_15_7,12936,811, ,,A balloon dropped and smashed a chocolate ice-cream,3,Light_Contradictory,,
,,,,,fixation,3825,html-keyboard-response,212,222320,0.0-5.0-2.44,20,3,2022-11-17 00:47:26,1e2a314d68345bcc521be5de8e44be57,,"Mozilla/5.0 (Macintosh; Intel Mac OS X 10_15_7) AppleWebKit/537.36 (KHTML, like Gecko) Chrome/107.0.0.0 Safari/537.36",Macintosh,Chrome,107.0.0.0,OS X,10_15_7,12936,null,null,,"<p style=""font-size: 48px;"">+</p>",3,Light_Contradictory,,
,,,,,picture,3825,image-keyboard-response,213,222980,0.0-5.0-3.44,20,3,2022-11-17 00:47:26,1e2a314d68345bcc521be5de8e44be57,,"Mozilla/5.0 (Macintosh; Intel Mac OS X 10_15_7) AppleWebKit/537.36 (KHTML, like Gecko) Chrome/107.0.0.0 Safari/537.36",Macintosh,Chrome,107.0.0.0,OS X,10_15_7,12936,647,s,,icecreamS.jpg,3,Light_Contradictory,TRUE,
,,,,,fixation,3825,html-keyboard-response,214,224001,0.0-5.0-0.45,20,3,2022-11-17 00:47:26,1e2a314d68345bcc521be5de8e44be57,,"Mozilla/5.0 (Macintosh; Intel Mac OS X 10_15_7) AppleWebKit/537.36 (KHTML, like Gecko) Chrome/107.0.0.0 Safari/537.36",Macintosh,Chrome,107.0.0.0,OS X,10_15_7,12936,null,null,,"<p style=""font-size: 48px;"">+</p>",3,Light_Contradictory,,
,,,,,sentence,3825,html-keyboard-response,215,224728,0.0-5.0-1.45,20,3,2022-11-17 00:47:26,1e2a314d68345bcc521be5de8e44be57,,"Mozilla/5.0 (Macintosh; Intel Mac OS X 10_15_7) AppleWebKit/537.36 (KHTML, like Gecko) Chrome/107.0.0.0 Safari/537.36",Macintosh,Chrome,107.0.0.0,OS X,10_15_7,12936,714, ,,A balloon dropped and smashed an iPAD,3,Light_Contradictory,,
,,,,,fixation,3825,html-keyboard-response,216,225249,0.0-5.0-2.45,20,3,2022-11-17 00:47:26,1e2a314d68345bcc521be5de8e44be57,,"Mozilla/5.0 (Macintosh; Intel Mac OS X 10_15_7) AppleWebKit/537.36 (KHTML, like Gecko) Chrome/107.0.0.0 Safari/537.36",Macintosh,Chrome,107.0.0.0,OS X,10_15_7,12936,null,null,,"<p style=""font-size: 48px;"">+</p>",3,Light_Contradictory,,
,,,,,picture,3825,image-keyboard-response,217,225676,0.0-5.0-3.45,20,3,2022-11-17 00:47:26,1e2a314d68345bcc521be5de8e44be57,,"Mozilla/5.0 (Macintosh; Intel Mac OS X 10_15_7) AppleWebKit/537.36 (KHTML, like Gecko) Chrome/107.0.0.0 Safari/537.36",Macintosh,Chrome,107.0.0.0,OS X,10_15_7,12936,409,s,,iPadS.jpg,3,Light_Contradictory,TRUE,
,,,,,fixation,3825,html-keyboard-response,218,226697,0.0-5.0-0.46,20,3,2022-11-17 00:47:26,1e2a314d68345bcc521be5de8e44be57,,"Mozilla/5.0 (Macintosh; Intel Mac OS X 10_15_7) AppleWebKit/537.36 (KHTML, like Gecko) Chrome/107.0.0.0 Safari/537.36",Macintosh,Chrome,107.0.0.0,OS X,10_15_7,12936,null,null,,"<p style=""font-size: 48px;"">+</p>",3,Light_Matched,,
,,,,,sentence,3825,html-keyboard-response,219,227290,0.0-5.0-1.46,20,3,2022-11-17 00:47:26,1e2a314d68345bcc521be5de8e44be57,,"Mozilla/5.0 (Macintosh; Intel Mac OS X 10_15_7) AppleWebKit/537.36 (KHTML, like Gecko) Chrome/107.0.0.0 Safari/537.36",Macintosh,Chrome,107.0.0.0,OS X,10_15_7,12936,580, ,,A balloon dropped and touched a cracker,3,Light_Matched,,
,,,,,fixation,3825,html-keyboard-response,220,227816,0.0-5.0-2.46,20,3,2022-11-17 00:47:26,1e2a314d68345bcc521be5de8e44be57,,"Mozilla/5.0 (Macintosh; Intel Mac OS X 10_15_7) AppleWebKit/537.36 (KHTML, like Gecko) Chrome/107.0.0.0 Safari/537.36",Macintosh,Chrome,107.0.0.0,OS X,10_15_7,12936,null,null,,"<p style=""font-size: 48px;"">+</p>",3,Light_Matched,,
,,,,,picture,3825,image-keyboard-response,221,228231,0.0-5.0-3.46,20,3,2022-11-17 00:47:26,1e2a314d68345bcc521be5de8e44be57,,"Mozilla/5.0 (Macintosh; Intel Mac OS X 10_15_7) AppleWebKit/537.36 (KHTML, like Gecko) Chrome/107.0.0.0 Safari/537.36",Macintosh,Chrome,107.0.0.0,OS X,10_15_7,12936,398,s,,crackerS.jpg,3,Light_Matched,TRUE,
,,,,,fixation,3825,html-keyboard-response,222,229249,0.0-5.0-0.47,20,3,2022-11-17 00:47:26,1e2a314d68345bcc521be5de8e44be57,,"Mozilla/5.0 (Macintosh; Intel Mac OS X 10_15_7) AppleWebKit/537.36 (KHTML, like Gecko) Chrome/107.0.0.0 Safari/537.36",Macintosh,Chrome,107.0.0.0,OS X,10_15_7,12936,null,null,,"<p style=""font-size: 48px;"">+</p>",3,Filler,,
,,,,,sentence,3825,html-keyboard-response,223,229766,0.0-5.0-1.47,20,3,2022-11-17 00:47:26,1e2a314d68345bcc521be5de8e44be57,,"Mozilla/5.0 (Macintosh; Intel Mac OS X 10_15_7) AppleWebKit/537.36 (KHTML, like Gecko) Chrome/107.0.0.0 Safari/537.36",Macintosh,Chrome,107.0.0.0,OS X,10_15_7,12936,503, ,,A man is boiling potatoes.,3,Filler,,
,,,,,fixation,3825,html-keyboard-response,224,230289,0.0-5.0-2.47,20,3,2022-11-17 00:47:26,1e2a314d68345bcc521be5de8e44be57,,"Mozilla/5.0 (Macintosh; Intel Mac OS X 10_15_7) AppleWebKit/537.36 (KHTML, like Gecko) Chrome/107.0.0.0 Safari/537.36",Macintosh,Chrome,107.0.0.0,OS X,10_15_7,12936,null,null,,"<p style=""font-size: 48px;"">+</p>",3,Filler,,
,,,,,picture,3825,image-keyboard-response,225,230808,0.0-5.0-3.47,20,3,2022-11-17 00:47:26,1e2a314d68345bcc521be5de8e44be57,,"Mozilla/5.0 (Macintosh; Intel Mac OS X 10_15_7) AppleWebKit/537.36 (KHTML, like Gecko) Chrome/107.0.0.0 Safari/537.36",Macintosh,Chrome,107.0.0.0,OS X,10_15_7,12936,506,n,,cup.jpg,3,Filler,TRUE,
,,,,,fixation,3825,html-keyboard-response,226,231825,0.0-5.0-0.48,20,3,2022-11-17 00:47:26,1e2a314d68345bcc521be5de8e44be57,,"Mozilla/5.0 (Macintosh; Intel Mac OS X 10_15_7) AppleWebKit/537.36 (KHTML, like Gecko) Chrome/107.0.0.0 Safari/537.36",Macintosh,Chrome,107.0.0.0,OS X,10_15_7,12936,null,null,,"<p style=""font-size: 48px;"">+</p>",3,Heavy_Contradictory,,
,,,,,sentence,3825,html-keyboard-response,227,232767,0.0-5.0-1.48,20,3,2022-11-17 00:47:26,1e2a314d68345bcc521be5de8e44be57,,"Mozilla/5.0 (Macintosh; Intel Mac OS X 10_15_7) AppleWebKit/537.36 (KHTML, like Gecko) Chrome/107.0.0.0 Safari/537.36",Macintosh,Chrome,107.0.0.0,OS X,10_15_7,12936,932, ,,A bowling ball dropped and touched a ceramic plate,3,Heavy_Contradictory,,
,,,,,fixation,3825,html-keyboard-response,228,233289,0.0-5.0-2.48,20,3,2022-11-17 00:47:26,1e2a314d68345bcc521be5de8e44be57,,"Mozilla/5.0 (Macintosh; Intel Mac OS X 10_15_7) AppleWebKit/537.36 (KHTML, like Gecko) Chrome/107.0.0.0 Safari/537.36",Macintosh,Chrome,107.0.0.0,OS X,10_15_7,12936,null,null,,"<p style=""font-size: 48px;"">+</p>",3,Heavy_Contradictory,,
,,,,,picture,3825,image-keyboard-response,229,233810,0.0-5.0-3.48,20,3,2022-11-17 00:47:26,1e2a314d68345bcc521be5de8e44be57,,"Mozilla/5.0 (Macintosh; Intel Mac OS X 10_15_7) AppleWebKit/537.36 (KHTML, like Gecko) Chrome/107.0.0.0 Safari/537.36",Macintosh,Chrome,107.0.0.0,OS X,10_15_7,12936,508,s,,plateS.jpg,3,Heavy_Contradictory,TRUE,
,,,,,fixation,3825,html-keyboard-response,230,234833,0.0-5.0-0.49,20,3,2022-11-17 00:47:26,1e2a314d68345bcc521be5de8e44be57,,"Mozilla/5.0 (Macintosh; Intel Mac OS X 10_15_7) AppleWebKit/537.36 (KHTML, like Gecko) Chrome/107.0.0.0 Safari/537.36",Macintosh,Chrome,107.0.0.0,OS X,10_15_7,12936,null,null,,"<p style=""font-size: 48px;"">+</p>",3,Light_Matched,,
,,,,,sentence,3825,html-keyboard-response,231,235441,0.0-5.0-1.49,20,3,2022-11-17 00:47:26,1e2a314d68345bcc521be5de8e44be57,,"Mozilla/5.0 (Macintosh; Intel Mac OS X 10_15_7) AppleWebKit/537.36 (KHTML, like Gecko) Chrome/107.0.0.0 Safari/537.36",Macintosh,Chrome,107.0.0.0,OS X,10_15_7,12936,592, ,,A balloon dropped and touched a piece of cake,3,Light_Matched,,
,,,,,fixation,3825,html-keyboard-response,232,235961,0.0-5.0-2.49,20,3,2022-11-17 00:47:26,1e2a314d68345bcc521be5de8e44be57,,"Mozilla/5.0 (Macintosh; Intel Mac OS X 10_15_7) AppleWebKit/537.36 (KHTML, like Gecko) Chrome/107.0.0.0 Safari/537.36",Macintosh,Chrome,107.0.0.0,OS X,10_15_7,12936,null,null,,"<p style=""font-size: 48px;"">+</p>",3,Light_Matched,,
,,,,,picture,3825,image-keyboard-response,233,236509,0.0-5.0-3.49,20,3,2022-11-17 00:47:26,1e2a314d68345bcc521be5de8e44be57,,"Mozilla/5.0 (Macintosh; Intel Mac OS X 10_15_7) AppleWebKit/537.36 (KHTML, like Gecko) Chrome/107.0.0.0 Safari/537.36",Macintosh,Chrome,107.0.0.0,OS X,10_15_7,12936,532,s,,cakeS.jpg,3,Light_Matched,TRUE,
,,,,,fixation,3825,html-keyboard-response,234,237529,0.0-5.0-0.50,20,3,2022-11-17 00:47:26,1e2a314d68345bcc521be5de8e44be57,,"Mozilla/5.0 (Macintosh; Intel Mac OS X 10_15_7) AppleWebKit/537.36 (KHTML, like Gecko) Chrome/107.0.0.0 Safari/537.36",Macintosh,Chrome,107.0.0.0,OS X,10_15_7,12936,null,null,,"<p style=""font-size: 48px;"">+</p>",3,Light_Matched,,
,,,,,sentence,3825,html-keyboard-response,235,238667,0.0-5.0-1.50,20,3,2022-11-17 00:47:26,1e2a314d68345bcc521be5de8e44be57,,"Mozilla/5.0 (Macintosh; Intel Mac OS X 10_15_7) AppleWebKit/537.36 (KHTML, like Gecko) Chrome/107.0.0.0 Safari/537.36",Macintosh,Chrome,107.0.0.0,OS X,10_15_7,12936,1120, ,,A balloon dropped and touched a wineglass,3,Light_Matched,,
,,,,,fixation,3825,html-keyboard-response,236,239193,0.0-5.0-2.50,20,3,2022-11-17 00:47:26,1e2a314d68345bcc521be5de8e44be57,,"Mozilla/5.0 (Macintosh; Intel Mac OS X 10_15_7) AppleWebKit/537.36 (KHTML, like Gecko) Chrome/107.0.0.0 Safari/537.36",Macintosh,Chrome,107.0.0.0,OS X,10_15_7,12936,null,null,,"<p style=""font-size: 48px;"">+</p>",3,Light_Matched,,
,,,,,picture,3825,image-keyboard-response,237,239831,0.0-5.0-3.50,20,3,2022-11-17 00:47:26,1e2a314d68345bcc521be5de8e44be57,,"Mozilla/5.0 (Macintosh; Intel Mac OS X 10_15_7) AppleWebKit/537.36 (KHTML, like Gecko) Chrome/107.0.0.0 Safari/537.36",Macintosh,Chrome,107.0.0.0,OS X,10_15_7,12936,624,s,,wineglassS.jpg,3,Light_Matched,TRUE,
,,,,,fixation,3825,html-keyboard-response,238,240849,0.0-5.0-0.51,20,3,2022-11-17 00:47:26,1e2a314d68345bcc521be5de8e44be57,,"Mozilla/5.0 (Macintosh; Intel Mac OS X 10_15_7) AppleWebKit/537.36 (KHTML, like Gecko) Chrome/107.0.0.0 Safari/537.36",Macintosh,Chrome,107.0.0.0,OS X,10_15_7,12936,null,null,,"<p style=""font-size: 48px;"">+</p>",3,Filler,,
,,,,,sentence,3825,html-keyboard-response,239,241405,0.0-5.0-1.51,20,3,2022-11-17 00:47:26,1e2a314d68345bcc521be5de8e44be57,,"Mozilla/5.0 (Macintosh; Intel Mac OS X 10_15_7) AppleWebKit/537.36 (KHTML, like Gecko) Chrome/107.0.0.0 Safari/537.36",Macintosh,Chrome,107.0.0.0,OS X,10_15_7,12936,539, ,,A mouse is eating cheese,3,Filler,,
,,,,,fixation,3825,html-keyboard-response,240,241921,0.0-5.0-2.51,20,3,2022-11-17 00:47:26,1e2a314d68345bcc521be5de8e44be57,,"Mozilla/5.0 (Macintosh; Intel Mac OS X 10_15_7) AppleWebKit/537.36 (KHTML, like Gecko) Chrome/107.0.0.0 Safari/537.36",Macintosh,Chrome,107.0.0.0,OS X,10_15_7,12936,null,null,,"<p style=""font-size: 48px;"">+</p>",3,Filler,,
,,,,,picture,3825,image-keyboard-response,241,242735,0.0-5.0-3.51,20,3,2022-11-17 00:47:26,1e2a314d68345bcc521be5de8e44be57,,"Mozilla/5.0 (Macintosh; Intel Mac OS X 10_15_7) AppleWebKit/537.36 (KHTML, like Gecko) Chrome/107.0.0.0 Safari/537.36",Macintosh,Chrome,107.0.0.0,OS X,10_15_7,12936,793,n,,ring.jpg,3,Filler,TRUE,
,,,,,fixation,3825,html-keyboard-response,242,243753,0.0-5.0-0.52,20,3,2022-11-17 00:47:26,1e2a314d68345bcc521be5de8e44be57,,"Mozilla/5.0 (Macintosh; Intel Mac OS X 10_15_7) AppleWebKit/537.36 (KHTML, like Gecko) Chrome/107.0.0.0 Safari/537.36",Macintosh,Chrome,107.0.0.0,OS X,10_15_7,12936,null,null,,"<p style=""font-size: 48px;"">+</p>",3,Heavy_Matched,,
,,,,,sentence,3825,html-keyboard-response,243,244560,0.0-5.0-1.52,20,3,2022-11-17 00:47:26,1e2a314d68345bcc521be5de8e44be57,,"Mozilla/5.0 (Macintosh; Intel Mac OS X 10_15_7) AppleWebKit/537.36 (KHTML, like Gecko) Chrome/107.0.0.0 Safari/537.36",Macintosh,Chrome,107.0.0.0,OS X,10_15_7,12936,795, ,,A bowling ball dropped and smashed a light bulb,3,Heavy_Matched,,
,,,,,fixation,3825,html-keyboard-response,244,245081,0.0-5.0-2.52,20,3,2022-11-17 00:47:26,1e2a314d68345bcc521be5de8e44be57,,"Mozilla/5.0 (Macintosh; Intel Mac OS X 10_15_7) AppleWebKit/537.36 (KHTML, like Gecko) Chrome/107.0.0.0 Safari/537.36",Macintosh,Chrome,107.0.0.0,OS X,10_15_7,12936,null,null,,"<p style=""font-size: 48px;"">+</p>",3,Heavy_Matched,,
,,,,,picture,3825,image-keyboard-response,245,245611,0.0-5.0-3.52,20,3,2022-11-17 00:47:26,1e2a314d68345bcc521be5de8e44be57,,"Mozilla/5.0 (Macintosh; Intel Mac OS X 10_15_7) AppleWebKit/537.36 (KHTML, like Gecko) Chrome/107.0.0.0 Safari/537.36",Macintosh,Chrome,107.0.0.0,OS X,10_15_7,12936,517,s,,lampS.jpg,3,Heavy_Matched,TRUE,
,,,,,fixation,3825,html-keyboard-response,246,246633,0.0-5.0-0.53,20,3,2022-11-17 00:47:26,1e2a314d68345bcc521be5de8e44be57,,"Mozilla/5.0 (Macintosh; Intel Mac OS X 10_15_7) AppleWebKit/537.36 (KHTML, like Gecko) Chrome/107.0.0.0 Safari/537.36",Macintosh,Chrome,107.0.0.0,OS X,10_15_7,12936,null,null,,"<p style=""font-size: 48px;"">+</p>",3,Filler,,
,,,,,sentence,3825,html-keyboard-response,247,247092,0.0-5.0-1.53,20,3,2022-11-17 00:47:26,1e2a314d68345bcc521be5de8e44be57,,"Mozilla/5.0 (Macintosh; Intel Mac OS X 10_15_7) AppleWebKit/537.36 (KHTML, like Gecko) Chrome/107.0.0.0 Safari/537.36",Macintosh,Chrome,107.0.0.0,OS X,10_15_7,12936,444, ,,A puppy is playing with a ball,3,Filler,,
,,,,,fixation,3825,html-keyboard-response,248,247609,0.0-5.0-2.53,20,3,2022-11-17 00:47:26,1e2a314d68345bcc521be5de8e44be57,,"Mozilla/5.0 (Macintosh; Intel Mac OS X 10_15_7) AppleWebKit/537.36 (KHTML, like Gecko) Chrome/107.0.0.0 Safari/537.36",Macintosh,Chrome,107.0.0.0,OS X,10_15_7,12936,null,null,,"<p style=""font-size: 48px;"">+</p>",3,Filler,,
,,,,,picture,3825,image-keyboard-response,249,248004,0.0-5.0-3.53,20,3,2022-11-17 00:47:26,1e2a314d68345bcc521be5de8e44be57,,"Mozilla/5.0 (Macintosh; Intel Mac OS X 10_15_7) AppleWebKit/537.36 (KHTML, like Gecko) Chrome/107.0.0.0 Safari/537.36",Macintosh,Chrome,107.0.0.0,OS X,10_15_7,12936,381,s,,tennisball.jpg,3,Filler,TRUE,
,,,,,fixation,3825,html-keyboard-response,250,249025,0.0-5.0-0.54,20,3,2022-11-17 00:47:26,1e2a314d68345bcc521be5de8e44be57,,"Mozilla/5.0 (Macintosh; Intel Mac OS X 10_15_7) AppleWebKit/537.36 (KHTML, like Gecko) Chrome/107.0.0.0 Safari/537.36",Macintosh,Chrome,107.0.0.0,OS X,10_15_7,12936,null,null,,"<p style=""font-size: 48px;"">+</p>",3,Filler,,
,,,,,sentence,3825,html-keyboard-response,251,249727,0.0-5.0-1.54,20,3,2022-11-17 00:47:26,1e2a314d68345bcc521be5de8e44be57,,"Mozilla/5.0 (Macintosh; Intel Mac OS X 10_15_7) AppleWebKit/537.36 (KHTML, like Gecko) Chrome/107.0.0.0 Safari/537.36",Macintosh,Chrome,107.0.0.0,OS X,10_15_7,12936,688, ,,A remote was placed on the rug,3,Filler,,
,,,,,fixation,3825,html-keyboard-response,252,250248,0.0-5.0-2.54,20,3,2022-11-17 00:47:26,1e2a314d68345bcc521be5de8e44be57,,"Mozilla/5.0 (Macintosh; Intel Mac OS X 10_15_7) AppleWebKit/537.36 (KHTML, like Gecko) Chrome/107.0.0.0 Safari/537.36",Macintosh,Chrome,107.0.0.0,OS X,10_15_7,12936,null,null,,"<p style=""font-size: 48px;"">+</p>",3,Filler,,
,,,,,picture,3825,image-keyboard-response,253,251119,0.0-5.0-3.54,20,3,2022-11-17 00:47:26,1e2a314d68345bcc521be5de8e44be57,,"Mozilla/5.0 (Macintosh; Intel Mac OS X 10_15_7) AppleWebKit/537.36 (KHTML, like Gecko) Chrome/107.0.0.0 Safari/537.36",Macintosh,Chrome,107.0.0.0,OS X,10_15_7,12936,853,n,,CD.jpg,3,Filler,TRUE,
,,,,,fixation,3825,html-keyboard-response,254,252137,0.0-5.0-0.55,20,3,2022-11-17 00:47:26,1e2a314d68345bcc521be5de8e44be57,,"Mozilla/5.0 (Macintosh; Intel Mac OS X 10_15_7) AppleWebKit/537.36 (KHTML, like Gecko) Chrome/107.0.0.0 Safari/537.36",Macintosh,Chrome,107.0.0.0,OS X,10_15_7,12936,null,null,,"<p style=""font-size: 48px;"">+</p>",3,Filler,,
,,,,,sentence,3825,html-keyboard-response,255,252922,0.0-5.0-1.55,20,3,2022-11-17 00:47:26,1e2a314d68345bcc521be5de8e44be57,,"Mozilla/5.0 (Macintosh; Intel Mac OS X 10_15_7) AppleWebKit/537.36 (KHTML, like Gecko) Chrome/107.0.0.0 Safari/537.36",Macintosh,Chrome,107.0.0.0,OS X,10_15_7,12936,771, ,,A needle was placed on the mouse pad,3,Filler,,
,,,,,fixation,3825,html-keyboard-response,256,253441,0.0-5.0-2.55,20,3,2022-11-17 00:47:26,1e2a314d68345bcc521be5de8e44be57,,"Mozilla/5.0 (Macintosh; Intel Mac OS X 10_15_7) AppleWebKit/537.36 (KHTML, like Gecko) Chrome/107.0.0.0 Safari/537.36",Macintosh,Chrome,107.0.0.0,OS X,10_15_7,12936,null,null,,"<p style=""font-size: 48px;"">+</p>",3,Filler,,
,,,,,picture,3825,image-keyboard-response,257,254013,0.0-5.0-3.55,20,3,2022-11-17 00:47:26,1e2a314d68345bcc521be5de8e44be57,,"Mozilla/5.0 (Macintosh; Intel Mac OS X 10_15_7) AppleWebKit/537.36 (KHTML, like Gecko) Chrome/107.0.0.0 Safari/537.36",Macintosh,Chrome,107.0.0.0,OS X,10_15_7,12936,558,n,,chocolate.jpg,3,Filler,TRUE,
,,,,,fixation,3825,html-keyboard-response,258,255033,0.0-5.0-0.56,20,3,2022-11-17 00:47:26,1e2a314d68345bcc521be5de8e44be57,,"Mozilla/5.0 (Macintosh; Intel Mac OS X 10_15_7) AppleWebKit/537.36 (KHTML, like Gecko) Chrome/107.0.0.0 Safari/537.36",Macintosh,Chrome,107.0.0.0,OS X,10_15_7,12936,null,null,,"<p style=""font-size: 48px;"">+</p>",3,Filler,,
,,,,,sentence,3825,html-keyboard-response,259,255764,0.0-5.0-1.56,20,3,2022-11-17 00:47:26,1e2a314d68345bcc521be5de8e44be57,,"Mozilla/5.0 (Macintosh; Intel Mac OS X 10_15_7) AppleWebKit/537.36 (KHTML, like Gecko) Chrome/107.0.0.0 Safari/537.36",Macintosh,Chrome,107.0.0.0,OS X,10_15_7,12936,717, ,,A photographer is taking a photo of a lion,3,Filler,,
,,,,,fixation,3825,html-keyboard-response,260,256281,0.0-5.0-2.56,20,3,2022-11-17 00:47:26,1e2a314d68345bcc521be5de8e44be57,,"Mozilla/5.0 (Macintosh; Intel Mac OS X 10_15_7) AppleWebKit/537.36 (KHTML, like Gecko) Chrome/107.0.0.0 Safari/537.36",Macintosh,Chrome,107.0.0.0,OS X,10_15_7,12936,null,null,,"<p style=""font-size: 48px;"">+</p>",3,Filler,,
,,,,,picture,3825,image-keyboard-response,261,257245,0.0-5.0-3.56,20,3,2022-11-17 00:47:26,1e2a314d68345bcc521be5de8e44be57,,"Mozilla/5.0 (Macintosh; Intel Mac OS X 10_15_7) AppleWebKit/537.36 (KHTML, like Gecko) Chrome/107.0.0.0 Safari/537.36",Macintosh,Chrome,107.0.0.0,OS X,10_15_7,12936,950,s,,lion.jpg,3,Filler,TRUE,
,,,,,fixation,3825,html-keyboard-response,262,258265,0.0-5.0-0.57,20,3,2022-11-17 00:47:26,1e2a314d68345bcc521be5de8e44be57,,"Mozilla/5.0 (Macintosh; Intel Mac OS X 10_15_7) AppleWebKit/537.36 (KHTML, like Gecko) Chrome/107.0.0.0 Safari/537.36",Macintosh,Chrome,107.0.0.0,OS X,10_15_7,12936,null,null,,"<p style=""font-size: 48px;"">+</p>",3,Filler,,
,,,,,sentence,3825,html-keyboard-response,263,258858,0.0-5.0-1.57,20,3,2022-11-17 00:47:26,1e2a314d68345bcc521be5de8e44be57,,"Mozilla/5.0 (Macintosh; Intel Mac OS X 10_15_7) AppleWebKit/537.36 (KHTML, like Gecko) Chrome/107.0.0.0 Safari/537.36",Macintosh,Chrome,107.0.0.0,OS X,10_15_7,12936,578, ,,A butterfly is sitting on a flower,3,Filler,,
,,,,,fixation,3825,html-keyboard-response,264,259376,0.0-5.0-2.57,20,3,2022-11-17 00:47:26,1e2a314d68345bcc521be5de8e44be57,,"Mozilla/5.0 (Macintosh; Intel Mac OS X 10_15_7) AppleWebKit/537.36 (KHTML, like Gecko) Chrome/107.0.0.0 Safari/537.36",Macintosh,Chrome,107.0.0.0,OS X,10_15_7,12936,null,null,,"<p style=""font-size: 48px;"">+</p>",3,Filler,,
,,,,,picture,3825,image-keyboard-response,265,260093,0.0-5.0-3.57,20,3,2022-11-17 00:47:26,1e2a314d68345bcc521be5de8e44be57,,"Mozilla/5.0 (Macintosh; Intel Mac OS X 10_15_7) AppleWebKit/537.36 (KHTML, like Gecko) Chrome/107.0.0.0 Safari/537.36",Macintosh,Chrome,107.0.0.0,OS X,10_15_7,12936,701,n,,soap.jpg,3,Filler,TRUE,
,,,,,fixation,3825,html-keyboard-response,266,261113,0.0-5.0-0.58,20,3,2022-11-17 00:47:26,1e2a314d68345bcc521be5de8e44be57,,"Mozilla/5.0 (Macintosh; Intel Mac OS X 10_15_7) AppleWebKit/537.36 (KHTML, like Gecko) Chrome/107.0.0.0 Safari/537.36",Macintosh,Chrome,107.0.0.0,OS X,10_15_7,12936,null,null,,"<p style=""font-size: 48px;"">+</p>",3,Filler,,
,,,,,sentence,3825,html-keyboard-response,267,261834,0.0-5.0-1.58,20,3,2022-11-17 00:47:26,1e2a314d68345bcc521be5de8e44be57,,"Mozilla/5.0 (Macintosh; Intel Mac OS X 10_15_7) AppleWebKit/537.36 (KHTML, like Gecko) Chrome/107.0.0.0 Safari/537.36",Macintosh,Chrome,107.0.0.0,OS X,10_15_7,12936,704, ,,A towel was placed on the TV,3,Filler,,
,,,,,fixation,3825,html-keyboard-response,268,262353,0.0-5.0-2.58,20,3,2022-11-17 00:47:26,1e2a314d68345bcc521be5de8e44be57,,"Mozilla/5.0 (Macintosh; Intel Mac OS X 10_15_7) AppleWebKit/537.36 (KHTML, like Gecko) Chrome/107.0.0.0 Safari/537.36",Macintosh,Chrome,107.0.0.0,OS X,10_15_7,12936,null,null,,"<p style=""font-size: 48px;"">+</p>",3,Filler,,
,,,,,picture,3825,image-keyboard-response,269,262987,0.0-5.0-3.58,20,3,2022-11-17 00:47:26,1e2a314d68345bcc521be5de8e44be57,,"Mozilla/5.0 (Macintosh; Intel Mac OS X 10_15_7) AppleWebKit/537.36 (KHTML, like Gecko) Chrome/107.0.0.0 Safari/537.36",Macintosh,Chrome,107.0.0.0,OS X,10_15_7,12936,615,n,,pencil.jpg,3,Filler,TRUE,
,,,,,fixation,3825,html-keyboard-response,270,264009,0.0-5.0-0.59,20,3,2022-11-17 00:47:26,1e2a314d68345bcc521be5de8e44be57,,"Mozilla/5.0 (Macintosh; Intel Mac OS X 10_15_7) AppleWebKit/537.36 (KHTML, like Gecko) Chrome/107.0.0.0 Safari/537.36",Macintosh,Chrome,107.0.0.0,OS X,10_15_7,12936,null,null,,"<p style=""font-size: 48px;"">+</p>",3,Filler,,
,,,,,sentence,3825,html-keyboard-response,271,264668,0.0-5.0-1.59,20,3,2022-11-17 00:47:26,1e2a314d68345bcc521be5de8e44be57,,"Mozilla/5.0 (Macintosh; Intel Mac OS X 10_15_7) AppleWebKit/537.36 (KHTML, like Gecko) Chrome/107.0.0.0 Safari/537.36",Macintosh,Chrome,107.0.0.0,OS X,10_15_7,12936,645, ,,A woman is paying with a debit card,3,Filler,,
,,,,,fixation,3825,html-keyboard-response,272,265185,0.0-5.0-2.59,20,3,2022-11-17 00:47:26,1e2a314d68345bcc521be5de8e44be57,,"Mozilla/5.0 (Macintosh; Intel Mac OS X 10_15_7) AppleWebKit/537.36 (KHTML, like Gecko) Chrome/107.0.0.0 Safari/537.36",Macintosh,Chrome,107.0.0.0,OS X,10_15_7,12936,null,null,,"<p style=""font-size: 48px;"">+</p>",3,Filler,,
,,,,,picture,3825,image-keyboard-response,273,265706,0.0-5.0-3.59,20,3,2022-11-17 00:47:26,1e2a314d68345bcc521be5de8e44be57,,"Mozilla/5.0 (Macintosh; Intel Mac OS X 10_15_7) AppleWebKit/537.36 (KHTML, like Gecko) Chrome/107.0.0.0 Safari/537.36",Macintosh,Chrome,107.0.0.0,OS X,10_15_7,12936,506,n,,papercup.jpg,3,Filler,TRUE,
,,,,,fixation,3825,html-keyboard-response,274,266729,0.0-5.0-0.60,20,3,2022-11-17 00:47:26,1e2a314d68345bcc521be5de8e44be57,,"Mozilla/5.0 (Macintosh; Intel Mac OS X 10_15_7) AppleWebKit/537.36 (KHTML, like Gecko) Chrome/107.0.0.0 Safari/537.36",Macintosh,Chrome,107.0.0.0,OS X,10_15_7,12936,null,null,,"<p style=""font-size: 48px;"">+</p>",3,Filler,,
,,,,,sentence,3825,html-keyboard-response,275,267193,0.0-5.0-1.60,20,3,2022-11-17 00:47:26,1e2a314d68345bcc521be5de8e44be57,,"Mozilla/5.0 (Macintosh; Intel Mac OS X 10_15_7) AppleWebKit/537.36 (KHTML, like Gecko) Chrome/107.0.0.0 Safari/537.36",Macintosh,Chrome,107.0.0.0,OS X,10_15_7,12936,445, ,,A cook is taking a knife,3,Filler,,
,,,,,fixation,3825,html-keyboard-response,276,267713,0.0-5.0-2.60,20,3,2022-11-17 00:47:26,1e2a314d68345bcc521be5de8e44be57,,"Mozilla/5.0 (Macintosh; Intel Mac OS X 10_15_7) AppleWebKit/537.36 (KHTML, like Gecko) Chrome/107.0.0.0 Safari/537.36",Macintosh,Chrome,107.0.0.0,OS X,10_15_7,12936,null,null,,"<p style=""font-size: 48px;"">+</p>",3,Filler,,
,,,,,picture,3825,image-keyboard-response,277,268151,0.0-5.0-3.60,20,3,2022-11-17 00:47:26,1e2a314d68345bcc521be5de8e44be57,,"Mozilla/5.0 (Macintosh; Intel Mac OS X 10_15_7) AppleWebKit/537.36 (KHTML, like Gecko) Chrome/107.0.0.0 Safari/537.36",Macintosh,Chrome,107.0.0.0,OS X,10_15_7,12936,423,s,,knife.jpg,3,Filler,TRUE,
,,,,,fixation,3825,html-keyboard-response,278,269177,0.0-5.0-0.61,20,3,2022-11-17 00:47:26,1e2a314d68345bcc521be5de8e44be57,,"Mozilla/5.0 (Macintosh; Intel Mac OS X 10_15_7) AppleWebKit/537.36 (KHTML, like Gecko) Chrome/107.0.0.0 Safari/537.36",Macintosh,Chrome,107.0.0.0,OS X,10_15_7,12936,null,null,,"<p style=""font-size: 48px;"">+</p>",3,Heavy_Matched,,
,,,,,sentence,3825,html-keyboard-response,279,269859,0.0-5.0-1.61,20,3,2022-11-17 00:47:26,1e2a314d68345bcc521be5de8e44be57,,"Mozilla/5.0 (Macintosh; Intel Mac OS X 10_15_7) AppleWebKit/537.36 (KHTML, like Gecko) Chrome/107.0.0.0 Safari/537.36",Macintosh,Chrome,107.0.0.0,OS X,10_15_7,12936,666, ,,A bowling ball dropped and smashed a rice cake,3,Heavy_Matched,,
,,,,,fixation,3825,html-keyboard-response,280,270385,0.0-5.0-2.61,20,3,2022-11-17 00:47:26,1e2a314d68345bcc521be5de8e44be57,,"Mozilla/5.0 (Macintosh; Intel Mac OS X 10_15_7) AppleWebKit/537.36 (KHTML, like Gecko) Chrome/107.0.0.0 Safari/537.36",Macintosh,Chrome,107.0.0.0,OS X,10_15_7,12936,null,null,,"<p style=""font-size: 48px;"">+</p>",3,Heavy_Matched,,
